,subId,rt,imgName,rating,trial_index,debug_mode
0,A17IHC8O946XPF:3MMN5BL1W1BX0139W7GSXRWPOS0M3Q,4289,020547_-0.6590909090909091.png,8,2,live
1,A17IHC8O946XPF:3MMN5BL1W1BX0139W7GSXRWPOS0M3Q,3027,156683_-0.18939393939393934.png,6,3,live
2,A17IHC8O946XPF:3MMN5BL1W1BX0139W7GSXRWPOS0M3Q,4086,077003_0.643939393939394.png,7,4,live
3,A17IHC8O946XPF:3MMN5BL1W1BX0139W7GSXRWPOS0M3Q,2272,010879_-0.6287878787878788.png,7,5,live
4,A17IHC8O946XPF:3MMN5BL1W1BX0139W7GSXRWPOS0M3Q,3913,135232_0.26515151515151514.png,8,6,live
5,A17IHC8O946XPF:3MMN5BL1W1BX0139W7GSXRWPOS0M3Q,3982,195628_-0.4318181818181818.png,4,7,live
6,A17IHC8O946XPF:3MMN5BL1W1BX0139W7GSXRWPOS0M3Q,2284,177185_-0.21969696969696972.png,4,8,live
7,A17IHC8O946XPF:3MMN5BL1W1BX0139W7GSXRWPOS0M3Q,3149,067107_0.3257575757575757.png,5,9,live
8,A17IHC8O946XPF:3MMN5BL1W1BX0139W7GSXRWPOS0M3Q,2029,107163_-0.6893939393939394.png,5,10,live
9,A17IHC8O946XPF:3MMN5BL1W1BX0139W7GSXRWPOS0M3Q,2710,087309_-0.6439393939393939.png,6,11,live
10,A17IHC8O946XPF:3MMN5BL1W1BX0139W7GSXRWPOS0M3Q,1764,077438_-0.26515151515151514.png,6,13,live
11,A17IHC8O946XPF:3MMN5BL1W1BX0139W7GSXRWPOS0M3Q,2452,000907_0.3712121212121213.png,3,14,live
12,A17IHC8O946XPF:3MMN5BL1W1BX0139W7GSXRWPOS0M3Q,5707,185401_-0.4621212121212121.png,3,15,live
13,A17IHC8O946XPF:3MMN5BL1W1BX0139W7GSXRWPOS0M3Q,2338,175064_0.7196969696969697.png,4,16,live
14,A17IHC8O946XPF:3MMN5BL1W1BX0139W7GSXRWPOS0M3Q,1843,191981_-0.3106060606060606.png,5,17,live
15,A17IHC8O946XPF:3MMN5BL1W1BX0139W7GSXRWPOS0M3Q,1131,177627_-0.32575757575757575.png,5,18,live
16,A17IHC8O946XPF:3MMN5BL1W1BX0139W7GSXRWPOS0M3Q,1244,041147_0.446969696969697.png,5,19,live
17,A17IHC8O946XPF:3MMN5BL1W1BX0139W7GSXRWPOS0M3Q,1551,040377_0.6742424242424243.png,6,20,live
18,A17IHC8O946XPF:3MMN5BL1W1BX0139W7GSXRWPOS0M3Q,1061,077438_-0.26515151515151514.png,6,21,live
19,A17IHC8O946XPF:3MMN5BL1W1BX0139W7GSXRWPOS0M3Q,1313,000879_0.553030303030303.png,6,22,live
20,A17IHC8O946XPF:3MMN5BL1W1BX0139W7GSXRWPOS0M3Q,1077,177185_-0.21969696969696972.png,6,24,live
21,A17IHC8O946XPF:3MMN5BL1W1BX0139W7GSXRWPOS0M3Q,3941,190277_0.5984848484848486.png,8,25,live
22,A17IHC8O946XPF:3MMN5BL1W1BX0139W7GSXRWPOS0M3Q,1342,131605_-0.6742424242424242.png,8,26,live
23,A17IHC8O946XPF:3MMN5BL1W1BX0139W7GSXRWPOS0M3Q,1091,164388_0.5378787878787878.png,8,27,live
24,A17IHC8O946XPF:3MMN5BL1W1BX0139W7GSXRWPOS0M3Q,1030,200766_-0.25.png,8,28,live
25,A17IHC8O946XPF:3MMN5BL1W1BX0139W7GSXRWPOS0M3Q,1366,139618_-0.4772727272727273.png,8,29,live
26,A17IHC8O946XPF:3MMN5BL1W1BX0139W7GSXRWPOS0M3Q,2717,124810_-0.44696969696969696.png,5,30,live
27,A17IHC8O946XPF:3MMN5BL1W1BX0139W7GSXRWPOS0M3Q,1221,182210_-0.49242424242424243.png,5,31,live
28,A17IHC8O946XPF:3MMN5BL1W1BX0139W7GSXRWPOS0M3Q,2317,176041_-0.7045454545454546.png,7,32,live
29,A17IHC8O946XPF:3MMN5BL1W1BX0139W7GSXRWPOS0M3Q,2788,080519_0.31060606060606055.png,2,33,live
30,A17IHC8O946XPF:3MMN5BL1W1BX0139W7GSXRWPOS0M3Q,2710,045515_0.007575757575757569.png,5,35,live
31,A17IHC8O946XPF:3MMN5BL1W1BX0139W7GSXRWPOS0M3Q,1029,076120_0.5075757575757576.png,5,36,live
32,A17IHC8O946XPF:3MMN5BL1W1BX0139W7GSXRWPOS0M3Q,1519,074250_-0.08333333333333326.png,5,37,live
33,A17IHC8O946XPF:3MMN5BL1W1BX0139W7GSXRWPOS0M3Q,2036,042970_0.75.png,6,38,live
34,A17IHC8O946XPF:3MMN5BL1W1BX0139W7GSXRWPOS0M3Q,2309,189047_0.21969696969696972.png,4,39,live
35,A17IHC8O946XPF:3MMN5BL1W1BX0139W7GSXRWPOS0M3Q,4076,067107_0.3257575757575757.png,6,40,live
36,A17IHC8O946XPF:3MMN5BL1W1BX0139W7GSXRWPOS0M3Q,2198,115608_0.08333333333333337.png,5,41,live
37,A17IHC8O946XPF:3MMN5BL1W1BX0139W7GSXRWPOS0M3Q,1340,142363_0.6136363636363638.png,5,42,live
38,A17IHC8O946XPF:3MMN5BL1W1BX0139W7GSXRWPOS0M3Q,1077,137488_0.25.png,5,43,live
39,A17IHC8O946XPF:3MMN5BL1W1BX0139W7GSXRWPOS0M3Q,3046,108843_-0.3712121212121212.png,6,44,live
40,A17IHC8O946XPF:3MMN5BL1W1BX0139W7GSXRWPOS0M3Q,3111,111223_-0.23484848484848486.png,7,46,live
41,A17IHC8O946XPF:3MMN5BL1W1BX0139W7GSXRWPOS0M3Q,4686,188228_-0.6136363636363636.png,4,47,live
42,A17IHC8O946XPF:3MMN5BL1W1BX0139W7GSXRWPOS0M3Q,1079,105621_0.5833333333333335.png,4,48,live
43,A17IHC8O946XPF:3MMN5BL1W1BX0139W7GSXRWPOS0M3Q,1201,141447_0.15909090909090917.png,4,49,live
44,A17IHC8O946XPF:3MMN5BL1W1BX0139W7GSXRWPOS0M3Q,2529,114266_0.5227272727272727.png,3,50,live
45,A17IHC8O946XPF:3MMN5BL1W1BX0139W7GSXRWPOS0M3Q,1895,134541_-0.1742424242424242.png,5,51,live
46,A17IHC8O946XPF:3MMN5BL1W1BX0139W7GSXRWPOS0M3Q,1015,005032_0.46212121212121215.png,5,52,live
47,A17IHC8O946XPF:3MMN5BL1W1BX0139W7GSXRWPOS0M3Q,3994,131605_-0.6742424242424242.png,6,53,live
48,A17IHC8O946XPF:3MMN5BL1W1BX0139W7GSXRWPOS0M3Q,1877,189047_0.21969696969696972.png,4,54,live
49,A17IHC8O946XPF:3MMN5BL1W1BX0139W7GSXRWPOS0M3Q,1804,181560_-0.3409090909090909.png,6,55,live
50,A17IHC8O946XPF:3MMN5BL1W1BX0139W7GSXRWPOS0M3Q,2788,141447_0.15909090909090917.png,6,57,live
51,A17IHC8O946XPF:3MMN5BL1W1BX0139W7GSXRWPOS0M3Q,1242,017801_-0.037878787878787845.png,6,58,live
52,A17IHC8O946XPF:3MMN5BL1W1BX0139W7GSXRWPOS0M3Q,3382,058811_0.5681818181818181.png,5,59,live
53,A17IHC8O946XPF:3MMN5BL1W1BX0139W7GSXRWPOS0M3Q,1163,027615_0.053030303030303094.png,5,60,live
54,A17IHC8O946XPF:3MMN5BL1W1BX0139W7GSXRWPOS0M3Q,2301,042076_-0.7196969696969697.png,6,61,live
55,A17IHC8O946XPF:3MMN5BL1W1BX0139W7GSXRWPOS0M3Q,1278,006487_0.6590909090909092.png,6,62,live
56,A17IHC8O946XPF:3MMN5BL1W1BX0139W7GSXRWPOS0M3Q,1890,142408_-0.022727272727272707.png,7,63,live
57,A17IHC8O946XPF:3MMN5BL1W1BX0139W7GSXRWPOS0M3Q,1051,010879_-0.6287878787878788.png,7,64,live
58,A17IHC8O946XPF:3MMN5BL1W1BX0139W7GSXRWPOS0M3Q,1134,182833_-0.007575757575757569.png,7,65,live
59,A17IHC8O946XPF:3MMN5BL1W1BX0139W7GSXRWPOS0M3Q,1076,090214_-0.41666666666666663.png,7,66,live
60,A17IHC8O946XPF:3MMN5BL1W1BX0139W7GSXRWPOS0M3Q,1560,109193_0.7348484848484849.png,7,68,live
61,A17IHC8O946XPF:3MMN5BL1W1BX0139W7GSXRWPOS0M3Q,1138,097202_0.09848484848484851.png,7,69,live
62,A17IHC8O946XPF:3MMN5BL1W1BX0139W7GSXRWPOS0M3Q,1595,032881_0.18939393939393945.png,6,70,live
63,A17IHC8O946XPF:3MMN5BL1W1BX0139W7GSXRWPOS0M3Q,1921,017801_-0.037878787878787845.png,7,71,live
64,A17IHC8O946XPF:3MMN5BL1W1BX0139W7GSXRWPOS0M3Q,1177,006487_0.6590909090909092.png,7,72,live
65,A17IHC8O946XPF:3MMN5BL1W1BX0139W7GSXRWPOS0M3Q,1029,195190_-0.14393939393939392.png,7,73,live
66,A17IHC8O946XPF:3MMN5BL1W1BX0139W7GSXRWPOS0M3Q,2598,062275_0.6287878787878789.png,5,74,live
67,A17IHC8O946XPF:3MMN5BL1W1BX0139W7GSXRWPOS0M3Q,1188,041147_0.446969696969697.png,5,75,live
68,A17IHC8O946XPF:3MMN5BL1W1BX0139W7GSXRWPOS0M3Q,2250,156472_-0.5984848484848485.png,4,76,live
69,A17IHC8O946XPF:3MMN5BL1W1BX0139W7GSXRWPOS0M3Q,1780,057882_0.23484848484848486.png,5,77,live
70,A17IHC8O946XPF:3MMN5BL1W1BX0139W7GSXRWPOS0M3Q,2349,101289_0.49242424242424243.png,6,79,live
71,A17IHC8O946XPF:3MMN5BL1W1BX0139W7GSXRWPOS0M3Q,1290,166828_-0.7348484848484849.png,6,80,live
72,A17IHC8O946XPF:3MMN5BL1W1BX0139W7GSXRWPOS0M3Q,2512,014683_0.41666666666666674.png,6,81,live
73,A17IHC8O946XPF:3MMN5BL1W1BX0139W7GSXRWPOS0M3Q,1001,071433_0.4318181818181819.png,6,82,live
74,A17IHC8O946XPF:3MMN5BL1W1BX0139W7GSXRWPOS0M3Q,6749,045041_0.14393939393939392.png,6,83,live
75,A17IHC8O946XPF:3MMN5BL1W1BX0139W7GSXRWPOS0M3Q,1064,081654_0.20454545454545459.png,6,84,live
76,A17IHC8O946XPF:3MMN5BL1W1BX0139W7GSXRWPOS0M3Q,1971,166562_0.4772727272727273.png,5,85,live
77,A17IHC8O946XPF:3MMN5BL1W1BX0139W7GSXRWPOS0M3Q,3973,018930_-0.38636363636363635.png,5,86,live
78,A17IHC8O946XPF:3MMN5BL1W1BX0139W7GSXRWPOS0M3Q,1131,006146_0.12878787878787878.png,5,87,live
79,A17IHC8O946XPF:3MMN5BL1W1BX0139W7GSXRWPOS0M3Q,1896,181560_-0.3409090909090909.png,6,88,live
80,A17IHC8O946XPF:3MMN5BL1W1BX0139W7GSXRWPOS0M3Q,1740,189127_-0.75.png,6,90,live
81,A17IHC8O946XPF:3MMN5BL1W1BX0139W7GSXRWPOS0M3Q,2518,028460_-0.5075757575757576.png,6,91,live
82,A17IHC8O946XPF:3MMN5BL1W1BX0139W7GSXRWPOS0M3Q,2899,041492_0.11363636363636365.png,6,92,live
83,A17IHC8O946XPF:3MMN5BL1W1BX0139W7GSXRWPOS0M3Q,1396,018930_-0.38636363636363635.png,6,93,live
84,A17IHC8O946XPF:3MMN5BL1W1BX0139W7GSXRWPOS0M3Q,1140,153367_0.037878787878787845.png,6,94,live
85,A17IHC8O946XPF:3MMN5BL1W1BX0139W7GSXRWPOS0M3Q,1095,062697_0.3560606060606062.png,6,95,live
86,A17IHC8O946XPF:3MMN5BL1W1BX0139W7GSXRWPOS0M3Q,2052,129472_-0.553030303030303.png,6,96,live
87,A17IHC8O946XPF:3MMN5BL1W1BX0139W7GSXRWPOS0M3Q,1388,005032_0.46212121212121215.png,7,97,live
88,A17IHC8O946XPF:3MMN5BL1W1BX0139W7GSXRWPOS0M3Q,1014,067945_0.1742424242424243.png,7,98,live
89,A17IHC8O946XPF:3MMN5BL1W1BX0139W7GSXRWPOS0M3Q,3597,081654_0.20454545454545459.png,6,99,live
90,A17IHC8O946XPF:3MMN5BL1W1BX0139W7GSXRWPOS0M3Q,5920,016561_-0.12878787878787878.png,4,101,live
91,A17IHC8O946XPF:3MMN5BL1W1BX0139W7GSXRWPOS0M3Q,1117,000570_0.34090909090909083.png,4,102,live
92,A17IHC8O946XPF:3MMN5BL1W1BX0139W7GSXRWPOS0M3Q,1102,077003_0.643939393939394.png,4,103,live
93,A17IHC8O946XPF:3MMN5BL1W1BX0139W7GSXRWPOS0M3Q,2374,045041_0.14393939393939392.png,5,104,live
94,A17IHC8O946XPF:3MMN5BL1W1BX0139W7GSXRWPOS0M3Q,1859,000879_0.553030303030303.png,5,105,live
95,A17IHC8O946XPF:3MMN5BL1W1BX0139W7GSXRWPOS0M3Q,1628,134541_-0.1742424242424242.png,6,106,live
96,A17IHC8O946XPF:3MMN5BL1W1BX0139W7GSXRWPOS0M3Q,1685,062275_0.6287878787878789.png,5,107,live
97,A17IHC8O946XPF:3MMN5BL1W1BX0139W7GSXRWPOS0M3Q,4118,016561_-0.12878787878787878.png,4,108,live
98,A17IHC8O946XPF:3MMN5BL1W1BX0139W7GSXRWPOS0M3Q,2042,136712_-0.2803030303030303.png,5,109,live
99,A17IHC8O946XPF:3MMN5BL1W1BX0139W7GSXRWPOS0M3Q,1221,044261_-0.15909090909090906.png,5,110,live
100,A18KWJ0MC4F86P:3M81GAB8A2QTOB5E3T2FWJE6MLBQB9,7815,042970_0.75.png,7,2,live
101,A18KWJ0MC4F86P:3M81GAB8A2QTOB5E3T2FWJE6MLBQB9,4901,181560_-0.3409090909090909.png,8,3,live
102,A18KWJ0MC4F86P:3M81GAB8A2QTOB5E3T2FWJE6MLBQB9,4051,081654_0.20454545454545459.png,8,4,live
103,A18KWJ0MC4F86P:3M81GAB8A2QTOB5E3T2FWJE6MLBQB9,3560,077003_0.643939393939394.png,6,5,live
104,A18KWJ0MC4F86P:3M81GAB8A2QTOB5E3T2FWJE6MLBQB9,4098,101289_0.49242424242424243.png,4,6,live
105,A18KWJ0MC4F86P:3M81GAB8A2QTOB5E3T2FWJE6MLBQB9,4156,081654_0.20454545454545459.png,8,7,live
106,A18KWJ0MC4F86P:3M81GAB8A2QTOB5E3T2FWJE6MLBQB9,4810,166562_0.4772727272727273.png,4,8,live
107,A18KWJ0MC4F86P:3M81GAB8A2QTOB5E3T2FWJE6MLBQB9,4097,166828_-0.7348484848484849.png,5,9,live
108,A18KWJ0MC4F86P:3M81GAB8A2QTOB5E3T2FWJE6MLBQB9,3675,191981_-0.3106060606060606.png,4,10,live
109,A18KWJ0MC4F86P:3M81GAB8A2QTOB5E3T2FWJE6MLBQB9,2935,189127_-0.75.png,3,11,live
110,A18KWJ0MC4F86P:3M81GAB8A2QTOB5E3T2FWJE6MLBQB9,5855,176041_-0.7045454545454546.png,5,13,live
111,A18KWJ0MC4F86P:3M81GAB8A2QTOB5E3T2FWJE6MLBQB9,3950,028460_-0.5075757575757576.png,2,14,live
112,A18KWJ0MC4F86P:3M81GAB8A2QTOB5E3T2FWJE6MLBQB9,3292,141447_0.15909090909090917.png,7,15,live
113,A18KWJ0MC4F86P:3M81GAB8A2QTOB5E3T2FWJE6MLBQB9,3053,077438_-0.26515151515151514.png,2,16,live
114,A18KWJ0MC4F86P:3M81GAB8A2QTOB5E3T2FWJE6MLBQB9,4426,077003_0.643939393939394.png,6,17,live
115,A18KWJ0MC4F86P:3M81GAB8A2QTOB5E3T2FWJE6MLBQB9,3325,041492_0.11363636363636365.png,7,18,live
116,A18KWJ0MC4F86P:3M81GAB8A2QTOB5E3T2FWJE6MLBQB9,4164,200766_-0.25.png,2,19,live
117,A18KWJ0MC4F86P:3M81GAB8A2QTOB5E3T2FWJE6MLBQB9,2700,014683_0.41666666666666674.png,3,20,live
118,A18KWJ0MC4F86P:3M81GAB8A2QTOB5E3T2FWJE6MLBQB9,4027,137488_0.25.png,2,21,live
119,A18KWJ0MC4F86P:3M81GAB8A2QTOB5E3T2FWJE6MLBQB9,3380,006487_0.6590909090909092.png,6,22,live
120,A18KWJ0MC4F86P:3M81GAB8A2QTOB5E3T2FWJE6MLBQB9,4214,067945_0.1742424242424243.png,3,24,live
121,A18KWJ0MC4F86P:3M81GAB8A2QTOB5E3T2FWJE6MLBQB9,3309,045041_0.14393939393939392.png,1,25,live
122,A18KWJ0MC4F86P:3M81GAB8A2QTOB5E3T2FWJE6MLBQB9,3028,032881_0.18939393939393945.png,2,26,live
123,A18KWJ0MC4F86P:3M81GAB8A2QTOB5E3T2FWJE6MLBQB9,6528,080519_0.31060606060606055.png,2,27,live
124,A18KWJ0MC4F86P:3M81GAB8A2QTOB5E3T2FWJE6MLBQB9,3059,105621_0.5833333333333335.png,1,28,live
125,A18KWJ0MC4F86P:3M81GAB8A2QTOB5E3T2FWJE6MLBQB9,3492,010879_-0.6287878787878788.png,5,29,live
126,A18KWJ0MC4F86P:3M81GAB8A2QTOB5E3T2FWJE6MLBQB9,5385,017801_-0.037878787878787845.png,6,30,live
127,A18KWJ0MC4F86P:3M81GAB8A2QTOB5E3T2FWJE6MLBQB9,4520,016561_-0.12878787878787878.png,1,31,live
128,A18KWJ0MC4F86P:3M81GAB8A2QTOB5E3T2FWJE6MLBQB9,3490,135232_0.26515151515151514.png,6,32,live
129,A18KWJ0MC4F86P:3M81GAB8A2QTOB5E3T2FWJE6MLBQB9,3052,134541_-0.1742424242424242.png,3,33,live
130,A18KWJ0MC4F86P:3M81GAB8A2QTOB5E3T2FWJE6MLBQB9,4027,124810_-0.44696969696969696.png,8,35,live
131,A18KWJ0MC4F86P:3M81GAB8A2QTOB5E3T2FWJE6MLBQB9,3302,062697_0.3560606060606062.png,9,36,live
132,A18KWJ0MC4F86P:3M81GAB8A2QTOB5E3T2FWJE6MLBQB9,3629,136712_-0.2803030303030303.png,3,37,live
133,A18KWJ0MC4F86P:3M81GAB8A2QTOB5E3T2FWJE6MLBQB9,4153,087309_-0.6439393939393939.png,8,38,live
134,A18KWJ0MC4F86P:3M81GAB8A2QTOB5E3T2FWJE6MLBQB9,4386,044261_-0.15909090909090906.png,1,39,live
135,A18KWJ0MC4F86P:3M81GAB8A2QTOB5E3T2FWJE6MLBQB9,2787,109193_0.7348484848484849.png,3,40,live
136,A18KWJ0MC4F86P:3M81GAB8A2QTOB5E3T2FWJE6MLBQB9,2902,156472_-0.5984848484848485.png,2,41,live
137,A18KWJ0MC4F86P:3M81GAB8A2QTOB5E3T2FWJE6MLBQB9,3794,090214_-0.41666666666666663.png,2,42,live
138,A18KWJ0MC4F86P:3M81GAB8A2QTOB5E3T2FWJE6MLBQB9,4294,040377_0.6742424242424243.png,7,43,live
139,A18KWJ0MC4F86P:3M81GAB8A2QTOB5E3T2FWJE6MLBQB9,3239,111223_-0.23484848484848486.png,4,44,live
140,A18KWJ0MC4F86P:3M81GAB8A2QTOB5E3T2FWJE6MLBQB9,6063,177185_-0.21969696969696972.png,1,46,live
141,A18KWJ0MC4F86P:3M81GAB8A2QTOB5E3T2FWJE6MLBQB9,3349,000879_0.553030303030303.png,3,47,live
142,A18KWJ0MC4F86P:3M81GAB8A2QTOB5E3T2FWJE6MLBQB9,3792,189047_0.21969696969696972.png,2,48,live
143,A18KWJ0MC4F86P:3M81GAB8A2QTOB5E3T2FWJE6MLBQB9,3373,067107_0.3257575757575757.png,1,49,live
144,A18KWJ0MC4F86P:3M81GAB8A2QTOB5E3T2FWJE6MLBQB9,2974,190277_0.5984848484848486.png,4,50,live
145,A18KWJ0MC4F86P:3M81GAB8A2QTOB5E3T2FWJE6MLBQB9,3371,062275_0.6287878787878789.png,3,51,live
146,A18KWJ0MC4F86P:3M81GAB8A2QTOB5E3T2FWJE6MLBQB9,3467,195628_-0.4318181818181818.png,1,52,live
147,A18KWJ0MC4F86P:3M81GAB8A2QTOB5E3T2FWJE6MLBQB9,3271,142363_0.6136363636363638.png,2,53,live
148,A18KWJ0MC4F86P:3M81GAB8A2QTOB5E3T2FWJE6MLBQB9,3621,000570_0.34090909090909083.png,5,54,live
149,A18KWJ0MC4F86P:3M81GAB8A2QTOB5E3T2FWJE6MLBQB9,3599,041147_0.446969696969697.png,3,55,live
150,A18KWJ0MC4F86P:3M81GAB8A2QTOB5E3T2FWJE6MLBQB9,3580,141447_0.15909090909090917.png,8,57,live
151,A18KWJ0MC4F86P:3M81GAB8A2QTOB5E3T2FWJE6MLBQB9,2958,139618_-0.4772727272727273.png,6,58,live
152,A18KWJ0MC4F86P:3M81GAB8A2QTOB5E3T2FWJE6MLBQB9,4488,185401_-0.4621212121212121.png,6,59,live
153,A18KWJ0MC4F86P:3M81GAB8A2QTOB5E3T2FWJE6MLBQB9,6772,016561_-0.12878787878787878.png,3,60,live
154,A18KWJ0MC4F86P:3M81GAB8A2QTOB5E3T2FWJE6MLBQB9,3440,018930_-0.38636363636363635.png,4,61,live
155,A18KWJ0MC4F86P:3M81GAB8A2QTOB5E3T2FWJE6MLBQB9,2913,097202_0.09848484848484851.png,5,62,live
156,A18KWJ0MC4F86P:3M81GAB8A2QTOB5E3T2FWJE6MLBQB9,3021,071433_0.4318181818181819.png,3,63,live
157,A18KWJ0MC4F86P:3M81GAB8A2QTOB5E3T2FWJE6MLBQB9,3325,129472_-0.553030303030303.png,4,64,live
158,A18KWJ0MC4F86P:3M81GAB8A2QTOB5E3T2FWJE6MLBQB9,2918,045041_0.14393939393939392.png,1,65,live
159,A18KWJ0MC4F86P:3M81GAB8A2QTOB5E3T2FWJE6MLBQB9,6926,045515_0.007575757575757569.png,3,66,live
160,A18KWJ0MC4F86P:3M81GAB8A2QTOB5E3T2FWJE6MLBQB9,7499,041147_0.446969696969697.png,4,68,live
161,A18KWJ0MC4F86P:3M81GAB8A2QTOB5E3T2FWJE6MLBQB9,7306,005032_0.46212121212121215.png,7,69,live
162,A18KWJ0MC4F86P:3M81GAB8A2QTOB5E3T2FWJE6MLBQB9,2950,006487_0.6590909090909092.png,6,70,live
163,A18KWJ0MC4F86P:3M81GAB8A2QTOB5E3T2FWJE6MLBQB9,3059,131605_-0.6742424242424242.png,7,71,live
164,A18KWJ0MC4F86P:3M81GAB8A2QTOB5E3T2FWJE6MLBQB9,4037,076120_0.5075757575757576.png,8,72,live
165,A18KWJ0MC4F86P:3M81GAB8A2QTOB5E3T2FWJE6MLBQB9,4254,108843_-0.3712121212121212.png,7,73,live
166,A18KWJ0MC4F86P:3M81GAB8A2QTOB5E3T2FWJE6MLBQB9,2685,115608_0.08333333333333337.png,4,74,live
167,A18KWJ0MC4F86P:3M81GAB8A2QTOB5E3T2FWJE6MLBQB9,2715,010879_-0.6287878787878788.png,5,75,live
168,A18KWJ0MC4F86P:3M81GAB8A2QTOB5E3T2FWJE6MLBQB9,3443,182210_-0.49242424242424243.png,2,76,live
169,A18KWJ0MC4F86P:3M81GAB8A2QTOB5E3T2FWJE6MLBQB9,2722,020547_-0.6590909090909091.png,3,77,live
170,A18KWJ0MC4F86P:3M81GAB8A2QTOB5E3T2FWJE6MLBQB9,4343,058811_0.5681818181818181.png,2,79,live
171,A18KWJ0MC4F86P:3M81GAB8A2QTOB5E3T2FWJE6MLBQB9,4086,057882_0.23484848484848486.png,7,80,live
172,A18KWJ0MC4F86P:3M81GAB8A2QTOB5E3T2FWJE6MLBQB9,3295,042076_-0.7196969696969697.png,8,81,live
173,A18KWJ0MC4F86P:3M81GAB8A2QTOB5E3T2FWJE6MLBQB9,7496,006146_0.12878787878787878.png,2,82,live
174,A18KWJ0MC4F86P:3M81GAB8A2QTOB5E3T2FWJE6MLBQB9,2951,188228_-0.6136363636363636.png,1,83,live
175,A18KWJ0MC4F86P:3M81GAB8A2QTOB5E3T2FWJE6MLBQB9,3168,189047_0.21969696969696972.png,2,84,live
176,A18KWJ0MC4F86P:3M81GAB8A2QTOB5E3T2FWJE6MLBQB9,3810,077438_-0.26515151515151514.png,2,85,live
177,A18KWJ0MC4F86P:3M81GAB8A2QTOB5E3T2FWJE6MLBQB9,4888,153367_0.037878787878787845.png,4,86,live
178,A18KWJ0MC4F86P:3M81GAB8A2QTOB5E3T2FWJE6MLBQB9,3106,195190_-0.14393939393939392.png,5,87,live
179,A18KWJ0MC4F86P:3M81GAB8A2QTOB5E3T2FWJE6MLBQB9,3810,175064_0.7196969696969697.png,3,88,live
180,A18KWJ0MC4F86P:3M81GAB8A2QTOB5E3T2FWJE6MLBQB9,3385,142408_-0.022727272727272707.png,4,90,live
181,A18KWJ0MC4F86P:3M81GAB8A2QTOB5E3T2FWJE6MLBQB9,3411,107163_-0.6893939393939394.png,9,91,live
182,A18KWJ0MC4F86P:3M81GAB8A2QTOB5E3T2FWJE6MLBQB9,3482,114266_0.5227272727272727.png,2,92,live
183,A18KWJ0MC4F86P:3M81GAB8A2QTOB5E3T2FWJE6MLBQB9,3504,018930_-0.38636363636363635.png,3,93,live
184,A18KWJ0MC4F86P:3M81GAB8A2QTOB5E3T2FWJE6MLBQB9,4700,027615_0.053030303030303094.png,6,94,live
185,A18KWJ0MC4F86P:3M81GAB8A2QTOB5E3T2FWJE6MLBQB9,4238,131605_-0.6742424242424242.png,7,95,live
186,A18KWJ0MC4F86P:3M81GAB8A2QTOB5E3T2FWJE6MLBQB9,4732,074250_-0.08333333333333326.png,8,96,live
187,A18KWJ0MC4F86P:3M81GAB8A2QTOB5E3T2FWJE6MLBQB9,4434,177627_-0.32575757575757575.png,1,97,live
188,A18KWJ0MC4F86P:3M81GAB8A2QTOB5E3T2FWJE6MLBQB9,2840,134541_-0.1742424242424242.png,3,98,live
189,A18KWJ0MC4F86P:3M81GAB8A2QTOB5E3T2FWJE6MLBQB9,4693,067107_0.3257575757575757.png,2,99,live
190,A18KWJ0MC4F86P:3M81GAB8A2QTOB5E3T2FWJE6MLBQB9,4695,005032_0.46212121212121215.png,8,101,live
191,A18KWJ0MC4F86P:3M81GAB8A2QTOB5E3T2FWJE6MLBQB9,4738,017801_-0.037878787878787845.png,6,102,live
192,A18KWJ0MC4F86P:3M81GAB8A2QTOB5E3T2FWJE6MLBQB9,2636,000879_0.553030303030303.png,3,103,live
193,A18KWJ0MC4F86P:3M81GAB8A2QTOB5E3T2FWJE6MLBQB9,4278,182833_-0.007575757575757569.png,8,104,live
194,A18KWJ0MC4F86P:3M81GAB8A2QTOB5E3T2FWJE6MLBQB9,2693,181560_-0.3409090909090909.png,8,105,live
195,A18KWJ0MC4F86P:3M81GAB8A2QTOB5E3T2FWJE6MLBQB9,3192,000907_0.3712121212121213.png,2,106,live
196,A18KWJ0MC4F86P:3M81GAB8A2QTOB5E3T2FWJE6MLBQB9,3650,156683_-0.18939393939393934.png,1,107,live
197,A18KWJ0MC4F86P:3M81GAB8A2QTOB5E3T2FWJE6MLBQB9,3069,164388_0.5378787878787878.png,2,108,live
198,A18KWJ0MC4F86P:3M81GAB8A2QTOB5E3T2FWJE6MLBQB9,4200,062275_0.6287878787878789.png,3,109,live
199,A18KWJ0MC4F86P:3M81GAB8A2QTOB5E3T2FWJE6MLBQB9,3129,177185_-0.21969696969696972.png,1,110,live
200,A1MSLM87Z8CLTK:39N5ACM9HGUP06P25W9U58T6TPM9PR,6330,166562_0.4772727272727273.png,4,2,live
201,A1MSLM87Z8CLTK:39N5ACM9HGUP06P25W9U58T6TPM9PR,7066,176041_-0.7045454545454546.png,6,3,live
202,A1MSLM87Z8CLTK:39N5ACM9HGUP06P25W9U58T6TPM9PR,3754,181560_-0.3409090909090909.png,8,4,live
203,A1MSLM87Z8CLTK:39N5ACM9HGUP06P25W9U58T6TPM9PR,4144,101289_0.49242424242424243.png,3,5,live
204,A1MSLM87Z8CLTK:39N5ACM9HGUP06P25W9U58T6TPM9PR,2945,181560_-0.3409090909090909.png,8,6,live
205,A1MSLM87Z8CLTK:39N5ACM9HGUP06P25W9U58T6TPM9PR,2903,020547_-0.6590909090909091.png,6,7,live
206,A1MSLM87Z8CLTK:39N5ACM9HGUP06P25W9U58T6TPM9PR,5565,175064_0.7196969696969697.png,7,8,live
207,A1MSLM87Z8CLTK:39N5ACM9HGUP06P25W9U58T6TPM9PR,2733,124810_-0.44696969696969696.png,8,9,live
208,A1MSLM87Z8CLTK:39N5ACM9HGUP06P25W9U58T6TPM9PR,3040,000907_0.3712121212121213.png,4,10,live
209,A1MSLM87Z8CLTK:39N5ACM9HGUP06P25W9U58T6TPM9PR,2378,045041_0.14393939393939392.png,5,11,live
210,A1MSLM87Z8CLTK:39N5ACM9HGUP06P25W9U58T6TPM9PR,3196,040377_0.6742424242424243.png,5,13,live
211,A1MSLM87Z8CLTK:39N5ACM9HGUP06P25W9U58T6TPM9PR,4265,042970_0.75.png,9,14,live
212,A1MSLM87Z8CLTK:39N5ACM9HGUP06P25W9U58T6TPM9PR,5523,028460_-0.5075757575757576.png,2,15,live
213,A1MSLM87Z8CLTK:39N5ACM9HGUP06P25W9U58T6TPM9PR,2871,006487_0.6590909090909092.png,8,16,live
214,A1MSLM87Z8CLTK:39N5ACM9HGUP06P25W9U58T6TPM9PR,2661,062697_0.3560606060606062.png,6,17,live
215,A1MSLM87Z8CLTK:39N5ACM9HGUP06P25W9U58T6TPM9PR,4070,077003_0.643939393939394.png,8,18,live
216,A1MSLM87Z8CLTK:39N5ACM9HGUP06P25W9U58T6TPM9PR,2848,105621_0.5833333333333335.png,8,19,live
217,A1MSLM87Z8CLTK:39N5ACM9HGUP06P25W9U58T6TPM9PR,3889,080519_0.31060606060606055.png,3,20,live
218,A1MSLM87Z8CLTK:39N5ACM9HGUP06P25W9U58T6TPM9PR,4311,077438_-0.26515151515151514.png,2,21,live
219,A1MSLM87Z8CLTK:39N5ACM9HGUP06P25W9U58T6TPM9PR,3969,062275_0.6287878787878789.png,5,22,live
220,A1MSLM87Z8CLTK:39N5ACM9HGUP06P25W9U58T6TPM9PR,4196,090214_-0.41666666666666663.png,3,24,live
221,A1MSLM87Z8CLTK:39N5ACM9HGUP06P25W9U58T6TPM9PR,2754,114266_0.5227272727272727.png,2,25,live
222,A1MSLM87Z8CLTK:39N5ACM9HGUP06P25W9U58T6TPM9PR,2980,062275_0.6287878787878789.png,5,26,live
223,A1MSLM87Z8CLTK:39N5ACM9HGUP06P25W9U58T6TPM9PR,4054,041492_0.11363636363636365.png,8,27,live
224,A1MSLM87Z8CLTK:39N5ACM9HGUP06P25W9U58T6TPM9PR,5012,109193_0.7348484848484849.png,8,28,live
225,A1MSLM87Z8CLTK:39N5ACM9HGUP06P25W9U58T6TPM9PR,4547,141447_0.15909090909090917.png,8,29,live
226,A1MSLM87Z8CLTK:39N5ACM9HGUP06P25W9U58T6TPM9PR,5963,189047_0.21969696969696972.png,5,30,live
227,A1MSLM87Z8CLTK:39N5ACM9HGUP06P25W9U58T6TPM9PR,3540,108843_-0.3712121212121212.png,7,31,live
228,A1MSLM87Z8CLTK:39N5ACM9HGUP06P25W9U58T6TPM9PR,2616,190277_0.5984848484848486.png,4,32,live
229,A1MSLM87Z8CLTK:39N5ACM9HGUP06P25W9U58T6TPM9PR,3506,107163_-0.6893939393939394.png,8,33,live
230,A1MSLM87Z8CLTK:39N5ACM9HGUP06P25W9U58T6TPM9PR,3254,071433_0.4318181818181819.png,2,35,live
231,A1MSLM87Z8CLTK:39N5ACM9HGUP06P25W9U58T6TPM9PR,3636,189047_0.21969696969696972.png,5,36,live
232,A1MSLM87Z8CLTK:39N5ACM9HGUP06P25W9U58T6TPM9PR,2846,156472_-0.5984848484848485.png,4,37,live
233,A1MSLM87Z8CLTK:39N5ACM9HGUP06P25W9U58T6TPM9PR,2517,074250_-0.08333333333333326.png,7,38,live
234,A1MSLM87Z8CLTK:39N5ACM9HGUP06P25W9U58T6TPM9PR,2470,005032_0.46212121212121215.png,7,39,live
235,A1MSLM87Z8CLTK:39N5ACM9HGUP06P25W9U58T6TPM9PR,5527,182210_-0.49242424242424243.png,6,40,live
236,A1MSLM87Z8CLTK:39N5ACM9HGUP06P25W9U58T6TPM9PR,2839,188228_-0.6136363636363636.png,2,41,live
237,A1MSLM87Z8CLTK:39N5ACM9HGUP06P25W9U58T6TPM9PR,3320,139618_-0.4772727272727273.png,7,42,live
238,A1MSLM87Z8CLTK:39N5ACM9HGUP06P25W9U58T6TPM9PR,2877,017801_-0.037878787878787845.png,8,43,live
239,A1MSLM87Z8CLTK:39N5ACM9HGUP06P25W9U58T6TPM9PR,2503,177185_-0.21969696969696972.png,6,44,live
240,A1MSLM87Z8CLTK:39N5ACM9HGUP06P25W9U58T6TPM9PR,3331,000570_0.34090909090909083.png,8,46,live
241,A1MSLM87Z8CLTK:39N5ACM9HGUP06P25W9U58T6TPM9PR,3167,137488_0.25.png,6,47,live
242,A1MSLM87Z8CLTK:39N5ACM9HGUP06P25W9U58T6TPM9PR,3015,016561_-0.12878787878787878.png,3,48,live
243,A1MSLM87Z8CLTK:39N5ACM9HGUP06P25W9U58T6TPM9PR,4080,097202_0.09848484848484851.png,8,49,live
244,A1MSLM87Z8CLTK:39N5ACM9HGUP06P25W9U58T6TPM9PR,2451,141447_0.15909090909090917.png,8,50,live
245,A1MSLM87Z8CLTK:39N5ACM9HGUP06P25W9U58T6TPM9PR,3723,010879_-0.6287878787878788.png,8,51,live
246,A1MSLM87Z8CLTK:39N5ACM9HGUP06P25W9U58T6TPM9PR,3056,058811_0.5681818181818181.png,6,52,live
247,A1MSLM87Z8CLTK:39N5ACM9HGUP06P25W9U58T6TPM9PR,3628,000879_0.553030303030303.png,7,53,live
248,A1MSLM87Z8CLTK:39N5ACM9HGUP06P25W9U58T6TPM9PR,5719,018930_-0.38636363636363635.png,6,54,live
249,A1MSLM87Z8CLTK:39N5ACM9HGUP06P25W9U58T6TPM9PR,2765,042076_-0.7196969696969697.png,6,55,live
250,A1MSLM87Z8CLTK:39N5ACM9HGUP06P25W9U58T6TPM9PR,2421,166828_-0.7348484848484849.png,5,57,live
251,A1MSLM87Z8CLTK:39N5ACM9HGUP06P25W9U58T6TPM9PR,3339,067107_0.3257575757575757.png,6,58,live
252,A1MSLM87Z8CLTK:39N5ACM9HGUP06P25W9U58T6TPM9PR,2501,032881_0.18939393939393945.png,4,59,live
253,A1MSLM87Z8CLTK:39N5ACM9HGUP06P25W9U58T6TPM9PR,2243,142363_0.6136363636363638.png,3,60,live
254,A1MSLM87Z8CLTK:39N5ACM9HGUP06P25W9U58T6TPM9PR,2557,164388_0.5378787878787878.png,7,61,live
255,A1MSLM87Z8CLTK:39N5ACM9HGUP06P25W9U58T6TPM9PR,3173,185401_-0.4621212121212121.png,7,62,live
256,A1MSLM87Z8CLTK:39N5ACM9HGUP06P25W9U58T6TPM9PR,3317,115608_0.08333333333333337.png,6,63,live
257,A1MSLM87Z8CLTK:39N5ACM9HGUP06P25W9U58T6TPM9PR,2108,005032_0.46212121212121215.png,7,64,live
258,A1MSLM87Z8CLTK:39N5ACM9HGUP06P25W9U58T6TPM9PR,3974,200766_-0.25.png,3,65,live
259,A1MSLM87Z8CLTK:39N5ACM9HGUP06P25W9U58T6TPM9PR,3127,017801_-0.037878787878787845.png,8,66,live
260,A1MSLM87Z8CLTK:39N5ACM9HGUP06P25W9U58T6TPM9PR,4438,195628_-0.4318181818181818.png,1,68,live
261,A1MSLM87Z8CLTK:39N5ACM9HGUP06P25W9U58T6TPM9PR,3551,153367_0.037878787878787845.png,5,69,live
262,A1MSLM87Z8CLTK:39N5ACM9HGUP06P25W9U58T6TPM9PR,3219,129472_-0.553030303030303.png,5,70,live
263,A1MSLM87Z8CLTK:39N5ACM9HGUP06P25W9U58T6TPM9PR,2246,016561_-0.12878787878787878.png,2,71,live
264,A1MSLM87Z8CLTK:39N5ACM9HGUP06P25W9U58T6TPM9PR,3903,111223_-0.23484848484848486.png,9,72,live
265,A1MSLM87Z8CLTK:39N5ACM9HGUP06P25W9U58T6TPM9PR,3310,044261_-0.15909090909090906.png,8,73,live
266,A1MSLM87Z8CLTK:39N5ACM9HGUP06P25W9U58T6TPM9PR,3012,177627_-0.32575757575757575.png,5,74,live
267,A1MSLM87Z8CLTK:39N5ACM9HGUP06P25W9U58T6TPM9PR,2096,018930_-0.38636363636363635.png,6,75,live
268,A1MSLM87Z8CLTK:39N5ACM9HGUP06P25W9U58T6TPM9PR,2803,045515_0.007575757575757569.png,7,76,live
269,A1MSLM87Z8CLTK:39N5ACM9HGUP06P25W9U58T6TPM9PR,1975,136712_-0.2803030303030303.png,6,77,live
270,A1MSLM87Z8CLTK:39N5ACM9HGUP06P25W9U58T6TPM9PR,3323,191981_-0.3106060606060606.png,7,79,live
271,A1MSLM87Z8CLTK:39N5ACM9HGUP06P25W9U58T6TPM9PR,4086,135232_0.26515151515151514.png,9,80,live
272,A1MSLM87Z8CLTK:39N5ACM9HGUP06P25W9U58T6TPM9PR,3451,027615_0.053030303030303094.png,8,81,live
273,A1MSLM87Z8CLTK:39N5ACM9HGUP06P25W9U58T6TPM9PR,2476,010879_-0.6287878787878788.png,8,82,live
274,A1MSLM87Z8CLTK:39N5ACM9HGUP06P25W9U58T6TPM9PR,2733,076120_0.5075757575757576.png,6,83,live
275,A1MSLM87Z8CLTK:39N5ACM9HGUP06P25W9U58T6TPM9PR,3935,087309_-0.6439393939393939.png,8,84,live
276,A1MSLM87Z8CLTK:39N5ACM9HGUP06P25W9U58T6TPM9PR,1891,081654_0.20454545454545459.png,6,85,live
277,A1MSLM87Z8CLTK:39N5ACM9HGUP06P25W9U58T6TPM9PR,2799,077438_-0.26515151515151514.png,4,86,live
278,A1MSLM87Z8CLTK:39N5ACM9HGUP06P25W9U58T6TPM9PR,2895,131605_-0.6742424242424242.png,9,87,live
279,A1MSLM87Z8CLTK:39N5ACM9HGUP06P25W9U58T6TPM9PR,2508,067107_0.3257575757575757.png,6,88,live
280,A1MSLM87Z8CLTK:39N5ACM9HGUP06P25W9U58T6TPM9PR,2542,081654_0.20454545454545459.png,7,90,live
281,A1MSLM87Z8CLTK:39N5ACM9HGUP06P25W9U58T6TPM9PR,3724,134541_-0.1742424242424242.png,7,91,live
282,A1MSLM87Z8CLTK:39N5ACM9HGUP06P25W9U58T6TPM9PR,2631,067945_0.1742424242424243.png,8,92,live
283,A1MSLM87Z8CLTK:39N5ACM9HGUP06P25W9U58T6TPM9PR,3016,006146_0.12878787878787878.png,7,93,live
284,A1MSLM87Z8CLTK:39N5ACM9HGUP06P25W9U58T6TPM9PR,2685,156683_-0.18939393939393934.png,5,94,live
285,A1MSLM87Z8CLTK:39N5ACM9HGUP06P25W9U58T6TPM9PR,2484,014683_0.41666666666666674.png,8,95,live
286,A1MSLM87Z8CLTK:39N5ACM9HGUP06P25W9U58T6TPM9PR,2438,131605_-0.6742424242424242.png,9,96,live
287,A1MSLM87Z8CLTK:39N5ACM9HGUP06P25W9U58T6TPM9PR,2473,057882_0.23484848484848486.png,8,97,live
288,A1MSLM87Z8CLTK:39N5ACM9HGUP06P25W9U58T6TPM9PR,2278,000879_0.553030303030303.png,7,98,live
289,A1MSLM87Z8CLTK:39N5ACM9HGUP06P25W9U58T6TPM9PR,2654,077003_0.643939393939394.png,8,99,live
290,A1MSLM87Z8CLTK:39N5ACM9HGUP06P25W9U58T6TPM9PR,2340,177185_-0.21969696969696972.png,6,101,live
291,A1MSLM87Z8CLTK:39N5ACM9HGUP06P25W9U58T6TPM9PR,2660,195190_-0.14393939393939392.png,7,102,live
292,A1MSLM87Z8CLTK:39N5ACM9HGUP06P25W9U58T6TPM9PR,2598,182833_-0.007575757575757569.png,8,103,live
293,A1MSLM87Z8CLTK:39N5ACM9HGUP06P25W9U58T6TPM9PR,2244,045041_0.14393939393939392.png,5,104,live
294,A1MSLM87Z8CLTK:39N5ACM9HGUP06P25W9U58T6TPM9PR,2824,006487_0.6590909090909092.png,8,105,live
295,A1MSLM87Z8CLTK:39N5ACM9HGUP06P25W9U58T6TPM9PR,2329,189127_-0.75.png,6,106,live
296,A1MSLM87Z8CLTK:39N5ACM9HGUP06P25W9U58T6TPM9PR,3386,041147_0.446969696969697.png,7,107,live
297,A1MSLM87Z8CLTK:39N5ACM9HGUP06P25W9U58T6TPM9PR,4532,134541_-0.1742424242424242.png,6,108,live
298,A1MSLM87Z8CLTK:39N5ACM9HGUP06P25W9U58T6TPM9PR,3258,142408_-0.022727272727272707.png,8,109,live
299,A1MSLM87Z8CLTK:39N5ACM9HGUP06P25W9U58T6TPM9PR,2575,041147_0.446969696969697.png,6,110,live
300,A16TP8YGKE1FJ5:3N1FSUEFL77FE3G0JSM8O611TE3D4J,3886,042970_0.75.png,8,2,live
301,A16TP8YGKE1FJ5:3N1FSUEFL77FE3G0JSM8O611TE3D4J,7860,032881_0.18939393939393945.png,5,3,live
302,A16TP8YGKE1FJ5:3N1FSUEFL77FE3G0JSM8O611TE3D4J,4000,071433_0.4318181818181819.png,5,4,live
303,A16TP8YGKE1FJ5:3N1FSUEFL77FE3G0JSM8O611TE3D4J,4399,018930_-0.38636363636363635.png,3,5,live
304,A16TP8YGKE1FJ5:3N1FSUEFL77FE3G0JSM8O611TE3D4J,4356,111223_-0.23484848484848486.png,8,6,live
305,A16TP8YGKE1FJ5:3N1FSUEFL77FE3G0JSM8O611TE3D4J,3057,166828_-0.7348484848484849.png,5,7,live
306,A16TP8YGKE1FJ5:3N1FSUEFL77FE3G0JSM8O611TE3D4J,2727,139618_-0.4772727272727273.png,8,8,live
307,A16TP8YGKE1FJ5:3N1FSUEFL77FE3G0JSM8O611TE3D4J,3592,195190_-0.14393939393939392.png,5,9,live
308,A16TP8YGKE1FJ5:3N1FSUEFL77FE3G0JSM8O611TE3D4J,3705,114266_0.5227272727272727.png,2,10,live
309,A16TP8YGKE1FJ5:3N1FSUEFL77FE3G0JSM8O611TE3D4J,3627,062697_0.3560606060606062.png,7,11,live
310,A16TP8YGKE1FJ5:3N1FSUEFL77FE3G0JSM8O611TE3D4J,5018,177627_-0.32575757575757575.png,2,13,live
311,A16TP8YGKE1FJ5:3N1FSUEFL77FE3G0JSM8O611TE3D4J,3255,166562_0.4772727272727273.png,4,14,live
312,A16TP8YGKE1FJ5:3N1FSUEFL77FE3G0JSM8O611TE3D4J,2571,017801_-0.037878787878787845.png,7,15,live
313,A16TP8YGKE1FJ5:3N1FSUEFL77FE3G0JSM8O611TE3D4J,3863,124810_-0.44696969696969696.png,8,16,live
314,A16TP8YGKE1FJ5:3N1FSUEFL77FE3G0JSM8O611TE3D4J,2612,109193_0.7348484848484849.png,8,17,live
315,A16TP8YGKE1FJ5:3N1FSUEFL77FE3G0JSM8O611TE3D4J,2623,018930_-0.38636363636363635.png,3,18,live
316,A16TP8YGKE1FJ5:3N1FSUEFL77FE3G0JSM8O611TE3D4J,5042,076120_0.5075757575757576.png,5,19,live
317,A16TP8YGKE1FJ5:3N1FSUEFL77FE3G0JSM8O611TE3D4J,3466,189047_0.21969696969696972.png,2,20,live
318,A16TP8YGKE1FJ5:3N1FSUEFL77FE3G0JSM8O611TE3D4J,2638,131605_-0.6742424242424242.png,8,21,live
319,A16TP8YGKE1FJ5:3N1FSUEFL77FE3G0JSM8O611TE3D4J,4597,087309_-0.6439393939393939.png,9,22,live
320,A16TP8YGKE1FJ5:3N1FSUEFL77FE3G0JSM8O611TE3D4J,3432,188228_-0.6136363636363636.png,2,24,live
321,A16TP8YGKE1FJ5:3N1FSUEFL77FE3G0JSM8O611TE3D4J,3378,115608_0.08333333333333337.png,6,25,live
322,A16TP8YGKE1FJ5:3N1FSUEFL77FE3G0JSM8O611TE3D4J,2431,077003_0.643939393939394.png,7,26,live
323,A16TP8YGKE1FJ5:3N1FSUEFL77FE3G0JSM8O611TE3D4J,3618,042076_-0.7196969696969697.png,6,27,live
324,A16TP8YGKE1FJ5:3N1FSUEFL77FE3G0JSM8O611TE3D4J,3343,176041_-0.7045454545454546.png,6,28,live
325,A16TP8YGKE1FJ5:3N1FSUEFL77FE3G0JSM8O611TE3D4J,8596,182210_-0.49242424242424243.png,7,29,live
326,A16TP8YGKE1FJ5:3N1FSUEFL77FE3G0JSM8O611TE3D4J,3235,041147_0.446969696969697.png,7,30,live
327,A16TP8YGKE1FJ5:3N1FSUEFL77FE3G0JSM8O611TE3D4J,3159,181560_-0.3409090909090909.png,6,31,live
328,A16TP8YGKE1FJ5:3N1FSUEFL77FE3G0JSM8O611TE3D4J,5138,006146_0.12878787878787878.png,2,32,live
329,A16TP8YGKE1FJ5:3N1FSUEFL77FE3G0JSM8O611TE3D4J,3476,141447_0.15909090909090917.png,8,33,live
330,A16TP8YGKE1FJ5:3N1FSUEFL77FE3G0JSM8O611TE3D4J,2773,040377_0.6742424242424243.png,3,35,live
331,A16TP8YGKE1FJ5:3N1FSUEFL77FE3G0JSM8O611TE3D4J,2949,067107_0.3257575757575757.png,3,36,live
332,A16TP8YGKE1FJ5:3N1FSUEFL77FE3G0JSM8O611TE3D4J,3918,000570_0.34090909090909083.png,5,37,live
333,A16TP8YGKE1FJ5:3N1FSUEFL77FE3G0JSM8O611TE3D4J,4056,177185_-0.21969696969696972.png,8,38,live
334,A16TP8YGKE1FJ5:3N1FSUEFL77FE3G0JSM8O611TE3D4J,3003,041147_0.446969696969697.png,7,39,live
335,A16TP8YGKE1FJ5:3N1FSUEFL77FE3G0JSM8O611TE3D4J,3669,041492_0.11363636363636365.png,8,40,live
336,A16TP8YGKE1FJ5:3N1FSUEFL77FE3G0JSM8O611TE3D4J,4214,097202_0.09848484848484851.png,9,41,live
337,A16TP8YGKE1FJ5:3N1FSUEFL77FE3G0JSM8O611TE3D4J,3883,136712_-0.2803030303030303.png,3,42,live
338,A16TP8YGKE1FJ5:3N1FSUEFL77FE3G0JSM8O611TE3D4J,5061,057882_0.23484848484848486.png,8,43,live
339,A16TP8YGKE1FJ5:3N1FSUEFL77FE3G0JSM8O611TE3D4J,2670,005032_0.46212121212121215.png,7,44,live
340,A16TP8YGKE1FJ5:3N1FSUEFL77FE3G0JSM8O611TE3D4J,2996,077438_-0.26515151515151514.png,6,46,live
341,A16TP8YGKE1FJ5:3N1FSUEFL77FE3G0JSM8O611TE3D4J,2919,028460_-0.5075757575757576.png,1,47,live
342,A16TP8YGKE1FJ5:3N1FSUEFL77FE3G0JSM8O611TE3D4J,2865,185401_-0.4621212121212121.png,3,48,live
343,A16TP8YGKE1FJ5:3N1FSUEFL77FE3G0JSM8O611TE3D4J,3119,177185_-0.21969696969696972.png,8,49,live
344,A16TP8YGKE1FJ5:3N1FSUEFL77FE3G0JSM8O611TE3D4J,3855,175064_0.7196969696969697.png,9,50,live
345,A16TP8YGKE1FJ5:3N1FSUEFL77FE3G0JSM8O611TE3D4J,2833,010879_-0.6287878787878788.png,6,51,live
346,A16TP8YGKE1FJ5:3N1FSUEFL77FE3G0JSM8O611TE3D4J,3105,142408_-0.022727272727272707.png,9,52,live
347,A16TP8YGKE1FJ5:3N1FSUEFL77FE3G0JSM8O611TE3D4J,3037,005032_0.46212121212121215.png,7,53,live
348,A16TP8YGKE1FJ5:3N1FSUEFL77FE3G0JSM8O611TE3D4J,2503,017801_-0.037878787878787845.png,8,54,live
349,A16TP8YGKE1FJ5:3N1FSUEFL77FE3G0JSM8O611TE3D4J,3955,090214_-0.41666666666666663.png,3,55,live
350,A16TP8YGKE1FJ5:3N1FSUEFL77FE3G0JSM8O611TE3D4J,3705,006487_0.6590909090909092.png,9,57,live
351,A16TP8YGKE1FJ5:3N1FSUEFL77FE3G0JSM8O611TE3D4J,2905,074250_-0.08333333333333326.png,8,58,live
352,A16TP8YGKE1FJ5:3N1FSUEFL77FE3G0JSM8O611TE3D4J,2917,077003_0.643939393939394.png,7,59,live
353,A16TP8YGKE1FJ5:3N1FSUEFL77FE3G0JSM8O611TE3D4J,5724,153367_0.037878787878787845.png,3,60,live
354,A16TP8YGKE1FJ5:3N1FSUEFL77FE3G0JSM8O611TE3D4J,4280,067107_0.3257575757575757.png,6,61,live
355,A16TP8YGKE1FJ5:3N1FSUEFL77FE3G0JSM8O611TE3D4J,4047,081654_0.20454545454545459.png,8,62,live
356,A16TP8YGKE1FJ5:3N1FSUEFL77FE3G0JSM8O611TE3D4J,3656,141447_0.15909090909090917.png,9,63,live
357,A16TP8YGKE1FJ5:3N1FSUEFL77FE3G0JSM8O611TE3D4J,2901,058811_0.5681818181818181.png,6,64,live
358,A16TP8YGKE1FJ5:3N1FSUEFL77FE3G0JSM8O611TE3D4J,3036,195628_-0.4318181818181818.png,3,65,live
359,A16TP8YGKE1FJ5:3N1FSUEFL77FE3G0JSM8O611TE3D4J,4630,044261_-0.15909090909090906.png,9,66,live
360,A16TP8YGKE1FJ5:3N1FSUEFL77FE3G0JSM8O611TE3D4J,2875,156472_-0.5984848484848485.png,5,68,live
361,A16TP8YGKE1FJ5:3N1FSUEFL77FE3G0JSM8O611TE3D4J,3221,080519_0.31060606060606055.png,1,69,live
362,A16TP8YGKE1FJ5:3N1FSUEFL77FE3G0JSM8O611TE3D4J,2971,182833_-0.007575757575757569.png,9,70,live
363,A16TP8YGKE1FJ5:3N1FSUEFL77FE3G0JSM8O611TE3D4J,3817,077438_-0.26515151515151514.png,6,71,live
364,A16TP8YGKE1FJ5:3N1FSUEFL77FE3G0JSM8O611TE3D4J,2408,107163_-0.6893939393939394.png,4,72,live
365,A16TP8YGKE1FJ5:3N1FSUEFL77FE3G0JSM8O611TE3D4J,3817,016561_-0.12878787878787878.png,8,73,live
366,A16TP8YGKE1FJ5:3N1FSUEFL77FE3G0JSM8O611TE3D4J,3380,105621_0.5833333333333335.png,8,74,live
367,A16TP8YGKE1FJ5:3N1FSUEFL77FE3G0JSM8O611TE3D4J,2934,045041_0.14393939393939392.png,5,75,live
368,A16TP8YGKE1FJ5:3N1FSUEFL77FE3G0JSM8O611TE3D4J,3350,164388_0.5378787878787878.png,7,76,live
369,A16TP8YGKE1FJ5:3N1FSUEFL77FE3G0JSM8O611TE3D4J,3573,108843_-0.3712121212121212.png,7,77,live
370,A16TP8YGKE1FJ5:3N1FSUEFL77FE3G0JSM8O611TE3D4J,2857,000907_0.3712121212121213.png,2,79,live
371,A16TP8YGKE1FJ5:3N1FSUEFL77FE3G0JSM8O611TE3D4J,3362,191981_-0.3106060606060606.png,8,80,live
372,A16TP8YGKE1FJ5:3N1FSUEFL77FE3G0JSM8O611TE3D4J,2638,137488_0.25.png,3,81,live
373,A16TP8YGKE1FJ5:3N1FSUEFL77FE3G0JSM8O611TE3D4J,2523,016561_-0.12878787878787878.png,8,82,live
374,A16TP8YGKE1FJ5:3N1FSUEFL77FE3G0JSM8O611TE3D4J,3269,045515_0.007575757575757569.png,8,83,live
375,A16TP8YGKE1FJ5:3N1FSUEFL77FE3G0JSM8O611TE3D4J,2346,062275_0.6287878787878789.png,7,84,live
376,A16TP8YGKE1FJ5:3N1FSUEFL77FE3G0JSM8O611TE3D4J,2846,135232_0.26515151515151514.png,6,85,live
377,A16TP8YGKE1FJ5:3N1FSUEFL77FE3G0JSM8O611TE3D4J,3059,134541_-0.1742424242424242.png,8,86,live
378,A16TP8YGKE1FJ5:3N1FSUEFL77FE3G0JSM8O611TE3D4J,5222,134541_-0.1742424242424242.png,8,87,live
379,A16TP8YGKE1FJ5:3N1FSUEFL77FE3G0JSM8O611TE3D4J,2595,014683_0.41666666666666674.png,8,88,live
380,A16TP8YGKE1FJ5:3N1FSUEFL77FE3G0JSM8O611TE3D4J,3306,131605_-0.6742424242424242.png,9,90,live
381,A16TP8YGKE1FJ5:3N1FSUEFL77FE3G0JSM8O611TE3D4J,2942,189127_-0.75.png,4,91,live
382,A16TP8YGKE1FJ5:3N1FSUEFL77FE3G0JSM8O611TE3D4J,2699,190277_0.5984848484848486.png,7,92,live
383,A16TP8YGKE1FJ5:3N1FSUEFL77FE3G0JSM8O611TE3D4J,3408,006487_0.6590909090909092.png,9,93,live
384,A16TP8YGKE1FJ5:3N1FSUEFL77FE3G0JSM8O611TE3D4J,2514,010879_-0.6287878787878788.png,7,94,live
385,A16TP8YGKE1FJ5:3N1FSUEFL77FE3G0JSM8O611TE3D4J,3673,101289_0.49242424242424243.png,2,95,live
386,A16TP8YGKE1FJ5:3N1FSUEFL77FE3G0JSM8O611TE3D4J,3326,027615_0.053030303030303094.png,7,96,live
387,A16TP8YGKE1FJ5:3N1FSUEFL77FE3G0JSM8O611TE3D4J,3717,062275_0.6287878787878789.png,7,97,live
388,A16TP8YGKE1FJ5:3N1FSUEFL77FE3G0JSM8O611TE3D4J,2616,000879_0.553030303030303.png,5,98,live
389,A16TP8YGKE1FJ5:3N1FSUEFL77FE3G0JSM8O611TE3D4J,2914,156683_-0.18939393939393934.png,4,99,live
390,A16TP8YGKE1FJ5:3N1FSUEFL77FE3G0JSM8O611TE3D4J,3587,181560_-0.3409090909090909.png,6,101,live
391,A16TP8YGKE1FJ5:3N1FSUEFL77FE3G0JSM8O611TE3D4J,2887,200766_-0.25.png,4,102,live
392,A16TP8YGKE1FJ5:3N1FSUEFL77FE3G0JSM8O611TE3D4J,3247,189047_0.21969696969696972.png,2,103,live
393,A16TP8YGKE1FJ5:3N1FSUEFL77FE3G0JSM8O611TE3D4J,2595,129472_-0.553030303030303.png,7,104,live
394,A16TP8YGKE1FJ5:3N1FSUEFL77FE3G0JSM8O611TE3D4J,3111,081654_0.20454545454545459.png,8,105,live
395,A16TP8YGKE1FJ5:3N1FSUEFL77FE3G0JSM8O611TE3D4J,2818,020547_-0.6590909090909091.png,7,106,live
396,A16TP8YGKE1FJ5:3N1FSUEFL77FE3G0JSM8O611TE3D4J,2575,045041_0.14393939393939392.png,5,107,live
397,A16TP8YGKE1FJ5:3N1FSUEFL77FE3G0JSM8O611TE3D4J,3787,067945_0.1742424242424243.png,8,108,live
398,A16TP8YGKE1FJ5:3N1FSUEFL77FE3G0JSM8O611TE3D4J,4255,000879_0.553030303030303.png,5,109,live
399,A16TP8YGKE1FJ5:3N1FSUEFL77FE3G0JSM8O611TE3D4J,5983,142363_0.6136363636363638.png,2,110,live
400,A1QVNF19XSRSD7:3VELCLL3GMQVKOXDNGYWE8XJT7D1F9,4874,164388_0.5378787878787878.png,6,2,live
401,A1QVNF19XSRSD7:3VELCLL3GMQVKOXDNGYWE8XJT7D1F9,2867,114266_0.5227272727272727.png,5,3,live
402,A1QVNF19XSRSD7:3VELCLL3GMQVKOXDNGYWE8XJT7D1F9,2941,176041_-0.7045454545454546.png,7,4,live
403,A1QVNF19XSRSD7:3VELCLL3GMQVKOXDNGYWE8XJT7D1F9,1897,109193_0.7348484848484849.png,3,5,live
404,A1QVNF19XSRSD7:3VELCLL3GMQVKOXDNGYWE8XJT7D1F9,1963,190277_0.5984848484848486.png,4,6,live
405,A1QVNF19XSRSD7:3VELCLL3GMQVKOXDNGYWE8XJT7D1F9,2426,153367_0.037878787878787845.png,4,7,live
406,A1QVNF19XSRSD7:3VELCLL3GMQVKOXDNGYWE8XJT7D1F9,1938,067945_0.1742424242424243.png,5,8,live
407,A1QVNF19XSRSD7:3VELCLL3GMQVKOXDNGYWE8XJT7D1F9,1577,020547_-0.6590909090909091.png,5,9,live
408,A1QVNF19XSRSD7:3VELCLL3GMQVKOXDNGYWE8XJT7D1F9,2374,134541_-0.1742424242424242.png,4,10,live
409,A1QVNF19XSRSD7:3VELCLL3GMQVKOXDNGYWE8XJT7D1F9,1940,042076_-0.7196969696969697.png,4,11,live
410,A1QVNF19XSRSD7:3VELCLL3GMQVKOXDNGYWE8XJT7D1F9,2573,041147_0.446969696969697.png,3,13,live
411,A1QVNF19XSRSD7:3VELCLL3GMQVKOXDNGYWE8XJT7D1F9,1750,006487_0.6590909090909092.png,6,14,live
412,A1QVNF19XSRSD7:3VELCLL3GMQVKOXDNGYWE8XJT7D1F9,1709,166562_0.4772727272727273.png,7,15,live
413,A1QVNF19XSRSD7:3VELCLL3GMQVKOXDNGYWE8XJT7D1F9,1846,077003_0.643939393939394.png,6,16,live
414,A1QVNF19XSRSD7:3VELCLL3GMQVKOXDNGYWE8XJT7D1F9,1844,175064_0.7196969696969697.png,6,17,live
415,A1QVNF19XSRSD7:3VELCLL3GMQVKOXDNGYWE8XJT7D1F9,2042,006146_0.12878787878787878.png,7,18,live
416,A1QVNF19XSRSD7:3VELCLL3GMQVKOXDNGYWE8XJT7D1F9,1807,097202_0.09848484848484851.png,7,19,live
417,A1QVNF19XSRSD7:3VELCLL3GMQVKOXDNGYWE8XJT7D1F9,1865,189047_0.21969696969696972.png,4,20,live
418,A1QVNF19XSRSD7:3VELCLL3GMQVKOXDNGYWE8XJT7D1F9,1777,182210_-0.49242424242424243.png,4,21,live
419,A1QVNF19XSRSD7:3VELCLL3GMQVKOXDNGYWE8XJT7D1F9,3433,185401_-0.4621212121212121.png,3,22,live
420,A1QVNF19XSRSD7:3VELCLL3GMQVKOXDNGYWE8XJT7D1F9,16221,016561_-0.12878787878787878.png,5,24,live
421,A1QVNF19XSRSD7:3VELCLL3GMQVKOXDNGYWE8XJT7D1F9,2082,000879_0.553030303030303.png,4,25,live
422,A1QVNF19XSRSD7:3VELCLL3GMQVKOXDNGYWE8XJT7D1F9,23481,044261_-0.15909090909090906.png,7,26,live
423,A1QVNF19XSRSD7:3VELCLL3GMQVKOXDNGYWE8XJT7D1F9,2306,200766_-0.25.png,3,27,live
424,A1QVNF19XSRSD7:3VELCLL3GMQVKOXDNGYWE8XJT7D1F9,1773,062275_0.6287878787878789.png,5,28,live
425,A1QVNF19XSRSD7:3VELCLL3GMQVKOXDNGYWE8XJT7D1F9,2152,177185_-0.21969696969696972.png,4,29,live
426,A1QVNF19XSRSD7:3VELCLL3GMQVKOXDNGYWE8XJT7D1F9,3472,177185_-0.21969696969696972.png,5,30,live
427,A1QVNF19XSRSD7:3VELCLL3GMQVKOXDNGYWE8XJT7D1F9,2499,189047_0.21969696969696972.png,6,31,live
428,A1QVNF19XSRSD7:3VELCLL3GMQVKOXDNGYWE8XJT7D1F9,1703,141447_0.15909090909090917.png,7,32,live
429,A1QVNF19XSRSD7:3VELCLL3GMQVKOXDNGYWE8XJT7D1F9,2210,017801_-0.037878787878787845.png,3,33,live
430,A1QVNF19XSRSD7:3VELCLL3GMQVKOXDNGYWE8XJT7D1F9,2371,077438_-0.26515151515151514.png,4,35,live
431,A1QVNF19XSRSD7:3VELCLL3GMQVKOXDNGYWE8XJT7D1F9,1622,156683_-0.18939393939393934.png,5,36,live
432,A1QVNF19XSRSD7:3VELCLL3GMQVKOXDNGYWE8XJT7D1F9,2104,124810_-0.44696969696969696.png,2,37,live
433,A1QVNF19XSRSD7:3VELCLL3GMQVKOXDNGYWE8XJT7D1F9,3564,131605_-0.6742424242424242.png,4,38,live
434,A1QVNF19XSRSD7:3VELCLL3GMQVKOXDNGYWE8XJT7D1F9,1531,005032_0.46212121212121215.png,5,39,live
435,A1QVNF19XSRSD7:3VELCLL3GMQVKOXDNGYWE8XJT7D1F9,1710,005032_0.46212121212121215.png,5,40,live
436,A1QVNF19XSRSD7:3VELCLL3GMQVKOXDNGYWE8XJT7D1F9,1930,191981_-0.3106060606060606.png,5,41,live
437,A1QVNF19XSRSD7:3VELCLL3GMQVKOXDNGYWE8XJT7D1F9,2052,181560_-0.3409090909090909.png,6,42,live
438,A1QVNF19XSRSD7:3VELCLL3GMQVKOXDNGYWE8XJT7D1F9,3919,129472_-0.553030303030303.png,7,43,live
439,A1QVNF19XSRSD7:3VELCLL3GMQVKOXDNGYWE8XJT7D1F9,2644,115608_0.08333333333333337.png,7,44,live
440,A1QVNF19XSRSD7:3VELCLL3GMQVKOXDNGYWE8XJT7D1F9,2525,062275_0.6287878787878789.png,6,46,live
441,A1QVNF19XSRSD7:3VELCLL3GMQVKOXDNGYWE8XJT7D1F9,1770,058811_0.5681818181818181.png,5,47,live
442,A1QVNF19XSRSD7:3VELCLL3GMQVKOXDNGYWE8XJT7D1F9,1903,028460_-0.5075757575757576.png,6,48,live
443,A1QVNF19XSRSD7:3VELCLL3GMQVKOXDNGYWE8XJT7D1F9,1688,081654_0.20454545454545459.png,6,49,live
444,A1QVNF19XSRSD7:3VELCLL3GMQVKOXDNGYWE8XJT7D1F9,2646,166828_-0.7348484848484849.png,4,50,live
445,A1QVNF19XSRSD7:3VELCLL3GMQVKOXDNGYWE8XJT7D1F9,1576,042970_0.75.png,5,51,live
446,A1QVNF19XSRSD7:3VELCLL3GMQVKOXDNGYWE8XJT7D1F9,1676,101289_0.49242424242424243.png,5,52,live
447,A1QVNF19XSRSD7:3VELCLL3GMQVKOXDNGYWE8XJT7D1F9,1815,181560_-0.3409090909090909.png,4,53,live
448,A1QVNF19XSRSD7:3VELCLL3GMQVKOXDNGYWE8XJT7D1F9,1690,142408_-0.022727272727272707.png,5,54,live
449,A1QVNF19XSRSD7:3VELCLL3GMQVKOXDNGYWE8XJT7D1F9,1909,057882_0.23484848484848486.png,4,55,live
450,A1QVNF19XSRSD7:3VELCLL3GMQVKOXDNGYWE8XJT7D1F9,2825,077438_-0.26515151515151514.png,5,57,live
451,A1QVNF19XSRSD7:3VELCLL3GMQVKOXDNGYWE8XJT7D1F9,1741,045041_0.14393939393939392.png,6,58,live
452,A1QVNF19XSRSD7:3VELCLL3GMQVKOXDNGYWE8XJT7D1F9,1826,006487_0.6590909090909092.png,6,59,live
453,A1QVNF19XSRSD7:3VELCLL3GMQVKOXDNGYWE8XJT7D1F9,1870,000879_0.553030303030303.png,6,60,live
454,A1QVNF19XSRSD7:3VELCLL3GMQVKOXDNGYWE8XJT7D1F9,1907,045041_0.14393939393939392.png,6,61,live
455,A1QVNF19XSRSD7:3VELCLL3GMQVKOXDNGYWE8XJT7D1F9,1724,000907_0.3712121212121213.png,5,62,live
456,A1QVNF19XSRSD7:3VELCLL3GMQVKOXDNGYWE8XJT7D1F9,1762,017801_-0.037878787878787845.png,5,63,live
457,A1QVNF19XSRSD7:3VELCLL3GMQVKOXDNGYWE8XJT7D1F9,1838,188228_-0.6136363636363636.png,4,64,live
458,A1QVNF19XSRSD7:3VELCLL3GMQVKOXDNGYWE8XJT7D1F9,1635,067107_0.3257575757575757.png,5,65,live
459,A1QVNF19XSRSD7:3VELCLL3GMQVKOXDNGYWE8XJT7D1F9,1842,081654_0.20454545454545459.png,6,66,live
460,A1QVNF19XSRSD7:3VELCLL3GMQVKOXDNGYWE8XJT7D1F9,2257,177627_-0.32575757575757575.png,5,68,live
461,A1QVNF19XSRSD7:3VELCLL3GMQVKOXDNGYWE8XJT7D1F9,3394,014683_0.41666666666666674.png,6,69,live
462,A1QVNF19XSRSD7:3VELCLL3GMQVKOXDNGYWE8XJT7D1F9,2035,108843_-0.3712121212121212.png,6,70,live
463,A1QVNF19XSRSD7:3VELCLL3GMQVKOXDNGYWE8XJT7D1F9,1972,074250_-0.08333333333333326.png,4,71,live
464,A1QVNF19XSRSD7:3VELCLL3GMQVKOXDNGYWE8XJT7D1F9,2022,041147_0.446969696969697.png,5,72,live
465,A1QVNF19XSRSD7:3VELCLL3GMQVKOXDNGYWE8XJT7D1F9,2298,027615_0.053030303030303094.png,4,73,live
466,A1QVNF19XSRSD7:3VELCLL3GMQVKOXDNGYWE8XJT7D1F9,1943,139618_-0.4772727272727273.png,5,74,live
467,A1QVNF19XSRSD7:3VELCLL3GMQVKOXDNGYWE8XJT7D1F9,2568,189127_-0.75.png,6,75,live
468,A1QVNF19XSRSD7:3VELCLL3GMQVKOXDNGYWE8XJT7D1F9,2077,018930_-0.38636363636363635.png,6,76,live
469,A1QVNF19XSRSD7:3VELCLL3GMQVKOXDNGYWE8XJT7D1F9,1689,141447_0.15909090909090917.png,5,77,live
470,A1QVNF19XSRSD7:3VELCLL3GMQVKOXDNGYWE8XJT7D1F9,2531,195628_-0.4318181818181818.png,3,79,live
471,A1QVNF19XSRSD7:3VELCLL3GMQVKOXDNGYWE8XJT7D1F9,2037,137488_0.25.png,3,80,live
472,A1QVNF19XSRSD7:3VELCLL3GMQVKOXDNGYWE8XJT7D1F9,1879,032881_0.18939393939393945.png,6,81,live
473,A1QVNF19XSRSD7:3VELCLL3GMQVKOXDNGYWE8XJT7D1F9,1978,135232_0.26515151515151514.png,7,82,live
474,A1QVNF19XSRSD7:3VELCLL3GMQVKOXDNGYWE8XJT7D1F9,1694,111223_-0.23484848484848486.png,6,83,live
475,A1QVNF19XSRSD7:3VELCLL3GMQVKOXDNGYWE8XJT7D1F9,1684,156472_-0.5984848484848485.png,6,84,live
476,A1QVNF19XSRSD7:3VELCLL3GMQVKOXDNGYWE8XJT7D1F9,2750,067107_0.3257575757575757.png,4,85,live
477,A1QVNF19XSRSD7:3VELCLL3GMQVKOXDNGYWE8XJT7D1F9,2087,062697_0.3560606060606062.png,5,86,live
478,A1QVNF19XSRSD7:3VELCLL3GMQVKOXDNGYWE8XJT7D1F9,1975,142363_0.6136363636363638.png,5,87,live
479,A1QVNF19XSRSD7:3VELCLL3GMQVKOXDNGYWE8XJT7D1F9,1891,000570_0.34090909090909083.png,4,88,live
480,A1QVNF19XSRSD7:3VELCLL3GMQVKOXDNGYWE8XJT7D1F9,2055,018930_-0.38636363636363635.png,3,90,live
481,A1QVNF19XSRSD7:3VELCLL3GMQVKOXDNGYWE8XJT7D1F9,1735,131605_-0.6742424242424242.png,4,91,live
482,A1QVNF19XSRSD7:3VELCLL3GMQVKOXDNGYWE8XJT7D1F9,1651,182833_-0.007575757575757569.png,4,92,live
483,A1QVNF19XSRSD7:3VELCLL3GMQVKOXDNGYWE8XJT7D1F9,2046,136712_-0.2803030303030303.png,3,93,live
484,A1QVNF19XSRSD7:3VELCLL3GMQVKOXDNGYWE8XJT7D1F9,2144,045515_0.007575757575757569.png,4,94,live
485,A1QVNF19XSRSD7:3VELCLL3GMQVKOXDNGYWE8XJT7D1F9,1894,195190_-0.14393939393939392.png,5,95,live
486,A1QVNF19XSRSD7:3VELCLL3GMQVKOXDNGYWE8XJT7D1F9,1837,010879_-0.6287878787878788.png,6,96,live
487,A1QVNF19XSRSD7:3VELCLL3GMQVKOXDNGYWE8XJT7D1F9,1695,071433_0.4318181818181819.png,5,97,live
488,A1QVNF19XSRSD7:3VELCLL3GMQVKOXDNGYWE8XJT7D1F9,2074,080519_0.31060606060606055.png,5,98,live
489,A1QVNF19XSRSD7:3VELCLL3GMQVKOXDNGYWE8XJT7D1F9,2009,010879_-0.6287878787878788.png,6,99,live
490,A1QVNF19XSRSD7:3VELCLL3GMQVKOXDNGYWE8XJT7D1F9,1913,076120_0.5075757575757576.png,6,101,live
491,A1QVNF19XSRSD7:3VELCLL3GMQVKOXDNGYWE8XJT7D1F9,2703,040377_0.6742424242424243.png,7,102,live
492,A1QVNF19XSRSD7:3VELCLL3GMQVKOXDNGYWE8XJT7D1F9,1971,077003_0.643939393939394.png,4,103,live
493,A1QVNF19XSRSD7:3VELCLL3GMQVKOXDNGYWE8XJT7D1F9,4510,090214_-0.41666666666666663.png,5,104,live
494,A1QVNF19XSRSD7:3VELCLL3GMQVKOXDNGYWE8XJT7D1F9,2235,041492_0.11363636363636365.png,3,105,live
495,A1QVNF19XSRSD7:3VELCLL3GMQVKOXDNGYWE8XJT7D1F9,2112,107163_-0.6893939393939394.png,4,106,live
496,A1QVNF19XSRSD7:3VELCLL3GMQVKOXDNGYWE8XJT7D1F9,1728,016561_-0.12878787878787878.png,5,107,live
497,A1QVNF19XSRSD7:3VELCLL3GMQVKOXDNGYWE8XJT7D1F9,1730,105621_0.5833333333333335.png,5,108,live
498,A1QVNF19XSRSD7:3VELCLL3GMQVKOXDNGYWE8XJT7D1F9,2338,087309_-0.6439393939393939.png,4,109,live
499,A1QVNF19XSRSD7:3VELCLL3GMQVKOXDNGYWE8XJT7D1F9,1891,134541_-0.1742424242424242.png,5,110,live
500,A34N2P23WZ50L4:34QN5IT0T1YMYK28JJOQQBXN1BU80W,7956,097202_0.09848484848484851.png,7,2,live
501,A34N2P23WZ50L4:34QN5IT0T1YMYK28JJOQQBXN1BU80W,4598,057882_0.23484848484848486.png,8,3,live
502,A34N2P23WZ50L4:34QN5IT0T1YMYK28JJOQQBXN1BU80W,3623,076120_0.5075757575757576.png,4,4,live
503,A34N2P23WZ50L4:34QN5IT0T1YMYK28JJOQQBXN1BU80W,5013,131605_-0.6742424242424242.png,5,5,live
504,A34N2P23WZ50L4:34QN5IT0T1YMYK28JJOQQBXN1BU80W,3668,042076_-0.7196969696969697.png,6,6,live
505,A34N2P23WZ50L4:34QN5IT0T1YMYK28JJOQQBXN1BU80W,4413,115608_0.08333333333333337.png,7,7,live
506,A34N2P23WZ50L4:34QN5IT0T1YMYK28JJOQQBXN1BU80W,3824,067107_0.3257575757575757.png,8,8,live
507,A34N2P23WZ50L4:34QN5IT0T1YMYK28JJOQQBXN1BU80W,4484,016561_-0.12878787878787878.png,3,9,live
508,A34N2P23WZ50L4:34QN5IT0T1YMYK28JJOQQBXN1BU80W,3557,195190_-0.14393939393939392.png,6,10,live
509,A34N2P23WZ50L4:34QN5IT0T1YMYK28JJOQQBXN1BU80W,2757,010879_-0.6287878787878788.png,5,11,live
510,A34N2P23WZ50L4:34QN5IT0T1YMYK28JJOQQBXN1BU80W,3556,027615_0.053030303030303094.png,6,13,live
511,A34N2P23WZ50L4:34QN5IT0T1YMYK28JJOQQBXN1BU80W,2876,020547_-0.6590909090909091.png,5,14,live
512,A34N2P23WZ50L4:34QN5IT0T1YMYK28JJOQQBXN1BU80W,3317,191981_-0.3106060606060606.png,8,15,live
513,A34N2P23WZ50L4:34QN5IT0T1YMYK28JJOQQBXN1BU80W,4190,142408_-0.022727272727272707.png,9,16,live
514,A34N2P23WZ50L4:34QN5IT0T1YMYK28JJOQQBXN1BU80W,2645,000570_0.34090909090909083.png,5,17,live
515,A34N2P23WZ50L4:34QN5IT0T1YMYK28JJOQQBXN1BU80W,2686,062275_0.6287878787878789.png,6,18,live
516,A34N2P23WZ50L4:34QN5IT0T1YMYK28JJOQQBXN1BU80W,2606,000879_0.553030303030303.png,7,19,live
517,A34N2P23WZ50L4:34QN5IT0T1YMYK28JJOQQBXN1BU80W,2454,142363_0.6136363636363638.png,8,20,live
518,A34N2P23WZ50L4:34QN5IT0T1YMYK28JJOQQBXN1BU80W,2300,074250_-0.08333333333333326.png,5,21,live
519,A34N2P23WZ50L4:34QN5IT0T1YMYK28JJOQQBXN1BU80W,2605,028460_-0.5075757575757576.png,9,22,live
520,A34N2P23WZ50L4:34QN5IT0T1YMYK28JJOQQBXN1BU80W,3677,124810_-0.44696969696969696.png,5,24,live
521,A34N2P23WZ50L4:34QN5IT0T1YMYK28JJOQQBXN1BU80W,2742,111223_-0.23484848484848486.png,6,25,live
522,A34N2P23WZ50L4:34QN5IT0T1YMYK28JJOQQBXN1BU80W,3006,042970_0.75.png,7,26,live
523,A34N2P23WZ50L4:34QN5IT0T1YMYK28JJOQQBXN1BU80W,4214,182210_-0.49242424242424243.png,8,27,live
524,A34N2P23WZ50L4:34QN5IT0T1YMYK28JJOQQBXN1BU80W,3773,000879_0.553030303030303.png,8,28,live
525,A34N2P23WZ50L4:34QN5IT0T1YMYK28JJOQQBXN1BU80W,2717,045041_0.14393939393939392.png,6,29,live
526,A34N2P23WZ50L4:34QN5IT0T1YMYK28JJOQQBXN1BU80W,2773,135232_0.26515151515151514.png,6,30,live
527,A34N2P23WZ50L4:34QN5IT0T1YMYK28JJOQQBXN1BU80W,3287,032881_0.18939393939393945.png,5,31,live
528,A34N2P23WZ50L4:34QN5IT0T1YMYK28JJOQQBXN1BU80W,3884,109193_0.7348484848484849.png,7,32,live
529,A34N2P23WZ50L4:34QN5IT0T1YMYK28JJOQQBXN1BU80W,3021,136712_-0.2803030303030303.png,6,33,live
530,A34N2P23WZ50L4:34QN5IT0T1YMYK28JJOQQBXN1BU80W,5364,189127_-0.75.png,6,35,live
531,A34N2P23WZ50L4:34QN5IT0T1YMYK28JJOQQBXN1BU80W,5239,182833_-0.007575757575757569.png,6,36,live
532,A34N2P23WZ50L4:34QN5IT0T1YMYK28JJOQQBXN1BU80W,4894,016561_-0.12878787878787878.png,7,37,live
533,A34N2P23WZ50L4:34QN5IT0T1YMYK28JJOQQBXN1BU80W,3862,018930_-0.38636363636363635.png,5,38,live
534,A34N2P23WZ50L4:34QN5IT0T1YMYK28JJOQQBXN1BU80W,2966,189047_0.21969696969696972.png,7,39,live
535,A34N2P23WZ50L4:34QN5IT0T1YMYK28JJOQQBXN1BU80W,4613,200766_-0.25.png,8,40,live
536,A34N2P23WZ50L4:34QN5IT0T1YMYK28JJOQQBXN1BU80W,2638,137488_0.25.png,6,41,live
537,A34N2P23WZ50L4:34QN5IT0T1YMYK28JJOQQBXN1BU80W,2917,185401_-0.4621212121212121.png,5,42,live
538,A34N2P23WZ50L4:34QN5IT0T1YMYK28JJOQQBXN1BU80W,3959,153367_0.037878787878787845.png,8,43,live
539,A34N2P23WZ50L4:34QN5IT0T1YMYK28JJOQQBXN1BU80W,2716,176041_-0.7045454545454546.png,6,44,live
540,A34N2P23WZ50L4:34QN5IT0T1YMYK28JJOQQBXN1BU80W,2579,134541_-0.1742424242424242.png,5,46,live
541,A34N2P23WZ50L4:34QN5IT0T1YMYK28JJOQQBXN1BU80W,2640,062697_0.3560606060606062.png,7,47,live
542,A34N2P23WZ50L4:34QN5IT0T1YMYK28JJOQQBXN1BU80W,3470,156683_-0.18939393939393934.png,5,48,live
543,A34N2P23WZ50L4:34QN5IT0T1YMYK28JJOQQBXN1BU80W,2252,181560_-0.3409090909090909.png,8,49,live
544,A34N2P23WZ50L4:34QN5IT0T1YMYK28JJOQQBXN1BU80W,3300,077003_0.643939393939394.png,6,50,live
545,A34N2P23WZ50L4:34QN5IT0T1YMYK28JJOQQBXN1BU80W,2422,006146_0.12878787878787878.png,5,51,live
546,A34N2P23WZ50L4:34QN5IT0T1YMYK28JJOQQBXN1BU80W,3542,040377_0.6742424242424243.png,6,52,live
547,A34N2P23WZ50L4:34QN5IT0T1YMYK28JJOQQBXN1BU80W,2958,189047_0.21969696969696972.png,7,53,live
548,A34N2P23WZ50L4:34QN5IT0T1YMYK28JJOQQBXN1BU80W,2918,139618_-0.4772727272727273.png,5,54,live
549,A34N2P23WZ50L4:34QN5IT0T1YMYK28JJOQQBXN1BU80W,5236,087309_-0.6439393939393939.png,3,55,live
550,A34N2P23WZ50L4:34QN5IT0T1YMYK28JJOQQBXN1BU80W,2357,166828_-0.7348484848484849.png,6,57,live
551,A34N2P23WZ50L4:34QN5IT0T1YMYK28JJOQQBXN1BU80W,2566,014683_0.41666666666666674.png,5,58,live
552,A34N2P23WZ50L4:34QN5IT0T1YMYK28JJOQQBXN1BU80W,2621,045515_0.007575757575757569.png,4,59,live
553,A34N2P23WZ50L4:34QN5IT0T1YMYK28JJOQQBXN1BU80W,4357,067107_0.3257575757575757.png,5,60,live
554,A34N2P23WZ50L4:34QN5IT0T1YMYK28JJOQQBXN1BU80W,3365,101289_0.49242424242424243.png,6,61,live
555,A34N2P23WZ50L4:34QN5IT0T1YMYK28JJOQQBXN1BU80W,3863,071433_0.4318181818181819.png,7,62,live
556,A34N2P23WZ50L4:34QN5IT0T1YMYK28JJOQQBXN1BU80W,3477,129472_-0.553030303030303.png,8,63,live
557,A34N2P23WZ50L4:34QN5IT0T1YMYK28JJOQQBXN1BU80W,2596,177185_-0.21969696969696972.png,4,64,live
558,A34N2P23WZ50L4:34QN5IT0T1YMYK28JJOQQBXN1BU80W,2670,175064_0.7196969696969697.png,5,65,live
559,A34N2P23WZ50L4:34QN5IT0T1YMYK28JJOQQBXN1BU80W,2168,080519_0.31060606060606055.png,6,66,live
560,A34N2P23WZ50L4:34QN5IT0T1YMYK28JJOQQBXN1BU80W,4617,005032_0.46212121212121215.png,5,68,live
561,A34N2P23WZ50L4:34QN5IT0T1YMYK28JJOQQBXN1BU80W,2201,006487_0.6590909090909092.png,6,69,live
562,A34N2P23WZ50L4:34QN5IT0T1YMYK28JJOQQBXN1BU80W,2725,177185_-0.21969696969696972.png,3,70,live
563,A34N2P23WZ50L4:34QN5IT0T1YMYK28JJOQQBXN1BU80W,2724,017801_-0.037878787878787845.png,8,71,live
564,A34N2P23WZ50L4:34QN5IT0T1YMYK28JJOQQBXN1BU80W,2134,188228_-0.6136363636363636.png,5,72,live
565,A34N2P23WZ50L4:34QN5IT0T1YMYK28JJOQQBXN1BU80W,2941,141447_0.15909090909090917.png,4,73,live
566,A34N2P23WZ50L4:34QN5IT0T1YMYK28JJOQQBXN1BU80W,2188,077438_-0.26515151515151514.png,6,74,live
567,A34N2P23WZ50L4:34QN5IT0T1YMYK28JJOQQBXN1BU80W,2004,081654_0.20454545454545459.png,5,75,live
568,A34N2P23WZ50L4:34QN5IT0T1YMYK28JJOQQBXN1BU80W,2029,018930_-0.38636363636363635.png,4,76,live
569,A34N2P23WZ50L4:34QN5IT0T1YMYK28JJOQQBXN1BU80W,2317,006487_0.6590909090909092.png,6,77,live
570,A34N2P23WZ50L4:34QN5IT0T1YMYK28JJOQQBXN1BU80W,2484,090214_-0.41666666666666663.png,4,79,live
571,A34N2P23WZ50L4:34QN5IT0T1YMYK28JJOQQBXN1BU80W,1844,000907_0.3712121212121213.png,6,80,live
572,A34N2P23WZ50L4:34QN5IT0T1YMYK28JJOQQBXN1BU80W,2487,195628_-0.4318181818181818.png,5,81,live
573,A34N2P23WZ50L4:34QN5IT0T1YMYK28JJOQQBXN1BU80W,1972,108843_-0.3712121212121212.png,4,82,live
574,A34N2P23WZ50L4:34QN5IT0T1YMYK28JJOQQBXN1BU80W,3169,107163_-0.6893939393939394.png,6,83,live
575,A34N2P23WZ50L4:34QN5IT0T1YMYK28JJOQQBXN1BU80W,1666,156472_-0.5984848484848485.png,5,84,live
576,A34N2P23WZ50L4:34QN5IT0T1YMYK28JJOQQBXN1BU80W,4400,166562_0.4772727272727273.png,4,85,live
577,A34N2P23WZ50L4:34QN5IT0T1YMYK28JJOQQBXN1BU80W,2373,058811_0.5681818181818181.png,5,86,live
578,A34N2P23WZ50L4:34QN5IT0T1YMYK28JJOQQBXN1BU80W,2510,077003_0.643939393939394.png,7,87,live
579,A34N2P23WZ50L4:34QN5IT0T1YMYK28JJOQQBXN1BU80W,2559,181560_-0.3409090909090909.png,5,88,live
580,A34N2P23WZ50L4:34QN5IT0T1YMYK28JJOQQBXN1BU80W,2452,044261_-0.15909090909090906.png,5,90,live
581,A34N2P23WZ50L4:34QN5IT0T1YMYK28JJOQQBXN1BU80W,2446,017801_-0.037878787878787845.png,6,91,live
582,A34N2P23WZ50L4:34QN5IT0T1YMYK28JJOQQBXN1BU80W,1719,067945_0.1742424242424243.png,5,92,live
583,A34N2P23WZ50L4:34QN5IT0T1YMYK28JJOQQBXN1BU80W,1894,062275_0.6287878787878789.png,7,93,live
584,A34N2P23WZ50L4:34QN5IT0T1YMYK28JJOQQBXN1BU80W,1773,081654_0.20454545454545459.png,5,94,live
585,A34N2P23WZ50L4:34QN5IT0T1YMYK28JJOQQBXN1BU80W,1685,190277_0.5984848484848486.png,6,95,live
586,A34N2P23WZ50L4:34QN5IT0T1YMYK28JJOQQBXN1BU80W,2238,045041_0.14393939393939392.png,7,96,live
587,A34N2P23WZ50L4:34QN5IT0T1YMYK28JJOQQBXN1BU80W,1813,114266_0.5227272727272727.png,5,97,live
588,A34N2P23WZ50L4:34QN5IT0T1YMYK28JJOQQBXN1BU80W,6478,010879_-0.6287878787878788.png,5,98,live
589,A34N2P23WZ50L4:34QN5IT0T1YMYK28JJOQQBXN1BU80W,2791,105621_0.5833333333333335.png,6,99,live
590,A34N2P23WZ50L4:34QN5IT0T1YMYK28JJOQQBXN1BU80W,3413,131605_-0.6742424242424242.png,5,101,live
591,A34N2P23WZ50L4:34QN5IT0T1YMYK28JJOQQBXN1BU80W,2326,041492_0.11363636363636365.png,6,102,live
592,A34N2P23WZ50L4:34QN5IT0T1YMYK28JJOQQBXN1BU80W,1902,005032_0.46212121212121215.png,5,103,live
593,A34N2P23WZ50L4:34QN5IT0T1YMYK28JJOQQBXN1BU80W,2086,041147_0.446969696969697.png,7,104,live
594,A34N2P23WZ50L4:34QN5IT0T1YMYK28JJOQQBXN1BU80W,1733,177627_-0.32575757575757575.png,5,105,live
595,A34N2P23WZ50L4:34QN5IT0T1YMYK28JJOQQBXN1BU80W,1951,041147_0.446969696969697.png,6,106,live
596,A34N2P23WZ50L4:34QN5IT0T1YMYK28JJOQQBXN1BU80W,2021,077438_-0.26515151515151514.png,7,107,live
597,A34N2P23WZ50L4:34QN5IT0T1YMYK28JJOQQBXN1BU80W,2270,134541_-0.1742424242424242.png,8,108,live
598,A34N2P23WZ50L4:34QN5IT0T1YMYK28JJOQQBXN1BU80W,2092,164388_0.5378787878787878.png,8,109,live
599,A34N2P23WZ50L4:34QN5IT0T1YMYK28JJOQQBXN1BU80W,1605,141447_0.15909090909090917.png,6,110,live
600,A3NMQ3019X6YE0:32KTQ2V7RFMJF3SPDGH2O4ZBOKD9MX,6668,080519_0.31060606060606055.png,3,2,live
601,A3NMQ3019X6YE0:32KTQ2V7RFMJF3SPDGH2O4ZBOKD9MX,4253,006146_0.12878787878787878.png,2,3,live
602,A3NMQ3019X6YE0:32KTQ2V7RFMJF3SPDGH2O4ZBOKD9MX,3663,005032_0.46212121212121215.png,7,4,live
603,A3NMQ3019X6YE0:32KTQ2V7RFMJF3SPDGH2O4ZBOKD9MX,5167,185401_-0.4621212121212121.png,6,5,live
604,A3NMQ3019X6YE0:32KTQ2V7RFMJF3SPDGH2O4ZBOKD9MX,3502,176041_-0.7045454545454546.png,3,6,live
605,A3NMQ3019X6YE0:32KTQ2V7RFMJF3SPDGH2O4ZBOKD9MX,3614,006487_0.6590909090909092.png,9,7,live
606,A3NMQ3019X6YE0:32KTQ2V7RFMJF3SPDGH2O4ZBOKD9MX,4350,067107_0.3257575757575757.png,4,8,live
607,A3NMQ3019X6YE0:32KTQ2V7RFMJF3SPDGH2O4ZBOKD9MX,3495,077003_0.643939393939394.png,8,9,live
608,A3NMQ3019X6YE0:32KTQ2V7RFMJF3SPDGH2O4ZBOKD9MX,4063,111223_-0.23484848484848486.png,6,10,live
609,A3NMQ3019X6YE0:32KTQ2V7RFMJF3SPDGH2O4ZBOKD9MX,4717,041492_0.11363636363636365.png,6,11,live
610,A3NMQ3019X6YE0:32KTQ2V7RFMJF3SPDGH2O4ZBOKD9MX,4175,006487_0.6590909090909092.png,9,13,live
611,A3NMQ3019X6YE0:32KTQ2V7RFMJF3SPDGH2O4ZBOKD9MX,5814,000879_0.553030303030303.png,6,14,live
612,A3NMQ3019X6YE0:32KTQ2V7RFMJF3SPDGH2O4ZBOKD9MX,5222,195190_-0.14393939393939392.png,5,15,live
613,A3NMQ3019X6YE0:32KTQ2V7RFMJF3SPDGH2O4ZBOKD9MX,2919,115608_0.08333333333333337.png,6,16,live
614,A3NMQ3019X6YE0:32KTQ2V7RFMJF3SPDGH2O4ZBOKD9MX,3159,042970_0.75.png,9,17,live
615,A3NMQ3019X6YE0:32KTQ2V7RFMJF3SPDGH2O4ZBOKD9MX,6622,142408_-0.022727272727272707.png,8,18,live
616,A3NMQ3019X6YE0:32KTQ2V7RFMJF3SPDGH2O4ZBOKD9MX,2718,067107_0.3257575757575757.png,4,19,live
617,A3NMQ3019X6YE0:32KTQ2V7RFMJF3SPDGH2O4ZBOKD9MX,2837,156683_-0.18939393939393934.png,3,20,live
618,A3NMQ3019X6YE0:32KTQ2V7RFMJF3SPDGH2O4ZBOKD9MX,3294,077438_-0.26515151515151514.png,5,21,live
619,A3NMQ3019X6YE0:32KTQ2V7RFMJF3SPDGH2O4ZBOKD9MX,5112,027615_0.053030303030303094.png,5,22,live
620,A3NMQ3019X6YE0:32KTQ2V7RFMJF3SPDGH2O4ZBOKD9MX,5757,136712_-0.2803030303030303.png,5,24,live
621,A3NMQ3019X6YE0:32KTQ2V7RFMJF3SPDGH2O4ZBOKD9MX,4703,018930_-0.38636363636363635.png,6,25,live
622,A3NMQ3019X6YE0:32KTQ2V7RFMJF3SPDGH2O4ZBOKD9MX,2855,182833_-0.007575757575757569.png,9,26,live
623,A3NMQ3019X6YE0:32KTQ2V7RFMJF3SPDGH2O4ZBOKD9MX,4102,000907_0.3712121212121213.png,1,27,live
624,A3NMQ3019X6YE0:32KTQ2V7RFMJF3SPDGH2O4ZBOKD9MX,4279,000570_0.34090909090909083.png,6,28,live
625,A3NMQ3019X6YE0:32KTQ2V7RFMJF3SPDGH2O4ZBOKD9MX,2736,141447_0.15909090909090917.png,7,29,live
626,A3NMQ3019X6YE0:32KTQ2V7RFMJF3SPDGH2O4ZBOKD9MX,2830,177185_-0.21969696969696972.png,1,30,live
627,A3NMQ3019X6YE0:32KTQ2V7RFMJF3SPDGH2O4ZBOKD9MX,3238,081654_0.20454545454545459.png,9,31,live
628,A3NMQ3019X6YE0:32KTQ2V7RFMJF3SPDGH2O4ZBOKD9MX,3215,018930_-0.38636363636363635.png,6,32,live
629,A3NMQ3019X6YE0:32KTQ2V7RFMJF3SPDGH2O4ZBOKD9MX,3110,016561_-0.12878787878787878.png,5,33,live
630,A3NMQ3019X6YE0:32KTQ2V7RFMJF3SPDGH2O4ZBOKD9MX,4304,166562_0.4772727272727273.png,4,35,live
631,A3NMQ3019X6YE0:32KTQ2V7RFMJF3SPDGH2O4ZBOKD9MX,2998,181560_-0.3409090909090909.png,6,36,live
632,A3NMQ3019X6YE0:32KTQ2V7RFMJF3SPDGH2O4ZBOKD9MX,6022,062275_0.6287878787878789.png,7,37,live
633,A3NMQ3019X6YE0:32KTQ2V7RFMJF3SPDGH2O4ZBOKD9MX,2749,189047_0.21969696969696972.png,3,38,live
634,A3NMQ3019X6YE0:32KTQ2V7RFMJF3SPDGH2O4ZBOKD9MX,3103,188228_-0.6136363636363636.png,2,39,live
635,A3NMQ3019X6YE0:32KTQ2V7RFMJF3SPDGH2O4ZBOKD9MX,3062,134541_-0.1742424242424242.png,7,40,live
636,A3NMQ3019X6YE0:32KTQ2V7RFMJF3SPDGH2O4ZBOKD9MX,4199,190277_0.5984848484848486.png,7,41,live
637,A3NMQ3019X6YE0:32KTQ2V7RFMJF3SPDGH2O4ZBOKD9MX,2717,181560_-0.3409090909090909.png,5,42,live
638,A3NMQ3019X6YE0:32KTQ2V7RFMJF3SPDGH2O4ZBOKD9MX,2902,137488_0.25.png,5,43,live
639,A3NMQ3019X6YE0:32KTQ2V7RFMJF3SPDGH2O4ZBOKD9MX,3167,134541_-0.1742424242424242.png,7,44,live
640,A3NMQ3019X6YE0:32KTQ2V7RFMJF3SPDGH2O4ZBOKD9MX,3259,020547_-0.6590909090909091.png,8,46,live
641,A3NMQ3019X6YE0:32KTQ2V7RFMJF3SPDGH2O4ZBOKD9MX,2749,081654_0.20454545454545459.png,9,47,live
642,A3NMQ3019X6YE0:32KTQ2V7RFMJF3SPDGH2O4ZBOKD9MX,4141,040377_0.6742424242424243.png,7,48,live
643,A3NMQ3019X6YE0:32KTQ2V7RFMJF3SPDGH2O4ZBOKD9MX,3343,097202_0.09848484848484851.png,7,49,live
644,A3NMQ3019X6YE0:32KTQ2V7RFMJF3SPDGH2O4ZBOKD9MX,3918,010879_-0.6287878787878788.png,9,50,live
645,A3NMQ3019X6YE0:32KTQ2V7RFMJF3SPDGH2O4ZBOKD9MX,4053,191981_-0.3106060606060606.png,9,51,live
646,A3NMQ3019X6YE0:32KTQ2V7RFMJF3SPDGH2O4ZBOKD9MX,3959,142363_0.6136363636363638.png,3,52,live
647,A3NMQ3019X6YE0:32KTQ2V7RFMJF3SPDGH2O4ZBOKD9MX,2782,045041_0.14393939393939392.png,6,53,live
648,A3NMQ3019X6YE0:32KTQ2V7RFMJF3SPDGH2O4ZBOKD9MX,3454,041147_0.446969696969697.png,6,54,live
649,A3NMQ3019X6YE0:32KTQ2V7RFMJF3SPDGH2O4ZBOKD9MX,2607,200766_-0.25.png,4,55,live
650,A3NMQ3019X6YE0:32KTQ2V7RFMJF3SPDGH2O4ZBOKD9MX,5723,101289_0.49242424242424243.png,5,57,live
651,A3NMQ3019X6YE0:32KTQ2V7RFMJF3SPDGH2O4ZBOKD9MX,2622,124810_-0.44696969696969696.png,6,58,live
652,A3NMQ3019X6YE0:32KTQ2V7RFMJF3SPDGH2O4ZBOKD9MX,4095,177185_-0.21969696969696972.png,1,59,live
653,A3NMQ3019X6YE0:32KTQ2V7RFMJF3SPDGH2O4ZBOKD9MX,3135,017801_-0.037878787878787845.png,6,60,live
654,A3NMQ3019X6YE0:32KTQ2V7RFMJF3SPDGH2O4ZBOKD9MX,3800,195628_-0.4318181818181818.png,6,61,live
655,A3NMQ3019X6YE0:32KTQ2V7RFMJF3SPDGH2O4ZBOKD9MX,5500,044261_-0.15909090909090906.png,9,62,live
656,A3NMQ3019X6YE0:32KTQ2V7RFMJF3SPDGH2O4ZBOKD9MX,3087,156472_-0.5984848484848485.png,7,63,live
657,A3NMQ3019X6YE0:32KTQ2V7RFMJF3SPDGH2O4ZBOKD9MX,2519,131605_-0.6742424242424242.png,9,64,live
658,A3NMQ3019X6YE0:32KTQ2V7RFMJF3SPDGH2O4ZBOKD9MX,2499,077003_0.643939393939394.png,8,65,live
659,A3NMQ3019X6YE0:32KTQ2V7RFMJF3SPDGH2O4ZBOKD9MX,2757,131605_-0.6742424242424242.png,9,66,live
660,A3NMQ3019X6YE0:32KTQ2V7RFMJF3SPDGH2O4ZBOKD9MX,2699,010879_-0.6287878787878788.png,9,68,live
661,A3NMQ3019X6YE0:32KTQ2V7RFMJF3SPDGH2O4ZBOKD9MX,3701,109193_0.7348484848484849.png,8,69,live
662,A3NMQ3019X6YE0:32KTQ2V7RFMJF3SPDGH2O4ZBOKD9MX,4326,067945_0.1742424242424243.png,9,70,live
663,A3NMQ3019X6YE0:32KTQ2V7RFMJF3SPDGH2O4ZBOKD9MX,3118,189047_0.21969696969696972.png,3,71,live
664,A3NMQ3019X6YE0:32KTQ2V7RFMJF3SPDGH2O4ZBOKD9MX,2520,077438_-0.26515151515151514.png,6,72,live
665,A3NMQ3019X6YE0:32KTQ2V7RFMJF3SPDGH2O4ZBOKD9MX,5559,032881_0.18939393939393945.png,6,73,live
666,A3NMQ3019X6YE0:32KTQ2V7RFMJF3SPDGH2O4ZBOKD9MX,3679,164388_0.5378787878787878.png,6,74,live
667,A3NMQ3019X6YE0:32KTQ2V7RFMJF3SPDGH2O4ZBOKD9MX,2783,108843_-0.3712121212121212.png,7,75,live
668,A3NMQ3019X6YE0:32KTQ2V7RFMJF3SPDGH2O4ZBOKD9MX,2501,041147_0.446969696969697.png,6,76,live
669,A3NMQ3019X6YE0:32KTQ2V7RFMJF3SPDGH2O4ZBOKD9MX,4335,175064_0.7196969696969697.png,7,77,live
670,A3NMQ3019X6YE0:32KTQ2V7RFMJF3SPDGH2O4ZBOKD9MX,2732,016561_-0.12878787878787878.png,5,79,live
671,A3NMQ3019X6YE0:32KTQ2V7RFMJF3SPDGH2O4ZBOKD9MX,3605,017801_-0.037878787878787845.png,7,80,live
672,A3NMQ3019X6YE0:32KTQ2V7RFMJF3SPDGH2O4ZBOKD9MX,2879,071433_0.4318181818181819.png,4,81,live
673,A3NMQ3019X6YE0:32KTQ2V7RFMJF3SPDGH2O4ZBOKD9MX,2423,105621_0.5833333333333335.png,5,82,live
674,A3NMQ3019X6YE0:32KTQ2V7RFMJF3SPDGH2O4ZBOKD9MX,4198,087309_-0.6439393939393939.png,9,83,live
675,A3NMQ3019X6YE0:32KTQ2V7RFMJF3SPDGH2O4ZBOKD9MX,4262,045041_0.14393939393939392.png,7,84,live
676,A3NMQ3019X6YE0:32KTQ2V7RFMJF3SPDGH2O4ZBOKD9MX,2668,182210_-0.49242424242424243.png,3,85,live
677,A3NMQ3019X6YE0:32KTQ2V7RFMJF3SPDGH2O4ZBOKD9MX,4112,090214_-0.41666666666666663.png,4,86,live
678,A3NMQ3019X6YE0:32KTQ2V7RFMJF3SPDGH2O4ZBOKD9MX,5366,135232_0.26515151515151514.png,8,87,live
679,A3NMQ3019X6YE0:32KTQ2V7RFMJF3SPDGH2O4ZBOKD9MX,4574,074250_-0.08333333333333326.png,8,88,live
680,A3NMQ3019X6YE0:32KTQ2V7RFMJF3SPDGH2O4ZBOKD9MX,4325,005032_0.46212121212121215.png,8,90,live
681,A3NMQ3019X6YE0:32KTQ2V7RFMJF3SPDGH2O4ZBOKD9MX,4190,014683_0.41666666666666674.png,7,91,live
682,A3NMQ3019X6YE0:32KTQ2V7RFMJF3SPDGH2O4ZBOKD9MX,3206,114266_0.5227272727272727.png,1,92,live
683,A3NMQ3019X6YE0:32KTQ2V7RFMJF3SPDGH2O4ZBOKD9MX,3175,062697_0.3560606060606062.png,7,93,live
684,A3NMQ3019X6YE0:32KTQ2V7RFMJF3SPDGH2O4ZBOKD9MX,3917,058811_0.5681818181818181.png,4,94,live
685,A3NMQ3019X6YE0:32KTQ2V7RFMJF3SPDGH2O4ZBOKD9MX,4559,153367_0.037878787878787845.png,3,95,live
686,A3NMQ3019X6YE0:32KTQ2V7RFMJF3SPDGH2O4ZBOKD9MX,3615,057882_0.23484848484848486.png,6,96,live
687,A3NMQ3019X6YE0:32KTQ2V7RFMJF3SPDGH2O4ZBOKD9MX,2879,000879_0.553030303030303.png,6,97,live
688,A3NMQ3019X6YE0:32KTQ2V7RFMJF3SPDGH2O4ZBOKD9MX,2429,139618_-0.4772727272727273.png,9,98,live
689,A3NMQ3019X6YE0:32KTQ2V7RFMJF3SPDGH2O4ZBOKD9MX,4351,141447_0.15909090909090917.png,8,99,live
690,A3NMQ3019X6YE0:32KTQ2V7RFMJF3SPDGH2O4ZBOKD9MX,3471,129472_-0.553030303030303.png,8,101,live
691,A3NMQ3019X6YE0:32KTQ2V7RFMJF3SPDGH2O4ZBOKD9MX,5047,076120_0.5075757575757576.png,9,102,live
692,A3NMQ3019X6YE0:32KTQ2V7RFMJF3SPDGH2O4ZBOKD9MX,4070,028460_-0.5075757575757576.png,3,103,live
693,A3NMQ3019X6YE0:32KTQ2V7RFMJF3SPDGH2O4ZBOKD9MX,5133,177627_-0.32575757575757575.png,1,104,live
694,A3NMQ3019X6YE0:32KTQ2V7RFMJF3SPDGH2O4ZBOKD9MX,3742,045515_0.007575757575757569.png,7,105,live
695,A3NMQ3019X6YE0:32KTQ2V7RFMJF3SPDGH2O4ZBOKD9MX,3358,189127_-0.75.png,4,106,live
696,A3NMQ3019X6YE0:32KTQ2V7RFMJF3SPDGH2O4ZBOKD9MX,3622,042076_-0.7196969696969697.png,5,107,live
697,A3NMQ3019X6YE0:32KTQ2V7RFMJF3SPDGH2O4ZBOKD9MX,4295,166828_-0.7348484848484849.png,7,108,live
698,A3NMQ3019X6YE0:32KTQ2V7RFMJF3SPDGH2O4ZBOKD9MX,2886,107163_-0.6893939393939394.png,6,109,live
699,A3NMQ3019X6YE0:32KTQ2V7RFMJF3SPDGH2O4ZBOKD9MX,2454,062275_0.6287878787878789.png,7,110,live
700,AIWSB4YTN32GF:3U84XHCDIEKIH4LWBAB5FYK4HWD4Z9,4028,108843_-0.3712121212121212.png,9,2,live
701,AIWSB4YTN32GF:3U84XHCDIEKIH4LWBAB5FYK4HWD4Z9,4730,081654_0.20454545454545459.png,1,3,live
702,AIWSB4YTN32GF:3U84XHCDIEKIH4LWBAB5FYK4HWD4Z9,3549,076120_0.5075757575757576.png,4,4,live
703,AIWSB4YTN32GF:3U84XHCDIEKIH4LWBAB5FYK4HWD4Z9,2984,166828_-0.7348484848484849.png,6,5,live
704,AIWSB4YTN32GF:3U84XHCDIEKIH4LWBAB5FYK4HWD4Z9,2883,124810_-0.44696969696969696.png,9,6,live
705,AIWSB4YTN32GF:3U84XHCDIEKIH4LWBAB5FYK4HWD4Z9,7036,080519_0.31060606060606055.png,1,7,live
706,AIWSB4YTN32GF:3U84XHCDIEKIH4LWBAB5FYK4HWD4Z9,3515,006487_0.6590909090909092.png,9,8,live
707,AIWSB4YTN32GF:3U84XHCDIEKIH4LWBAB5FYK4HWD4Z9,3859,177627_-0.32575757575757575.png,1,9,live
708,AIWSB4YTN32GF:3U84XHCDIEKIH4LWBAB5FYK4HWD4Z9,4620,006487_0.6590909090909092.png,9,10,live
709,AIWSB4YTN32GF:3U84XHCDIEKIH4LWBAB5FYK4HWD4Z9,29829,062275_0.6287878787878789.png,1,11,live
710,AIWSB4YTN32GF:3U84XHCDIEKIH4LWBAB5FYK4HWD4Z9,4004,044261_-0.15909090909090906.png,7,13,live
711,AIWSB4YTN32GF:3U84XHCDIEKIH4LWBAB5FYK4HWD4Z9,3650,200766_-0.25.png,1,14,live
712,AIWSB4YTN32GF:3U84XHCDIEKIH4LWBAB5FYK4HWD4Z9,2691,077003_0.643939393939394.png,6,15,live
713,AIWSB4YTN32GF:3U84XHCDIEKIH4LWBAB5FYK4HWD4Z9,2922,016561_-0.12878787878787878.png,1,16,live
714,AIWSB4YTN32GF:3U84XHCDIEKIH4LWBAB5FYK4HWD4Z9,2842,176041_-0.7045454545454546.png,9,17,live
715,AIWSB4YTN32GF:3U84XHCDIEKIH4LWBAB5FYK4HWD4Z9,5171,067107_0.3257575757575757.png,5,18,live
716,AIWSB4YTN32GF:3U84XHCDIEKIH4LWBAB5FYK4HWD4Z9,3400,175064_0.7196969696969697.png,2,19,live
717,AIWSB4YTN32GF:3U84XHCDIEKIH4LWBAB5FYK4HWD4Z9,2843,081654_0.20454545454545459.png,1,20,live
718,AIWSB4YTN32GF:3U84XHCDIEKIH4LWBAB5FYK4HWD4Z9,3300,000879_0.553030303030303.png,1,21,live
719,AIWSB4YTN32GF:3U84XHCDIEKIH4LWBAB5FYK4HWD4Z9,2523,181560_-0.3409090909090909.png,5,22,live
720,AIWSB4YTN32GF:3U84XHCDIEKIH4LWBAB5FYK4HWD4Z9,2978,156472_-0.5984848484848485.png,6,24,live
721,AIWSB4YTN32GF:3U84XHCDIEKIH4LWBAB5FYK4HWD4Z9,2603,185401_-0.4621212121212121.png,3,25,live
722,AIWSB4YTN32GF:3U84XHCDIEKIH4LWBAB5FYK4HWD4Z9,3067,042970_0.75.png,6,26,live
723,AIWSB4YTN32GF:3U84XHCDIEKIH4LWBAB5FYK4HWD4Z9,3581,077438_-0.26515151515151514.png,2,27,live
724,AIWSB4YTN32GF:3U84XHCDIEKIH4LWBAB5FYK4HWD4Z9,3108,017801_-0.037878787878787845.png,9,28,live
725,AIWSB4YTN32GF:3U84XHCDIEKIH4LWBAB5FYK4HWD4Z9,3865,141447_0.15909090909090917.png,7,29,live
726,AIWSB4YTN32GF:3U84XHCDIEKIH4LWBAB5FYK4HWD4Z9,2564,016561_-0.12878787878787878.png,1,30,live
727,AIWSB4YTN32GF:3U84XHCDIEKIH4LWBAB5FYK4HWD4Z9,3654,005032_0.46212121212121215.png,9,31,live
728,AIWSB4YTN32GF:3U84XHCDIEKIH4LWBAB5FYK4HWD4Z9,9008,166562_0.4772727272727273.png,1,32,live
729,AIWSB4YTN32GF:3U84XHCDIEKIH4LWBAB5FYK4HWD4Z9,3049,067945_0.1742424242424243.png,9,33,live
730,AIWSB4YTN32GF:3U84XHCDIEKIH4LWBAB5FYK4HWD4Z9,2744,114266_0.5227272727272727.png,1,35,live
731,AIWSB4YTN32GF:3U84XHCDIEKIH4LWBAB5FYK4HWD4Z9,3971,045041_0.14393939393939392.png,1,36,live
732,AIWSB4YTN32GF:3U84XHCDIEKIH4LWBAB5FYK4HWD4Z9,3674,045041_0.14393939393939392.png,1,37,live
733,AIWSB4YTN32GF:3U84XHCDIEKIH4LWBAB5FYK4HWD4Z9,2626,142363_0.6136363636363638.png,1,38,live
734,AIWSB4YTN32GF:3U84XHCDIEKIH4LWBAB5FYK4HWD4Z9,4156,105621_0.5833333333333335.png,6,39,live
735,AIWSB4YTN32GF:3U84XHCDIEKIH4LWBAB5FYK4HWD4Z9,2516,062697_0.3560606060606062.png,7,40,live
736,AIWSB4YTN32GF:3U84XHCDIEKIH4LWBAB5FYK4HWD4Z9,3314,057882_0.23484848484848486.png,8,41,live
737,AIWSB4YTN32GF:3U84XHCDIEKIH4LWBAB5FYK4HWD4Z9,3124,131605_-0.6742424242424242.png,9,42,live
738,AIWSB4YTN32GF:3U84XHCDIEKIH4LWBAB5FYK4HWD4Z9,4693,109193_0.7348484848484849.png,8,43,live
739,AIWSB4YTN32GF:3U84XHCDIEKIH4LWBAB5FYK4HWD4Z9,3771,040377_0.6742424242424243.png,7,44,live
740,AIWSB4YTN32GF:3U84XHCDIEKIH4LWBAB5FYK4HWD4Z9,3508,017801_-0.037878787878787845.png,9,46,live
741,AIWSB4YTN32GF:3U84XHCDIEKIH4LWBAB5FYK4HWD4Z9,3507,077003_0.643939393939394.png,7,47,live
742,AIWSB4YTN32GF:3U84XHCDIEKIH4LWBAB5FYK4HWD4Z9,5141,177185_-0.21969696969696972.png,1,48,live
743,AIWSB4YTN32GF:3U84XHCDIEKIH4LWBAB5FYK4HWD4Z9,8299,129472_-0.553030303030303.png,9,49,live
744,AIWSB4YTN32GF:3U84XHCDIEKIH4LWBAB5FYK4HWD4Z9,2594,131605_-0.6742424242424242.png,9,50,live
745,AIWSB4YTN32GF:3U84XHCDIEKIH4LWBAB5FYK4HWD4Z9,3916,042076_-0.7196969696969697.png,1,51,live
746,AIWSB4YTN32GF:3U84XHCDIEKIH4LWBAB5FYK4HWD4Z9,2938,041147_0.446969696969697.png,6,52,live
747,AIWSB4YTN32GF:3U84XHCDIEKIH4LWBAB5FYK4HWD4Z9,2357,139618_-0.4772727272727273.png,7,53,live
748,AIWSB4YTN32GF:3U84XHCDIEKIH4LWBAB5FYK4HWD4Z9,3441,000907_0.3712121212121213.png,1,54,live
749,AIWSB4YTN32GF:3U84XHCDIEKIH4LWBAB5FYK4HWD4Z9,2410,181560_-0.3409090909090909.png,6,55,live
750,AIWSB4YTN32GF:3U84XHCDIEKIH4LWBAB5FYK4HWD4Z9,3076,071433_0.4318181818181819.png,1,57,live
751,AIWSB4YTN32GF:3U84XHCDIEKIH4LWBAB5FYK4HWD4Z9,3120,195190_-0.14393939393939392.png,7,58,live
752,AIWSB4YTN32GF:3U84XHCDIEKIH4LWBAB5FYK4HWD4Z9,2943,156683_-0.18939393939393934.png,3,59,live
753,AIWSB4YTN32GF:3U84XHCDIEKIH4LWBAB5FYK4HWD4Z9,2869,090214_-0.41666666666666663.png,2,60,live
754,AIWSB4YTN32GF:3U84XHCDIEKIH4LWBAB5FYK4HWD4Z9,2428,137488_0.25.png,1,61,live
755,AIWSB4YTN32GF:3U84XHCDIEKIH4LWBAB5FYK4HWD4Z9,3083,115608_0.08333333333333337.png,5,62,live
756,AIWSB4YTN32GF:3U84XHCDIEKIH4LWBAB5FYK4HWD4Z9,3042,136712_-0.2803030303030303.png,2,63,live
757,AIWSB4YTN32GF:3U84XHCDIEKIH4LWBAB5FYK4HWD4Z9,2898,074250_-0.08333333333333326.png,3,64,live
758,AIWSB4YTN32GF:3U84XHCDIEKIH4LWBAB5FYK4HWD4Z9,2729,000570_0.34090909090909083.png,6,65,live
759,AIWSB4YTN32GF:3U84XHCDIEKIH4LWBAB5FYK4HWD4Z9,4422,195628_-0.4318181818181818.png,1,66,live
760,AIWSB4YTN32GF:3U84XHCDIEKIH4LWBAB5FYK4HWD4Z9,2325,153367_0.037878787878787845.png,1,68,live
761,AIWSB4YTN32GF:3U84XHCDIEKIH4LWBAB5FYK4HWD4Z9,3037,058811_0.5681818181818181.png,9,69,live
762,AIWSB4YTN32GF:3U84XHCDIEKIH4LWBAB5FYK4HWD4Z9,3080,027615_0.053030303030303094.png,7,70,live
763,AIWSB4YTN32GF:3U84XHCDIEKIH4LWBAB5FYK4HWD4Z9,4796,045515_0.007575757575757569.png,1,71,live
764,AIWSB4YTN32GF:3U84XHCDIEKIH4LWBAB5FYK4HWD4Z9,2944,189127_-0.75.png,1,72,live
765,AIWSB4YTN32GF:3U84XHCDIEKIH4LWBAB5FYK4HWD4Z9,3410,111223_-0.23484848484848486.png,7,73,live
766,AIWSB4YTN32GF:3U84XHCDIEKIH4LWBAB5FYK4HWD4Z9,2844,062275_0.6287878787878789.png,1,74,live
767,AIWSB4YTN32GF:3U84XHCDIEKIH4LWBAB5FYK4HWD4Z9,2488,182210_-0.49242424242424243.png,3,75,live
768,AIWSB4YTN32GF:3U84XHCDIEKIH4LWBAB5FYK4HWD4Z9,2892,134541_-0.1742424242424242.png,7,76,live
769,AIWSB4YTN32GF:3U84XHCDIEKIH4LWBAB5FYK4HWD4Z9,3252,028460_-0.5075757575757576.png,1,77,live
770,AIWSB4YTN32GF:3U84XHCDIEKIH4LWBAB5FYK4HWD4Z9,2997,101289_0.49242424242424243.png,1,79,live
771,AIWSB4YTN32GF:3U84XHCDIEKIH4LWBAB5FYK4HWD4Z9,3473,135232_0.26515151515151514.png,8,80,live
772,AIWSB4YTN32GF:3U84XHCDIEKIH4LWBAB5FYK4HWD4Z9,2656,005032_0.46212121212121215.png,8,81,live
773,AIWSB4YTN32GF:3U84XHCDIEKIH4LWBAB5FYK4HWD4Z9,6512,141447_0.15909090909090917.png,9,82,live
774,AIWSB4YTN32GF:3U84XHCDIEKIH4LWBAB5FYK4HWD4Z9,2859,067107_0.3257575757575757.png,4,83,live
775,AIWSB4YTN32GF:3U84XHCDIEKIH4LWBAB5FYK4HWD4Z9,3006,142408_-0.022727272727272707.png,1,84,live
776,AIWSB4YTN32GF:3U84XHCDIEKIH4LWBAB5FYK4HWD4Z9,3010,010879_-0.6287878787878788.png,6,85,live
777,AIWSB4YTN32GF:3U84XHCDIEKIH4LWBAB5FYK4HWD4Z9,3547,018930_-0.38636363636363635.png,1,86,live
778,AIWSB4YTN32GF:3U84XHCDIEKIH4LWBAB5FYK4HWD4Z9,2748,032881_0.18939393939393945.png,1,87,live
779,AIWSB4YTN32GF:3U84XHCDIEKIH4LWBAB5FYK4HWD4Z9,2853,087309_-0.6439393939393939.png,8,88,live
780,AIWSB4YTN32GF:3U84XHCDIEKIH4LWBAB5FYK4HWD4Z9,21273,010879_-0.6287878787878788.png,7,90,live
781,AIWSB4YTN32GF:3U84XHCDIEKIH4LWBAB5FYK4HWD4Z9,2678,164388_0.5378787878787878.png,4,91,live
782,AIWSB4YTN32GF:3U84XHCDIEKIH4LWBAB5FYK4HWD4Z9,3049,182833_-0.007575757575757569.png,8,92,live
783,AIWSB4YTN32GF:3U84XHCDIEKIH4LWBAB5FYK4HWD4Z9,2852,189047_0.21969696969696972.png,1,93,live
784,AIWSB4YTN32GF:3U84XHCDIEKIH4LWBAB5FYK4HWD4Z9,2775,020547_-0.6590909090909091.png,2,94,live
785,AIWSB4YTN32GF:3U84XHCDIEKIH4LWBAB5FYK4HWD4Z9,2763,041492_0.11363636363636365.png,2,95,live
786,AIWSB4YTN32GF:3U84XHCDIEKIH4LWBAB5FYK4HWD4Z9,2954,107163_-0.6893939393939394.png,6,96,live
787,AIWSB4YTN32GF:3U84XHCDIEKIH4LWBAB5FYK4HWD4Z9,2740,018930_-0.38636363636363635.png,1,97,live
788,AIWSB4YTN32GF:3U84XHCDIEKIH4LWBAB5FYK4HWD4Z9,2517,190277_0.5984848484848486.png,1,98,live
789,AIWSB4YTN32GF:3U84XHCDIEKIH4LWBAB5FYK4HWD4Z9,2593,189047_0.21969696969696972.png,1,99,live
790,AIWSB4YTN32GF:3U84XHCDIEKIH4LWBAB5FYK4HWD4Z9,3136,191981_-0.3106060606060606.png,1,101,live
791,AIWSB4YTN32GF:3U84XHCDIEKIH4LWBAB5FYK4HWD4Z9,4315,006146_0.12878787878787878.png,1,102,live
792,AIWSB4YTN32GF:3U84XHCDIEKIH4LWBAB5FYK4HWD4Z9,3433,097202_0.09848484848484851.png,6,103,live
793,AIWSB4YTN32GF:3U84XHCDIEKIH4LWBAB5FYK4HWD4Z9,2431,134541_-0.1742424242424242.png,8,104,live
794,AIWSB4YTN32GF:3U84XHCDIEKIH4LWBAB5FYK4HWD4Z9,3498,041147_0.446969696969697.png,4,105,live
795,AIWSB4YTN32GF:3U84XHCDIEKIH4LWBAB5FYK4HWD4Z9,2346,014683_0.41666666666666674.png,6,106,live
796,AIWSB4YTN32GF:3U84XHCDIEKIH4LWBAB5FYK4HWD4Z9,2554,177185_-0.21969696969696972.png,1,107,live
797,AIWSB4YTN32GF:3U84XHCDIEKIH4LWBAB5FYK4HWD4Z9,3235,188228_-0.6136363636363636.png,1,108,live
798,AIWSB4YTN32GF:3U84XHCDIEKIH4LWBAB5FYK4HWD4Z9,2583,000879_0.553030303030303.png,1,109,live
799,AIWSB4YTN32GF:3U84XHCDIEKIH4LWBAB5FYK4HWD4Z9,3018,077438_-0.26515151515151514.png,3,110,live
800,A3RTU5HR290468:3HMVI3QICLZ1KFE8S6QK3T4ZZI3Y13,5479,114266_0.5227272727272727.png,6,2,live
801,A3RTU5HR290468:3HMVI3QICLZ1KFE8S6QK3T4ZZI3Y13,3491,115608_0.08333333333333337.png,6,3,live
802,A3RTU5HR290468:3HMVI3QICLZ1KFE8S6QK3T4ZZI3Y13,1902,109193_0.7348484848484849.png,6,4,live
803,A3RTU5HR290468:3HMVI3QICLZ1KFE8S6QK3T4ZZI3Y13,15316,111223_-0.23484848484848486.png,6,5,live
804,A3RTU5HR290468:3HMVI3QICLZ1KFE8S6QK3T4ZZI3Y13,2158,006146_0.12878787878787878.png,5,6,live
805,A3RTU5HR290468:3HMVI3QICLZ1KFE8S6QK3T4ZZI3Y13,2311,041147_0.446969696969697.png,7,7,live
806,A3RTU5HR290468:3HMVI3QICLZ1KFE8S6QK3T4ZZI3Y13,4069,074250_-0.08333333333333326.png,6,8,live
807,A3RTU5HR290468:3HMVI3QICLZ1KFE8S6QK3T4ZZI3Y13,2277,141447_0.15909090909090917.png,7,9,live
808,A3RTU5HR290468:3HMVI3QICLZ1KFE8S6QK3T4ZZI3Y13,3309,000570_0.34090909090909083.png,8,10,live
809,A3RTU5HR290468:3HMVI3QICLZ1KFE8S6QK3T4ZZI3Y13,2669,142408_-0.022727272727272707.png,8,11,live
810,A3RTU5HR290468:3HMVI3QICLZ1KFE8S6QK3T4ZZI3Y13,2904,018930_-0.38636363636363635.png,5,13,live
811,A3RTU5HR290468:3HMVI3QICLZ1KFE8S6QK3T4ZZI3Y13,2636,045515_0.007575757575757569.png,6,14,live
812,A3RTU5HR290468:3HMVI3QICLZ1KFE8S6QK3T4ZZI3Y13,5379,042076_-0.7196969696969697.png,6,15,live
813,A3RTU5HR290468:3HMVI3QICLZ1KFE8S6QK3T4ZZI3Y13,2460,067107_0.3257575757575757.png,7,16,live
814,A3RTU5HR290468:3HMVI3QICLZ1KFE8S6QK3T4ZZI3Y13,2606,156472_-0.5984848484848485.png,8,17,live
815,A3RTU5HR290468:3HMVI3QICLZ1KFE8S6QK3T4ZZI3Y13,2644,141447_0.15909090909090917.png,8,18,live
816,A3RTU5HR290468:3HMVI3QICLZ1KFE8S6QK3T4ZZI3Y13,2446,177627_-0.32575757575757575.png,8,19,live
817,A3RTU5HR290468:3HMVI3QICLZ1KFE8S6QK3T4ZZI3Y13,2132,027615_0.053030303030303094.png,8,20,live
818,A3RTU5HR290468:3HMVI3QICLZ1KFE8S6QK3T4ZZI3Y13,1956,071433_0.4318181818181819.png,7,21,live
819,A3RTU5HR290468:3HMVI3QICLZ1KFE8S6QK3T4ZZI3Y13,2037,006487_0.6590909090909092.png,6,22,live
820,A3RTU5HR290468:3HMVI3QICLZ1KFE8S6QK3T4ZZI3Y13,6857,077003_0.643939393939394.png,8,24,live
821,A3RTU5HR290468:3HMVI3QICLZ1KFE8S6QK3T4ZZI3Y13,4463,016561_-0.12878787878787878.png,4,25,live
822,A3RTU5HR290468:3HMVI3QICLZ1KFE8S6QK3T4ZZI3Y13,3197,176041_-0.7045454545454546.png,7,26,live
823,A3RTU5HR290468:3HMVI3QICLZ1KFE8S6QK3T4ZZI3Y13,2637,042970_0.75.png,7,27,live
824,A3RTU5HR290468:3HMVI3QICLZ1KFE8S6QK3T4ZZI3Y13,1540,045041_0.14393939393939392.png,6,28,live
825,A3RTU5HR290468:3HMVI3QICLZ1KFE8S6QK3T4ZZI3Y13,2284,156683_-0.18939393939393934.png,7,29,live
826,A3RTU5HR290468:3HMVI3QICLZ1KFE8S6QK3T4ZZI3Y13,2430,107163_-0.6893939393939394.png,8,30,live
827,A3RTU5HR290468:3HMVI3QICLZ1KFE8S6QK3T4ZZI3Y13,3431,010879_-0.6287878787878788.png,8,31,live
828,A3RTU5HR290468:3HMVI3QICLZ1KFE8S6QK3T4ZZI3Y13,2165,000879_0.553030303030303.png,8,32,live
829,A3RTU5HR290468:3HMVI3QICLZ1KFE8S6QK3T4ZZI3Y13,3077,062275_0.6287878787878789.png,7,33,live
830,A3RTU5HR290468:3HMVI3QICLZ1KFE8S6QK3T4ZZI3Y13,4532,181560_-0.3409090909090909.png,6,35,live
831,A3RTU5HR290468:3HMVI3QICLZ1KFE8S6QK3T4ZZI3Y13,1972,166562_0.4772727272727273.png,7,36,live
832,A3RTU5HR290468:3HMVI3QICLZ1KFE8S6QK3T4ZZI3Y13,2070,191981_-0.3106060606060606.png,7,37,live
833,A3RTU5HR290468:3HMVI3QICLZ1KFE8S6QK3T4ZZI3Y13,1781,166828_-0.7348484848484849.png,7,38,live
834,A3RTU5HR290468:3HMVI3QICLZ1KFE8S6QK3T4ZZI3Y13,2212,195190_-0.14393939393939392.png,8,39,live
835,A3RTU5HR290468:3HMVI3QICLZ1KFE8S6QK3T4ZZI3Y13,2532,131605_-0.6742424242424242.png,8,40,live
836,A3RTU5HR290468:3HMVI3QICLZ1KFE8S6QK3T4ZZI3Y13,2037,139618_-0.4772727272727273.png,8,41,live
837,A3RTU5HR290468:3HMVI3QICLZ1KFE8S6QK3T4ZZI3Y13,2075,018930_-0.38636363636363635.png,8,42,live
838,A3RTU5HR290468:3HMVI3QICLZ1KFE8S6QK3T4ZZI3Y13,3277,000907_0.3712121212121213.png,8,43,live
839,A3RTU5HR290468:3HMVI3QICLZ1KFE8S6QK3T4ZZI3Y13,3445,077438_-0.26515151515151514.png,8,44,live
840,A3RTU5HR290468:3HMVI3QICLZ1KFE8S6QK3T4ZZI3Y13,2727,028460_-0.5075757575757576.png,6,46,live
841,A3RTU5HR290468:3HMVI3QICLZ1KFE8S6QK3T4ZZI3Y13,3916,177185_-0.21969696969696972.png,7,47,live
842,A3RTU5HR290468:3HMVI3QICLZ1KFE8S6QK3T4ZZI3Y13,3372,020547_-0.6590909090909091.png,8,48,live
843,A3RTU5HR290468:3HMVI3QICLZ1KFE8S6QK3T4ZZI3Y13,2148,124810_-0.44696969696969696.png,7,49,live
844,A3RTU5HR290468:3HMVI3QICLZ1KFE8S6QK3T4ZZI3Y13,2724,188228_-0.6136363636363636.png,8,50,live
845,A3RTU5HR290468:3HMVI3QICLZ1KFE8S6QK3T4ZZI3Y13,4662,081654_0.20454545454545459.png,8,51,live
846,A3RTU5HR290468:3HMVI3QICLZ1KFE8S6QK3T4ZZI3Y13,3196,005032_0.46212121212121215.png,8,52,live
847,A3RTU5HR290468:3HMVI3QICLZ1KFE8S6QK3T4ZZI3Y13,3340,189047_0.21969696969696972.png,8,53,live
848,A3RTU5HR290468:3HMVI3QICLZ1KFE8S6QK3T4ZZI3Y13,2684,189047_0.21969696969696972.png,7,54,live
849,A3RTU5HR290468:3HMVI3QICLZ1KFE8S6QK3T4ZZI3Y13,3852,062697_0.3560606060606062.png,7,55,live
850,A3RTU5HR290468:3HMVI3QICLZ1KFE8S6QK3T4ZZI3Y13,2768,101289_0.49242424242424243.png,8,57,live
851,A3RTU5HR290468:3HMVI3QICLZ1KFE8S6QK3T4ZZI3Y13,1981,131605_-0.6742424242424242.png,8,58,live
852,A3RTU5HR290468:3HMVI3QICLZ1KFE8S6QK3T4ZZI3Y13,4964,016561_-0.12878787878787878.png,3,59,live
853,A3RTU5HR290468:3HMVI3QICLZ1KFE8S6QK3T4ZZI3Y13,2060,006487_0.6590909090909092.png,5,60,live
854,A3RTU5HR290468:3HMVI3QICLZ1KFE8S6QK3T4ZZI3Y13,3813,040377_0.6742424242424243.png,6,61,live
855,A3RTU5HR290468:3HMVI3QICLZ1KFE8S6QK3T4ZZI3Y13,2821,108843_-0.3712121212121212.png,7,62,live
856,A3RTU5HR290468:3HMVI3QICLZ1KFE8S6QK3T4ZZI3Y13,3565,182210_-0.49242424242424243.png,7,63,live
857,A3RTU5HR290468:3HMVI3QICLZ1KFE8S6QK3T4ZZI3Y13,2805,181560_-0.3409090909090909.png,8,64,live
858,A3RTU5HR290468:3HMVI3QICLZ1KFE8S6QK3T4ZZI3Y13,3396,081654_0.20454545454545459.png,8,65,live
859,A3RTU5HR290468:3HMVI3QICLZ1KFE8S6QK3T4ZZI3Y13,2750,076120_0.5075757575757576.png,8,66,live
860,A3RTU5HR290468:3HMVI3QICLZ1KFE8S6QK3T4ZZI3Y13,3798,041147_0.446969696969697.png,7,68,live
861,A3RTU5HR290468:3HMVI3QICLZ1KFE8S6QK3T4ZZI3Y13,3404,014683_0.41666666666666674.png,7,69,live
862,A3RTU5HR290468:3HMVI3QICLZ1KFE8S6QK3T4ZZI3Y13,2782,044261_-0.15909090909090906.png,8,70,live
863,A3RTU5HR290468:3HMVI3QICLZ1KFE8S6QK3T4ZZI3Y13,5685,175064_0.7196969696969697.png,8,71,live
864,A3RTU5HR290468:3HMVI3QICLZ1KFE8S6QK3T4ZZI3Y13,2741,177185_-0.21969696969696972.png,8,72,live
865,A3RTU5HR290468:3HMVI3QICLZ1KFE8S6QK3T4ZZI3Y13,3382,041492_0.11363636363636365.png,8,73,live
866,A3RTU5HR290468:3HMVI3QICLZ1KFE8S6QK3T4ZZI3Y13,2332,017801_-0.037878787878787845.png,8,74,live
867,A3RTU5HR290468:3HMVI3QICLZ1KFE8S6QK3T4ZZI3Y13,2748,189127_-0.75.png,8,75,live
868,A3RTU5HR290468:3HMVI3QICLZ1KFE8S6QK3T4ZZI3Y13,2495,129472_-0.553030303030303.png,8,76,live
869,A3RTU5HR290468:3HMVI3QICLZ1KFE8S6QK3T4ZZI3Y13,2555,067107_0.3257575757575757.png,7,77,live
870,A3RTU5HR290468:3HMVI3QICLZ1KFE8S6QK3T4ZZI3Y13,2844,057882_0.23484848484848486.png,7,79,live
871,A3RTU5HR290468:3HMVI3QICLZ1KFE8S6QK3T4ZZI3Y13,2998,062275_0.6287878787878789.png,8,80,live
872,A3RTU5HR290468:3HMVI3QICLZ1KFE8S6QK3T4ZZI3Y13,2398,077003_0.643939393939394.png,7,81,live
873,A3RTU5HR290468:3HMVI3QICLZ1KFE8S6QK3T4ZZI3Y13,3144,017801_-0.037878787878787845.png,6,82,live
874,A3RTU5HR290468:3HMVI3QICLZ1KFE8S6QK3T4ZZI3Y13,3989,190277_0.5984848484848486.png,5,83,live
875,A3RTU5HR290468:3HMVI3QICLZ1KFE8S6QK3T4ZZI3Y13,3396,097202_0.09848484848484851.png,6,84,live
876,A3RTU5HR290468:3HMVI3QICLZ1KFE8S6QK3T4ZZI3Y13,4518,090214_-0.41666666666666663.png,8,85,live
877,A3RTU5HR290468:3HMVI3QICLZ1KFE8S6QK3T4ZZI3Y13,4165,185401_-0.4621212121212121.png,8,86,live
878,A3RTU5HR290468:3HMVI3QICLZ1KFE8S6QK3T4ZZI3Y13,3371,142363_0.6136363636363638.png,8,87,live
879,A3RTU5HR290468:3HMVI3QICLZ1KFE8S6QK3T4ZZI3Y13,3968,058811_0.5681818181818181.png,8,88,live
880,A3RTU5HR290468:3HMVI3QICLZ1KFE8S6QK3T4ZZI3Y13,5071,067945_0.1742424242424243.png,7,90,live
881,A3RTU5HR290468:3HMVI3QICLZ1KFE8S6QK3T4ZZI3Y13,4037,005032_0.46212121212121215.png,6,91,live
882,A3RTU5HR290468:3HMVI3QICLZ1KFE8S6QK3T4ZZI3Y13,3876,134541_-0.1742424242424242.png,6,92,live
883,A3RTU5HR290468:3HMVI3QICLZ1KFE8S6QK3T4ZZI3Y13,4836,105621_0.5833333333333335.png,7,93,live
884,A3RTU5HR290468:3HMVI3QICLZ1KFE8S6QK3T4ZZI3Y13,4446,080519_0.31060606060606055.png,7,94,live
885,A3RTU5HR290468:3HMVI3QICLZ1KFE8S6QK3T4ZZI3Y13,3532,195628_-0.4318181818181818.png,7,95,live
886,A3RTU5HR290468:3HMVI3QICLZ1KFE8S6QK3T4ZZI3Y13,3102,045041_0.14393939393939392.png,7,96,live
887,A3RTU5HR290468:3HMVI3QICLZ1KFE8S6QK3T4ZZI3Y13,2253,135232_0.26515151515151514.png,7,97,live
888,A3RTU5HR290468:3HMVI3QICLZ1KFE8S6QK3T4ZZI3Y13,2381,182833_-0.007575757575757569.png,7,98,live
889,A3RTU5HR290468:3HMVI3QICLZ1KFE8S6QK3T4ZZI3Y13,2173,010879_-0.6287878787878788.png,7,99,live
890,A3RTU5HR290468:3HMVI3QICLZ1KFE8S6QK3T4ZZI3Y13,2286,000879_0.553030303030303.png,7,101,live
891,A3RTU5HR290468:3HMVI3QICLZ1KFE8S6QK3T4ZZI3Y13,4069,153367_0.037878787878787845.png,7,102,live
892,A3RTU5HR290468:3HMVI3QICLZ1KFE8S6QK3T4ZZI3Y13,1876,164388_0.5378787878787878.png,7,103,live
893,A3RTU5HR290468:3HMVI3QICLZ1KFE8S6QK3T4ZZI3Y13,2444,200766_-0.25.png,7,104,live
894,A3RTU5HR290468:3HMVI3QICLZ1KFE8S6QK3T4ZZI3Y13,1901,087309_-0.6439393939393939.png,7,105,live
895,A3RTU5HR290468:3HMVI3QICLZ1KFE8S6QK3T4ZZI3Y13,2845,137488_0.25.png,7,106,live
896,A3RTU5HR290468:3HMVI3QICLZ1KFE8S6QK3T4ZZI3Y13,2300,077438_-0.26515151515151514.png,7,107,live
897,A3RTU5HR290468:3HMVI3QICLZ1KFE8S6QK3T4ZZI3Y13,1829,136712_-0.2803030303030303.png,7,108,live
898,A3RTU5HR290468:3HMVI3QICLZ1KFE8S6QK3T4ZZI3Y13,2221,134541_-0.1742424242424242.png,7,109,live
899,A3RTU5HR290468:3HMVI3QICLZ1KFE8S6QK3T4ZZI3Y13,2181,032881_0.18939393939393945.png,7,110,live
900,A36ESW7AECVHK3:3BEFOD78W80IIXMDWLLB7WOV2S24MZ,6869,136712_-0.2803030303030303.png,2,2,live
901,A36ESW7AECVHK3:3BEFOD78W80IIXMDWLLB7WOV2S24MZ,7619,188228_-0.6136363636363636.png,3,3,live
902,A36ESW7AECVHK3:3BEFOD78W80IIXMDWLLB7WOV2S24MZ,6735,000879_0.553030303030303.png,3,4,live
903,A36ESW7AECVHK3:3BEFOD78W80IIXMDWLLB7WOV2S24MZ,8155,177627_-0.32575757575757575.png,4,5,live
904,A36ESW7AECVHK3:3BEFOD78W80IIXMDWLLB7WOV2S24MZ,3866,156683_-0.18939393939393934.png,4,6,live
905,A36ESW7AECVHK3:3BEFOD78W80IIXMDWLLB7WOV2S24MZ,3928,000879_0.553030303030303.png,3,7,live
906,A36ESW7AECVHK3:3BEFOD78W80IIXMDWLLB7WOV2S24MZ,4368,156472_-0.5984848484848485.png,3,8,live
907,A36ESW7AECVHK3:3BEFOD78W80IIXMDWLLB7WOV2S24MZ,6043,057882_0.23484848484848486.png,6,9,live
908,A36ESW7AECVHK3:3BEFOD78W80IIXMDWLLB7WOV2S24MZ,45382,189127_-0.75.png,4,10,live
909,A36ESW7AECVHK3:3BEFOD78W80IIXMDWLLB7WOV2S24MZ,5193,191981_-0.3106060606060606.png,6,11,live
910,A36ESW7AECVHK3:3BEFOD78W80IIXMDWLLB7WOV2S24MZ,6361,097202_0.09848484848484851.png,7,13,live
911,A36ESW7AECVHK3:3BEFOD78W80IIXMDWLLB7WOV2S24MZ,4129,005032_0.46212121212121215.png,9,14,live
912,A36ESW7AECVHK3:3BEFOD78W80IIXMDWLLB7WOV2S24MZ,6303,166562_0.4772727272727273.png,2,15,live
913,A36ESW7AECVHK3:3BEFOD78W80IIXMDWLLB7WOV2S24MZ,5927,195628_-0.4318181818181818.png,2,16,live
914,A36ESW7AECVHK3:3BEFOD78W80IIXMDWLLB7WOV2S24MZ,4607,032881_0.18939393939393945.png,4,17,live
915,A36ESW7AECVHK3:3BEFOD78W80IIXMDWLLB7WOV2S24MZ,9174,175064_0.7196969696969697.png,6,18,live
916,A36ESW7AECVHK3:3BEFOD78W80IIXMDWLLB7WOV2S24MZ,4370,141447_0.15909090909090917.png,9,19,live
917,A36ESW7AECVHK3:3BEFOD78W80IIXMDWLLB7WOV2S24MZ,4771,014683_0.41666666666666674.png,6,20,live
918,A36ESW7AECVHK3:3BEFOD78W80IIXMDWLLB7WOV2S24MZ,7305,111223_-0.23484848484848486.png,3,21,live
919,A36ESW7AECVHK3:3BEFOD78W80IIXMDWLLB7WOV2S24MZ,3332,131605_-0.6742424242424242.png,9,22,live
920,A36ESW7AECVHK3:3BEFOD78W80IIXMDWLLB7WOV2S24MZ,5469,200766_-0.25.png,3,24,live
921,A36ESW7AECVHK3:3BEFOD78W80IIXMDWLLB7WOV2S24MZ,11093,114266_0.5227272727272727.png,1,25,live
922,A36ESW7AECVHK3:3BEFOD78W80IIXMDWLLB7WOV2S24MZ,3736,185401_-0.4621212121212121.png,3,26,live
923,A36ESW7AECVHK3:3BEFOD78W80IIXMDWLLB7WOV2S24MZ,5993,177185_-0.21969696969696972.png,6,27,live
924,A36ESW7AECVHK3:3BEFOD78W80IIXMDWLLB7WOV2S24MZ,6391,134541_-0.1742424242424242.png,7,28,live
925,A36ESW7AECVHK3:3BEFOD78W80IIXMDWLLB7WOV2S24MZ,5941,000570_0.34090909090909083.png,6,29,live
926,A36ESW7AECVHK3:3BEFOD78W80IIXMDWLLB7WOV2S24MZ,17491,062697_0.3560606060606062.png,9,30,live
927,A36ESW7AECVHK3:3BEFOD78W80IIXMDWLLB7WOV2S24MZ,2797,005032_0.46212121212121215.png,9,31,live
928,A36ESW7AECVHK3:3BEFOD78W80IIXMDWLLB7WOV2S24MZ,4913,018930_-0.38636363636363635.png,3,32,live
929,A36ESW7AECVHK3:3BEFOD78W80IIXMDWLLB7WOV2S24MZ,5675,016561_-0.12878787878787878.png,1,33,live
930,A36ESW7AECVHK3:3BEFOD78W80IIXMDWLLB7WOV2S24MZ,27471,124810_-0.44696969696969696.png,9,35,live
931,A36ESW7AECVHK3:3BEFOD78W80IIXMDWLLB7WOV2S24MZ,5756,189047_0.21969696969696972.png,4,36,live
932,A36ESW7AECVHK3:3BEFOD78W80IIXMDWLLB7WOV2S24MZ,3505,010879_-0.6287878787878788.png,7,37,live
933,A36ESW7AECVHK3:3BEFOD78W80IIXMDWLLB7WOV2S24MZ,7443,090214_-0.41666666666666663.png,3,38,live
934,A36ESW7AECVHK3:3BEFOD78W80IIXMDWLLB7WOV2S24MZ,7121,153367_0.037878787878787845.png,2,39,live
935,A36ESW7AECVHK3:3BEFOD78W80IIXMDWLLB7WOV2S24MZ,3116,141447_0.15909090909090917.png,9,40,live
936,A36ESW7AECVHK3:3BEFOD78W80IIXMDWLLB7WOV2S24MZ,3983,077003_0.643939393939394.png,4,41,live
937,A36ESW7AECVHK3:3BEFOD78W80IIXMDWLLB7WOV2S24MZ,4507,190277_0.5984848484848486.png,7,42,live
938,A36ESW7AECVHK3:3BEFOD78W80IIXMDWLLB7WOV2S24MZ,10527,071433_0.4318181818181819.png,3,43,live
939,A36ESW7AECVHK3:3BEFOD78W80IIXMDWLLB7WOV2S24MZ,5338,000907_0.3712121212121213.png,1,44,live
940,A36ESW7AECVHK3:3BEFOD78W80IIXMDWLLB7WOV2S24MZ,4979,006487_0.6590909090909092.png,9,46,live
941,A36ESW7AECVHK3:3BEFOD78W80IIXMDWLLB7WOV2S24MZ,7755,010879_-0.6287878787878788.png,8,47,live
942,A36ESW7AECVHK3:3BEFOD78W80IIXMDWLLB7WOV2S24MZ,5493,181560_-0.3409090909090909.png,2,48,live
943,A36ESW7AECVHK3:3BEFOD78W80IIXMDWLLB7WOV2S24MZ,4770,016561_-0.12878787878787878.png,1,49,live
944,A36ESW7AECVHK3:3BEFOD78W80IIXMDWLLB7WOV2S24MZ,6109,189047_0.21969696969696972.png,3,50,live
945,A36ESW7AECVHK3:3BEFOD78W80IIXMDWLLB7WOV2S24MZ,3411,131605_-0.6742424242424242.png,9,51,live
946,A36ESW7AECVHK3:3BEFOD78W80IIXMDWLLB7WOV2S24MZ,6606,042970_0.75.png,7,52,live
947,A36ESW7AECVHK3:3BEFOD78W80IIXMDWLLB7WOV2S24MZ,8002,087309_-0.6439393939393939.png,5,53,live
948,A36ESW7AECVHK3:3BEFOD78W80IIXMDWLLB7WOV2S24MZ,4613,020547_-0.6590909090909091.png,9,54,live
949,A36ESW7AECVHK3:3BEFOD78W80IIXMDWLLB7WOV2S24MZ,5048,028460_-0.5075757575757576.png,1,55,live
950,A36ESW7AECVHK3:3BEFOD78W80IIXMDWLLB7WOV2S24MZ,5364,182833_-0.007575757575757569.png,8,57,live
951,A36ESW7AECVHK3:3BEFOD78W80IIXMDWLLB7WOV2S24MZ,3501,074250_-0.08333333333333326.png,9,58,live
952,A36ESW7AECVHK3:3BEFOD78W80IIXMDWLLB7WOV2S24MZ,4734,166828_-0.7348484848484849.png,4,59,live
953,A36ESW7AECVHK3:3BEFOD78W80IIXMDWLLB7WOV2S24MZ,3788,058811_0.5681818181818181.png,1,60,live
954,A36ESW7AECVHK3:3BEFOD78W80IIXMDWLLB7WOV2S24MZ,7197,081654_0.20454545454545459.png,7,61,live
955,A36ESW7AECVHK3:3BEFOD78W80IIXMDWLLB7WOV2S24MZ,3905,067107_0.3257575757575757.png,2,62,live
956,A36ESW7AECVHK3:3BEFOD78W80IIXMDWLLB7WOV2S24MZ,5417,176041_-0.7045454545454546.png,6,63,live
957,A36ESW7AECVHK3:3BEFOD78W80IIXMDWLLB7WOV2S24MZ,3866,129472_-0.553030303030303.png,5,64,live
958,A36ESW7AECVHK3:3BEFOD78W80IIXMDWLLB7WOV2S24MZ,5956,101289_0.49242424242424243.png,5,65,live
959,A36ESW7AECVHK3:3BEFOD78W80IIXMDWLLB7WOV2S24MZ,3701,027615_0.053030303030303094.png,9,66,live
960,A36ESW7AECVHK3:3BEFOD78W80IIXMDWLLB7WOV2S24MZ,5094,177185_-0.21969696969696972.png,7,68,live
961,A36ESW7AECVHK3:3BEFOD78W80IIXMDWLLB7WOV2S24MZ,3050,139618_-0.4772727272727273.png,9,69,live
962,A36ESW7AECVHK3:3BEFOD78W80IIXMDWLLB7WOV2S24MZ,2773,006487_0.6590909090909092.png,9,70,live
963,A36ESW7AECVHK3:3BEFOD78W80IIXMDWLLB7WOV2S24MZ,7643,137488_0.25.png,4,71,live
964,A36ESW7AECVHK3:3BEFOD78W80IIXMDWLLB7WOV2S24MZ,4064,017801_-0.037878787878787845.png,6,72,live
965,A36ESW7AECVHK3:3BEFOD78W80IIXMDWLLB7WOV2S24MZ,4576,109193_0.7348484848484849.png,7,73,live
966,A36ESW7AECVHK3:3BEFOD78W80IIXMDWLLB7WOV2S24MZ,6556,042076_-0.7196969696969697.png,3,74,live
967,A36ESW7AECVHK3:3BEFOD78W80IIXMDWLLB7WOV2S24MZ,8232,041147_0.446969696969697.png,4,75,live
968,A36ESW7AECVHK3:3BEFOD78W80IIXMDWLLB7WOV2S24MZ,6701,045041_0.14393939393939392.png,3,76,live
969,A36ESW7AECVHK3:3BEFOD78W80IIXMDWLLB7WOV2S24MZ,2929,045515_0.007575757575757569.png,1,77,live
970,A36ESW7AECVHK3:3BEFOD78W80IIXMDWLLB7WOV2S24MZ,6415,080519_0.31060606060606055.png,1,79,live
971,A36ESW7AECVHK3:3BEFOD78W80IIXMDWLLB7WOV2S24MZ,6645,077003_0.643939393939394.png,5,80,live
972,A36ESW7AECVHK3:3BEFOD78W80IIXMDWLLB7WOV2S24MZ,5534,045041_0.14393939393939392.png,3,81,live
973,A36ESW7AECVHK3:3BEFOD78W80IIXMDWLLB7WOV2S24MZ,3187,062275_0.6287878787878789.png,1,82,live
974,A36ESW7AECVHK3:3BEFOD78W80IIXMDWLLB7WOV2S24MZ,4895,107163_-0.6893939393939394.png,4,83,live
975,A36ESW7AECVHK3:3BEFOD78W80IIXMDWLLB7WOV2S24MZ,5214,044261_-0.15909090909090906.png,3,84,live
976,A36ESW7AECVHK3:3BEFOD78W80IIXMDWLLB7WOV2S24MZ,5019,041492_0.11363636363636365.png,7,85,live
977,A36ESW7AECVHK3:3BEFOD78W80IIXMDWLLB7WOV2S24MZ,3964,181560_-0.3409090909090909.png,2,86,live
978,A36ESW7AECVHK3:3BEFOD78W80IIXMDWLLB7WOV2S24MZ,6936,040377_0.6742424242424243.png,5,87,live
979,A36ESW7AECVHK3:3BEFOD78W80IIXMDWLLB7WOV2S24MZ,4596,108843_-0.3712121212121212.png,4,88,live
980,A36ESW7AECVHK3:3BEFOD78W80IIXMDWLLB7WOV2S24MZ,4164,041147_0.446969696969697.png,4,90,live
981,A36ESW7AECVHK3:3BEFOD78W80IIXMDWLLB7WOV2S24MZ,3821,134541_-0.1742424242424242.png,9,91,live
982,A36ESW7AECVHK3:3BEFOD78W80IIXMDWLLB7WOV2S24MZ,3756,067945_0.1742424242424243.png,4,92,live
983,A36ESW7AECVHK3:3BEFOD78W80IIXMDWLLB7WOV2S24MZ,4363,142408_-0.022727272727272707.png,7,93,live
984,A36ESW7AECVHK3:3BEFOD78W80IIXMDWLLB7WOV2S24MZ,5273,195190_-0.14393939393939392.png,3,94,live
985,A36ESW7AECVHK3:3BEFOD78W80IIXMDWLLB7WOV2S24MZ,5659,077438_-0.26515151515151514.png,6,95,live
986,A36ESW7AECVHK3:3BEFOD78W80IIXMDWLLB7WOV2S24MZ,3724,067107_0.3257575757575757.png,1,96,live
987,A36ESW7AECVHK3:3BEFOD78W80IIXMDWLLB7WOV2S24MZ,2702,062275_0.6287878787878789.png,1,97,live
988,A36ESW7AECVHK3:3BEFOD78W80IIXMDWLLB7WOV2S24MZ,3358,135232_0.26515151515151514.png,9,98,live
989,A36ESW7AECVHK3:3BEFOD78W80IIXMDWLLB7WOV2S24MZ,4142,018930_-0.38636363636363635.png,1,99,live
990,A36ESW7AECVHK3:3BEFOD78W80IIXMDWLLB7WOV2S24MZ,3706,081654_0.20454545454545459.png,7,101,live
991,A36ESW7AECVHK3:3BEFOD78W80IIXMDWLLB7WOV2S24MZ,4570,105621_0.5833333333333335.png,3,102,live
992,A36ESW7AECVHK3:3BEFOD78W80IIXMDWLLB7WOV2S24MZ,5016,077438_-0.26515151515151514.png,7,103,live
993,A36ESW7AECVHK3:3BEFOD78W80IIXMDWLLB7WOV2S24MZ,7935,076120_0.5075757575757576.png,9,104,live
994,A36ESW7AECVHK3:3BEFOD78W80IIXMDWLLB7WOV2S24MZ,6510,164388_0.5378787878787878.png,5,105,live
995,A36ESW7AECVHK3:3BEFOD78W80IIXMDWLLB7WOV2S24MZ,3751,115608_0.08333333333333337.png,3,106,live
996,A36ESW7AECVHK3:3BEFOD78W80IIXMDWLLB7WOV2S24MZ,6439,142363_0.6136363636363638.png,2,107,live
997,A36ESW7AECVHK3:3BEFOD78W80IIXMDWLLB7WOV2S24MZ,4807,182210_-0.49242424242424243.png,2,108,live
998,A36ESW7AECVHK3:3BEFOD78W80IIXMDWLLB7WOV2S24MZ,3990,017801_-0.037878787878787845.png,9,109,live
999,A36ESW7AECVHK3:3BEFOD78W80IIXMDWLLB7WOV2S24MZ,4704,006146_0.12878787878787878.png,1,110,live
1000,A2DHLRV1OE925A:3NVC2EB65S6XUISNFA43RMJWX2IY3W,5432,109193_0.7348484848484849.png,8,2,live
1001,A2DHLRV1OE925A:3NVC2EB65S6XUISNFA43RMJWX2IY3W,2924,108843_-0.3712121212121212.png,7,3,live
1002,A2DHLRV1OE925A:3NVC2EB65S6XUISNFA43RMJWX2IY3W,2390,115608_0.08333333333333337.png,7,4,live
1003,A2DHLRV1OE925A:3NVC2EB65S6XUISNFA43RMJWX2IY3W,1691,067107_0.3257575757575757.png,7,5,live
1004,A2DHLRV1OE925A:3NVC2EB65S6XUISNFA43RMJWX2IY3W,1757,045041_0.14393939393939392.png,6,6,live
1005,A2DHLRV1OE925A:3NVC2EB65S6XUISNFA43RMJWX2IY3W,2101,195190_-0.14393939393939392.png,6,7,live
1006,A2DHLRV1OE925A:3NVC2EB65S6XUISNFA43RMJWX2IY3W,3779,141447_0.15909090909090917.png,6,8,live
1007,A2DHLRV1OE925A:3NVC2EB65S6XUISNFA43RMJWX2IY3W,2591,142408_-0.022727272727272707.png,8,9,live
1008,A2DHLRV1OE925A:3NVC2EB65S6XUISNFA43RMJWX2IY3W,2148,044261_-0.15909090909090906.png,8,10,live
1009,A2DHLRV1OE925A:3NVC2EB65S6XUISNFA43RMJWX2IY3W,3229,071433_0.4318181818181819.png,7,11,live
1010,A2DHLRV1OE925A:3NVC2EB65S6XUISNFA43RMJWX2IY3W,2987,017801_-0.037878787878787845.png,7,13,live
1011,A2DHLRV1OE925A:3NVC2EB65S6XUISNFA43RMJWX2IY3W,2037,166828_-0.7348484848484849.png,8,14,live
1012,A2DHLRV1OE925A:3NVC2EB65S6XUISNFA43RMJWX2IY3W,2501,067945_0.1742424242424243.png,6,15,live
1013,A2DHLRV1OE925A:3NVC2EB65S6XUISNFA43RMJWX2IY3W,3796,176041_-0.7045454545454546.png,7,16,live
1014,A2DHLRV1OE925A:3NVC2EB65S6XUISNFA43RMJWX2IY3W,2143,045515_0.007575757575757569.png,8,17,live
1015,A2DHLRV1OE925A:3NVC2EB65S6XUISNFA43RMJWX2IY3W,3933,134541_-0.1742424242424242.png,6,18,live
1016,A2DHLRV1OE925A:3NVC2EB65S6XUISNFA43RMJWX2IY3W,2349,200766_-0.25.png,7,19,live
1017,A2DHLRV1OE925A:3NVC2EB65S6XUISNFA43RMJWX2IY3W,1878,027615_0.053030303030303094.png,8,20,live
1018,A2DHLRV1OE925A:3NVC2EB65S6XUISNFA43RMJWX2IY3W,2117,135232_0.26515151515151514.png,8,21,live
1019,A2DHLRV1OE925A:3NVC2EB65S6XUISNFA43RMJWX2IY3W,2011,090214_-0.41666666666666663.png,7,22,live
1020,A2DHLRV1OE925A:3NVC2EB65S6XUISNFA43RMJWX2IY3W,2451,077003_0.643939393939394.png,7,24,live
1021,A2DHLRV1OE925A:3NVC2EB65S6XUISNFA43RMJWX2IY3W,2788,018930_-0.38636363636363635.png,8,25,live
1022,A2DHLRV1OE925A:3NVC2EB65S6XUISNFA43RMJWX2IY3W,3502,111223_-0.23484848484848486.png,5,26,live
1023,A2DHLRV1OE925A:3NVC2EB65S6XUISNFA43RMJWX2IY3W,2716,181560_-0.3409090909090909.png,6,27,live
1024,A2DHLRV1OE925A:3NVC2EB65S6XUISNFA43RMJWX2IY3W,2443,062275_0.6287878787878789.png,6,28,live
1025,A2DHLRV1OE925A:3NVC2EB65S6XUISNFA43RMJWX2IY3W,1701,080519_0.31060606060606055.png,6,29,live
1026,A2DHLRV1OE925A:3NVC2EB65S6XUISNFA43RMJWX2IY3W,1685,081654_0.20454545454545459.png,5,30,live
1027,A2DHLRV1OE925A:3NVC2EB65S6XUISNFA43RMJWX2IY3W,2452,077438_-0.26515151515151514.png,6,31,live
1028,A2DHLRV1OE925A:3NVC2EB65S6XUISNFA43RMJWX2IY3W,2414,129472_-0.553030303030303.png,5,32,live
1029,A2DHLRV1OE925A:3NVC2EB65S6XUISNFA43RMJWX2IY3W,2276,131605_-0.6742424242424242.png,6,33,live
1030,A2DHLRV1OE925A:3NVC2EB65S6XUISNFA43RMJWX2IY3W,3245,041147_0.446969696969697.png,6,35,live
1031,A2DHLRV1OE925A:3NVC2EB65S6XUISNFA43RMJWX2IY3W,1806,010879_-0.6287878787878788.png,5,36,live
1032,A2DHLRV1OE925A:3NVC2EB65S6XUISNFA43RMJWX2IY3W,1853,000570_0.34090909090909083.png,6,37,live
1033,A2DHLRV1OE925A:3NVC2EB65S6XUISNFA43RMJWX2IY3W,1812,016561_-0.12878787878787878.png,7,38,live
1034,A2DHLRV1OE925A:3NVC2EB65S6XUISNFA43RMJWX2IY3W,2989,016561_-0.12878787878787878.png,6,39,live
1035,A2DHLRV1OE925A:3NVC2EB65S6XUISNFA43RMJWX2IY3W,2244,191981_-0.3106060606060606.png,7,40,live
1036,A2DHLRV1OE925A:3NVC2EB65S6XUISNFA43RMJWX2IY3W,3900,114266_0.5227272727272727.png,3,41,live
1037,A2DHLRV1OE925A:3NVC2EB65S6XUISNFA43RMJWX2IY3W,2501,177185_-0.21969696969696972.png,5,42,live
1038,A2DHLRV1OE925A:3NVC2EB65S6XUISNFA43RMJWX2IY3W,2028,057882_0.23484848484848486.png,5,43,live
1039,A2DHLRV1OE925A:3NVC2EB65S6XUISNFA43RMJWX2IY3W,1701,077003_0.643939393939394.png,5,44,live
1040,A2DHLRV1OE925A:3NVC2EB65S6XUISNFA43RMJWX2IY3W,2101,190277_0.5984848484848486.png,5,46,live
1041,A2DHLRV1OE925A:3NVC2EB65S6XUISNFA43RMJWX2IY3W,1724,166562_0.4772727272727273.png,4,47,live
1042,A2DHLRV1OE925A:3NVC2EB65S6XUISNFA43RMJWX2IY3W,2764,139618_-0.4772727272727273.png,5,48,live
1043,A2DHLRV1OE925A:3NVC2EB65S6XUISNFA43RMJWX2IY3W,5076,136712_-0.2803030303030303.png,6,49,live
1044,A2DHLRV1OE925A:3NVC2EB65S6XUISNFA43RMJWX2IY3W,2078,067107_0.3257575757575757.png,7,50,live
1045,A2DHLRV1OE925A:3NVC2EB65S6XUISNFA43RMJWX2IY3W,2085,020547_-0.6590909090909091.png,6,51,live
1046,A2DHLRV1OE925A:3NVC2EB65S6XUISNFA43RMJWX2IY3W,2587,105621_0.5833333333333335.png,7,52,live
1047,A2DHLRV1OE925A:3NVC2EB65S6XUISNFA43RMJWX2IY3W,2914,000907_0.3712121212121213.png,8,53,live
1048,A2DHLRV1OE925A:3NVC2EB65S6XUISNFA43RMJWX2IY3W,1886,062275_0.6287878787878789.png,5,54,live
