A17IHC8O946XPF:3MMN5BL1W1BX0139W7GSXRWPOS0M3Q,0,1548202208057,"{""rt"": 21692, ""trial_type"": ""instructions"", ""view_history"": ""[{\""page_index\"":0,\""viewing_time\"":2840},{\""page_index\"":1,\""viewing_time\"":3943},{\""page_index\"":2,\""viewing_time\"":14909}]"", ""task_type"": ""instruction"", ""task_payment"": 1, ""task_version"": 1, ""internal_node_id"": ""0.0-0.0"", ""time_elapsed"": 21696, ""debug_mode"": ""live"", ""task_name"": ""attractive-modifae-single"", ""task_unique_trial"": 100, ""trial_index"": 0}"
A17IHC8O946XPF:3MMN5BL1W1BX0139W7GSXRWPOS0M3Q,1,1548202222556,"{""rt"": 14472, ""trial_type"": ""survey-multi-choice"", ""task_type"": ""demographic-multichoice"", ""responses"": ""{\""Q0\"":\""26-35\"",\""Q1\"":\""Female\"",\""Q2\"":\""No\"",\""Q3\"":\""3\"",\""Q4\"":\""White\"",\""Q5\"":\""Some college, no degree\"",\""Q6\"":\""$50,000 - $74,999\""}"", ""task_payment"": 1, ""task_version"": 1, ""time_elapsed"": 36196, ""sanity_check_1_continue"": true, ""random_num"": 3, ""debug_mode"": ""live"", ""questions"": ""[{\""prompt\"":\""What is your age?\"",\""options\"":[\""Under 18\"",\""18-25\"",\""26-35\"",\""36-45\"",\""46-55\"",\""56+\""],\""required\"":true},{\""prompt\"":\""What is your gender?\"",\""options\"":[\""Male\"",\""Female\"",\""Other/Prefer not to say\""],\""required\"":true},{\""prompt\"":\""Are you of Hispanic, Latino, or Spanish origin?\"",\""options\"":[\""Yes\"",\""No\""],\""required\"":true},{\""prompt\"":\""Please choose the option that matches the number here: 3\"",\""options\"":[\""1\"",\""2\"",\""3\"",\""4\""],\""required\"":true},{\""prompt\"":\""How would you describe yourself?\"",\""options\"":[\""American Indian or Alaskan Native\"",\""Asian\"",\""Black or African-American\"",\""Native Hawaiian or Other Pacific Islander\"",\""White\""],\""required\"":true},{\""prompt\"":\""What is the highest degree or level of school you have completed? (If you&#8217;re currently enrolled in school, please indicate the highest degree you have received)\"",\""options\"":[\""Less than a high school diploma\"",\""High school degree or equivalent (e.g. GED)\"",\""Some college, no degree\"",\""Associate degree (e.g. AA, AS)\"",\""Bachelor&#8217;s degree (e.g. BA, BS) or above\""],\""required\"":true},{\""prompt\"":\""What is the total income of all members of your household?\"",\""options\"":[\""Less than $20,000\"",\""$20,000  - $49,999\"",\""$50,000 - $74,999\"",\""$75,000 and above\""],\""required\"":true}]"", ""internal_node_id"": ""0.0-1.0-0.0"", ""task_unique_trial"": 100, ""task_name"": ""attractive-modifae-single"", ""trial_index"": 1}"
A17IHC8O946XPF:3MMN5BL1W1BX0139W7GSXRWPOS0M3Q,2,1548202226850,"{""rt"": 4289, ""trial_type"": ""face-likert-amanda"", ""debug_mode"": ""live"", ""task_type"": ""face trials"", ""responses"": ""{\""Q0\"":7}"", ""task_payment"": 1, ""task_version"": 1, ""internal_node_id"": ""0.0-2.0-0.0-0.0"", ""time_elapsed"": 40490, ""imgName"": ""/static/images/modifae_new_linspace/attractive/020547_-0.6590909090909091.png"", ""questions"": ""[{\""prompt\"":\""<p>How <b>attractive</b> does this person look to <b>most people</b>? Rate from 1-9</p>\"",\""labels\"":[\""1 <br/>Not attractive at all\"",\""2\"",\""3\"",\""4\"",\""5\"",\""6\"",\""7\"",\""8\"",\""9  <br/>Extremely attractive\""],\""required\"":true}]"", ""task_unique_trial"": 100, ""task_name"": ""attractive-modifae-single"", ""trial_index"": 2, ""isRepeat"": 0}"
A17IHC8O946XPF:3MMN5BL1W1BX0139W7GSXRWPOS0M3Q,3,1548202229879,"{""rt"": 3027, ""trial_type"": ""face-likert-amanda"", ""debug_mode"": ""live"", ""task_type"": ""face trials"", ""responses"": ""{\""Q0\"":5}"", ""task_payment"": 1, ""task_version"": 1, ""internal_node_id"": ""0.0-2.0-0.0-1.0"", ""time_elapsed"": 43520, ""imgName"": ""/static/images/modifae_new_linspace/attractive/156683_-0.18939393939393934.png"", ""questions"": ""[{\""prompt\"":\""<p>How <b>attractive</b> does this person look to <b>most people</b>? Rate from 1-9</p>\"",\""labels\"":[\""1 <br/>Not attractive at all\"",\""2\"",\""3\"",\""4\"",\""5\"",\""6\"",\""7\"",\""8\"",\""9  <br/>Extremely attractive\""],\""required\"":true}]"", ""task_unique_trial"": 100, ""task_name"": ""attractive-modifae-single"", ""trial_index"": 3, ""isRepeat"": 0}"
A17IHC8O946XPF:3MMN5BL1W1BX0139W7GSXRWPOS0M3Q,4,1548202233968,"{""rt"": 4086, ""trial_type"": ""face-likert-amanda"", ""debug_mode"": ""live"", ""task_type"": ""face trials"", ""responses"": ""{\""Q0\"":6}"", ""task_payment"": 1, ""task_version"": 1, ""internal_node_id"": ""0.0-2.0-0.0-2.0"", ""time_elapsed"": 47609, ""imgName"": ""/static/images/modifae_new_linspace/attractive/077003_0.643939393939394.png"", ""questions"": ""[{\""prompt\"":\""<p>How <b>attractive</b> does this person look to <b>most people</b>? Rate from 1-9</p>\"",\""labels\"":[\""1 <br/>Not attractive at all\"",\""2\"",\""3\"",\""4\"",\""5\"",\""6\"",\""7\"",\""8\"",\""9  <br/>Extremely attractive\""],\""required\"":true}]"", ""task_unique_trial"": 100, ""task_name"": ""attractive-modifae-single"", ""trial_index"": 4, ""isRepeat"": 0}"
A17IHC8O946XPF:3MMN5BL1W1BX0139W7GSXRWPOS0M3Q,5,1548202236245,"{""rt"": 2272, ""trial_type"": ""face-likert-amanda"", ""debug_mode"": ""live"", ""task_type"": ""face trials"", ""responses"": ""{\""Q0\"":6}"", ""task_payment"": 1, ""task_version"": 1, ""internal_node_id"": ""0.0-2.0-0.0-3.0"", ""time_elapsed"": 49886, ""imgName"": ""/static/images/modifae_new_linspace/attractive/010879_-0.6287878787878788.png"", ""questions"": ""[{\""prompt\"":\""<p>How <b>attractive</b> does this person look to <b>most people</b>? Rate from 1-9</p>\"",\""labels\"":[\""1 <br/>Not attractive at all\"",\""2\"",\""3\"",\""4\"",\""5\"",\""6\"",\""7\"",\""8\"",\""9  <br/>Extremely attractive\""],\""required\"":true}]"", ""task_unique_trial"": 100, ""task_name"": ""attractive-modifae-single"", ""trial_index"": 5, ""isRepeat"": 0}"
A17IHC8O946XPF:3MMN5BL1W1BX0139W7GSXRWPOS0M3Q,6,1548202240160,"{""rt"": 3913, ""trial_type"": ""face-likert-amanda"", ""debug_mode"": ""live"", ""task_type"": ""face trials"", ""responses"": ""{\""Q0\"":7}"", ""task_payment"": 1, ""task_version"": 1, ""internal_node_id"": ""0.0-2.0-0.0-4.0"", ""time_elapsed"": 53801, ""imgName"": ""/static/images/modifae_new_linspace/attractive/135232_0.26515151515151514.png"", ""questions"": ""[{\""prompt\"":\""<p>How <b>attractive</b> does this person look to <b>most people</b>? Rate from 1-9</p>\"",\""labels\"":[\""1 <br/>Not attractive at all\"",\""2\"",\""3\"",\""4\"",\""5\"",\""6\"",\""7\"",\""8\"",\""9  <br/>Extremely attractive\""],\""required\"":true}]"", ""task_unique_trial"": 100, ""task_name"": ""attractive-modifae-single"", ""trial_index"": 6, ""isRepeat"": 0}"
A17IHC8O946XPF:3MMN5BL1W1BX0139W7GSXRWPOS0M3Q,7,1548202244145,"{""rt"": 3982, ""trial_type"": ""face-likert-amanda"", ""debug_mode"": ""live"", ""task_type"": ""face trials"", ""responses"": ""{\""Q0\"":3}"", ""task_payment"": 1, ""task_version"": 1, ""internal_node_id"": ""0.0-2.0-0.0-5.0"", ""time_elapsed"": 57785, ""imgName"": ""/static/images/modifae_new_linspace/attractive/195628_-0.4318181818181818.png"", ""questions"": ""[{\""prompt\"":\""<p>How <b>attractive</b> does this person look to <b>most people</b>? Rate from 1-9</p>\"",\""labels\"":[\""1 <br/>Not attractive at all\"",\""2\"",\""3\"",\""4\"",\""5\"",\""6\"",\""7\"",\""8\"",\""9  <br/>Extremely attractive\""],\""required\"":true}]"", ""task_unique_trial"": 100, ""task_name"": ""attractive-modifae-single"", ""trial_index"": 7, ""isRepeat"": 0}"
A17IHC8O946XPF:3MMN5BL1W1BX0139W7GSXRWPOS0M3Q,8,1548202246432,"{""rt"": 2284, ""trial_type"": ""face-likert-amanda"", ""debug_mode"": ""live"", ""task_type"": ""face trials"", ""responses"": ""{\""Q0\"":3}"", ""task_payment"": 1, ""task_version"": 1, ""internal_node_id"": ""0.0-2.0-0.0-6.0"", ""time_elapsed"": 60073, ""imgName"": ""/static/images/modifae_new_linspace/attractive/177185_-0.21969696969696972.png"", ""questions"": ""[{\""prompt\"":\""<p>How <b>attractive</b> does this person look to <b>most people</b>? Rate from 1-9</p>\"",\""labels\"":[\""1 <br/>Not attractive at all\"",\""2\"",\""3\"",\""4\"",\""5\"",\""6\"",\""7\"",\""8\"",\""9  <br/>Extremely attractive\""],\""required\"":true}]"", ""task_unique_trial"": 100, ""task_name"": ""attractive-modifae-single"", ""trial_index"": 8, ""isRepeat"": 0}"
A17IHC8O946XPF:3MMN5BL1W1BX0139W7GSXRWPOS0M3Q,9,1548202249583,"{""rt"": 3149, ""trial_type"": ""face-likert-amanda"", ""debug_mode"": ""live"", ""task_type"": ""face trials"", ""responses"": ""{\""Q0\"":4}"", ""task_payment"": 1, ""task_version"": 1, ""internal_node_id"": ""0.0-2.0-0.0-7.0"", ""time_elapsed"": 63224, ""imgName"": ""/static/images/modifae_new_linspace/attractive/067107_0.3257575757575757.png"", ""questions"": ""[{\""prompt\"":\""<p>How <b>attractive</b> does this person look to <b>most people</b>? Rate from 1-9</p>\"",\""labels\"":[\""1 <br/>Not attractive at all\"",\""2\"",\""3\"",\""4\"",\""5\"",\""6\"",\""7\"",\""8\"",\""9  <br/>Extremely attractive\""],\""required\"":true}]"", ""task_unique_trial"": 100, ""task_name"": ""attractive-modifae-single"", ""trial_index"": 9, ""isRepeat"": 0}"
A17IHC8O946XPF:3MMN5BL1W1BX0139W7GSXRWPOS0M3Q,10,1548202251615,"{""rt"": 2029, ""trial_type"": ""face-likert-amanda"", ""debug_mode"": ""live"", ""task_type"": ""face trials"", ""responses"": ""{\""Q0\"":4}"", ""task_payment"": 1, ""task_version"": 1, ""internal_node_id"": ""0.0-2.0-0.0-8.0"", ""time_elapsed"": 65256, ""imgName"": ""/static/images/modifae_new_linspace/attractive/107163_-0.6893939393939394.png"", ""questions"": ""[{\""prompt\"":\""<p>How <b>attractive</b> does this person look to <b>most people</b>? Rate from 1-9</p>\"",\""labels\"":[\""1 <br/>Not attractive at all\"",\""2\"",\""3\"",\""4\"",\""5\"",\""6\"",\""7\"",\""8\"",\""9  <br/>Extremely attractive\""],\""required\"":true}]"", ""task_unique_trial"": 100, ""task_name"": ""attractive-modifae-single"", ""trial_index"": 10, ""isRepeat"": 0}"
A17IHC8O946XPF:3MMN5BL1W1BX0139W7GSXRWPOS0M3Q,11,1548202254328,"{""rt"": 2710, ""trial_type"": ""face-likert-amanda"", ""debug_mode"": ""live"", ""task_type"": ""face trials"", ""responses"": ""{\""Q0\"":5}"", ""task_payment"": 1, ""task_version"": 1, ""internal_node_id"": ""0.0-2.0-0.0-9.0"", ""time_elapsed"": 67969, ""imgName"": ""/static/images/modifae_new_linspace/attractive/087309_-0.6439393939393939.png"", ""questions"": ""[{\""prompt\"":\""<p>How <b>attractive</b> does this person look to <b>most people</b>? Rate from 1-9</p>\"",\""labels\"":[\""1 <br/>Not attractive at all\"",\""2\"",\""3\"",\""4\"",\""5\"",\""6\"",\""7\"",\""8\"",\""9  <br/>Extremely attractive\""],\""required\"":true}]"", ""task_unique_trial"": 100, ""task_name"": ""attractive-modifae-single"", ""trial_index"": 11, ""isRepeat"": 0}"
A17IHC8O946XPF:3MMN5BL1W1BX0139W7GSXRWPOS0M3Q,12,1548202256337,"{""rt"": null, ""trial_type"": ""html-keyboard-response"", ""task_unique_trial"": 100, ""stimulus"": ""<p>Good job!</p>"", ""task_version"": 1, ""internal_node_id"": ""0.0-2.0-1.0"", ""task_payment"": 1, ""time_elapsed"": 69978, ""debug_mode"": ""live"", ""key_press"": null, ""task_name"": ""attractive-modifae-single"", ""trial_index"": 12}"
A17IHC8O946XPF:3MMN5BL1W1BX0139W7GSXRWPOS0M3Q,13,1548202258104,"{""rt"": 1764, ""trial_type"": ""face-likert-amanda"", ""debug_mode"": ""live"", ""task_type"": ""face trials"", ""responses"": ""{\""Q0\"":5}"", ""task_payment"": 1, ""task_version"": 1, ""internal_node_id"": ""0.0-3.0-0.0-0.0"", ""time_elapsed"": 71745, ""imgName"": ""/static/images/modifae_new_linspace/attractive/077438_-0.26515151515151514.png"", ""questions"": ""[{\""prompt\"":\""<p>How <b>attractive</b> does this person look to <b>most people</b>? Rate from 1-9</p>\"",\""labels\"":[\""1 <br/>Not attractive at all\"",\""2\"",\""3\"",\""4\"",\""5\"",\""6\"",\""7\"",\""8\"",\""9  <br/>Extremely attractive\""],\""required\"":true}]"", ""task_unique_trial"": 100, ""task_name"": ""attractive-modifae-single"", ""trial_index"": 13, ""isRepeat"": 0}"
A17IHC8O946XPF:3MMN5BL1W1BX0139W7GSXRWPOS0M3Q,14,1548202260559,"{""rt"": 2452, ""trial_type"": ""face-likert-amanda"", ""debug_mode"": ""live"", ""task_type"": ""face trials"", ""responses"": ""{\""Q0\"":2}"", ""task_payment"": 1, ""task_version"": 1, ""internal_node_id"": ""0.0-3.0-0.0-1.0"", ""time_elapsed"": 74199, ""imgName"": ""/static/images/modifae_new_linspace/attractive/000907_0.3712121212121213.png"", ""questions"": ""[{\""prompt\"":\""<p>How <b>attractive</b> does this person look to <b>most people</b>? Rate from 1-9</p>\"",\""labels\"":[\""1 <br/>Not attractive at all\"",\""2\"",\""3\"",\""4\"",\""5\"",\""6\"",\""7\"",\""8\"",\""9  <br/>Extremely attractive\""],\""required\"":true}]"", ""task_unique_trial"": 100, ""task_name"": ""attractive-modifae-single"", ""trial_index"": 14, ""isRepeat"": 0}"
A17IHC8O946XPF:3MMN5BL1W1BX0139W7GSXRWPOS0M3Q,15,1548202266268,"{""rt"": 5707, ""trial_type"": ""face-likert-amanda"", ""debug_mode"": ""live"", ""task_type"": ""face trials"", ""responses"": ""{\""Q0\"":2}"", ""task_payment"": 1, ""task_version"": 1, ""internal_node_id"": ""0.0-3.0-0.0-2.0"", ""time_elapsed"": 79909, ""imgName"": ""/static/images/modifae_new_linspace/attractive/185401_-0.4621212121212121.png"", ""questions"": ""[{\""prompt\"":\""<p>How <b>attractive</b> does this person look to <b>most people</b>? Rate from 1-9</p>\"",\""labels\"":[\""1 <br/>Not attractive at all\"",\""2\"",\""3\"",\""4\"",\""5\"",\""6\"",\""7\"",\""8\"",\""9  <br/>Extremely attractive\""],\""required\"":true}]"", ""task_unique_trial"": 100, ""task_name"": ""attractive-modifae-single"", ""trial_index"": 15, ""isRepeat"": 0}"
A17IHC8O946XPF:3MMN5BL1W1BX0139W7GSXRWPOS0M3Q,16,1548202268608,"{""rt"": 2338, ""trial_type"": ""face-likert-amanda"", ""debug_mode"": ""live"", ""task_type"": ""face trials"", ""responses"": ""{\""Q0\"":3}"", ""task_payment"": 1, ""task_version"": 1, ""internal_node_id"": ""0.0-3.0-0.0-3.0"", ""time_elapsed"": 82249, ""imgName"": ""/static/images/modifae_new_linspace/attractive/175064_0.7196969696969697.png"", ""questions"": ""[{\""prompt\"":\""<p>How <b>attractive</b> does this person look to <b>most people</b>? Rate from 1-9</p>\"",\""labels\"":[\""1 <br/>Not attractive at all\"",\""2\"",\""3\"",\""4\"",\""5\"",\""6\"",\""7\"",\""8\"",\""9  <br/>Extremely attractive\""],\""required\"":true}]"", ""task_unique_trial"": 100, ""task_name"": ""attractive-modifae-single"", ""trial_index"": 16, ""isRepeat"": 0}"
A17IHC8O946XPF:3MMN5BL1W1BX0139W7GSXRWPOS0M3Q,17,1548202270456,"{""rt"": 1843, ""trial_type"": ""face-likert-amanda"", ""debug_mode"": ""live"", ""task_type"": ""face trials"", ""responses"": ""{\""Q0\"":4}"", ""task_payment"": 1, ""task_version"": 1, ""internal_node_id"": ""0.0-3.0-0.0-4.0"", ""time_elapsed"": 84097, ""imgName"": ""/static/images/modifae_new_linspace/attractive/191981_-0.3106060606060606.png"", ""questions"": ""[{\""prompt\"":\""<p>How <b>attractive</b> does this person look to <b>most people</b>? Rate from 1-9</p>\"",\""labels\"":[\""1 <br/>Not attractive at all\"",\""2\"",\""3\"",\""4\"",\""5\"",\""6\"",\""7\"",\""8\"",\""9  <br/>Extremely attractive\""],\""required\"":true}]"", ""task_unique_trial"": 100, ""task_name"": ""attractive-modifae-single"", ""trial_index"": 17, ""isRepeat"": 0}"
A17IHC8O946XPF:3MMN5BL1W1BX0139W7GSXRWPOS0M3Q,18,1548202271590,"{""rt"": 1131, ""trial_type"": ""face-likert-amanda"", ""debug_mode"": ""live"", ""task_type"": ""face trials"", ""responses"": ""{\""Q0\"":4}"", ""task_payment"": 1, ""task_version"": 1, ""internal_node_id"": ""0.0-3.0-0.0-5.0"", ""time_elapsed"": 85231, ""imgName"": ""/static/images/modifae_new_linspace/attractive/177627_-0.32575757575757575.png"", ""questions"": ""[{\""prompt\"":\""<p>How <b>attractive</b> does this person look to <b>most people</b>? Rate from 1-9</p>\"",\""labels\"":[\""1 <br/>Not attractive at all\"",\""2\"",\""3\"",\""4\"",\""5\"",\""6\"",\""7\"",\""8\"",\""9  <br/>Extremely attractive\""],\""required\"":true}]"", ""task_unique_trial"": 100, ""task_name"": ""attractive-modifae-single"", ""trial_index"": 18, ""isRepeat"": 0}"
A17IHC8O946XPF:3MMN5BL1W1BX0139W7GSXRWPOS0M3Q,19,1548202272836,"{""rt"": 1244, ""trial_type"": ""face-likert-amanda"", ""debug_mode"": ""live"", ""task_type"": ""face trials"", ""responses"": ""{\""Q0\"":4}"", ""task_payment"": 1, ""task_version"": 1, ""internal_node_id"": ""0.0-3.0-0.0-6.0"", ""time_elapsed"": 86477, ""imgName"": ""/static/images/modifae_new_linspace/attractive/041147_0.446969696969697.png"", ""questions"": ""[{\""prompt\"":\""<p>How <b>attractive</b> does this person look to <b>most people</b>? Rate from 1-9</p>\"",\""labels\"":[\""1 <br/>Not attractive at all\"",\""2\"",\""3\"",\""4\"",\""5\"",\""6\"",\""7\"",\""8\"",\""9  <br/>Extremely attractive\""],\""required\"":true}]"", ""task_unique_trial"": 100, ""task_name"": ""attractive-modifae-single"", ""trial_index"": 19, ""isRepeat"": 0}"
A17IHC8O946XPF:3MMN5BL1W1BX0139W7GSXRWPOS0M3Q,20,1548202274389,"{""rt"": 1551, ""trial_type"": ""face-likert-amanda"", ""debug_mode"": ""live"", ""task_type"": ""face trials"", ""responses"": ""{\""Q0\"":5}"", ""task_payment"": 1, ""task_version"": 1, ""internal_node_id"": ""0.0-3.0-0.0-7.0"", ""time_elapsed"": 88030, ""imgName"": ""/static/images/modifae_new_linspace/attractive/040377_0.6742424242424243.png"", ""questions"": ""[{\""prompt\"":\""<p>How <b>attractive</b> does this person look to <b>most people</b>? Rate from 1-9</p>\"",\""labels\"":[\""1 <br/>Not attractive at all\"",\""2\"",\""3\"",\""4\"",\""5\"",\""6\"",\""7\"",\""8\"",\""9  <br/>Extremely attractive\""],\""required\"":true}]"", ""task_unique_trial"": 100, ""task_name"": ""attractive-modifae-single"", ""trial_index"": 20, ""isRepeat"": 0}"
A17IHC8O946XPF:3MMN5BL1W1BX0139W7GSXRWPOS0M3Q,21,1548202275454,"{""rt"": 1061, ""trial_type"": ""face-likert-amanda"", ""debug_mode"": ""live"", ""task_type"": ""face trials"", ""responses"": ""{\""Q0\"":5}"", ""task_payment"": 1, ""task_version"": 1, ""internal_node_id"": ""0.0-3.0-0.0-8.0"", ""time_elapsed"": 89095, ""imgName"": ""/static/images/modifae_new_linspace/attractive/077438_-0.26515151515151514.png"", ""questions"": ""[{\""prompt\"":\""<p>How <b>attractive</b> does this person look to <b>most people</b>? Rate from 1-9</p>\"",\""labels\"":[\""1 <br/>Not attractive at all\"",\""2\"",\""3\"",\""4\"",\""5\"",\""6\"",\""7\"",\""8\"",\""9  <br/>Extremely attractive\""],\""required\"":true}]"", ""task_unique_trial"": 100, ""task_name"": ""attractive-modifae-single"", ""trial_index"": 21, ""isRepeat"": 0}"
A17IHC8O946XPF:3MMN5BL1W1BX0139W7GSXRWPOS0M3Q,22,1548202276769,"{""rt"": 1313, ""trial_type"": ""face-likert-amanda"", ""debug_mode"": ""live"", ""task_type"": ""face trials"", ""responses"": ""{\""Q0\"":5}"", ""task_payment"": 1, ""task_version"": 1, ""internal_node_id"": ""0.0-3.0-0.0-9.0"", ""time_elapsed"": 90410, ""imgName"": ""/static/images/modifae_new_linspace/attractive/000879_0.553030303030303.png"", ""questions"": ""[{\""prompt\"":\""<p>How <b>attractive</b> does this person look to <b>most people</b>? Rate from 1-9</p>\"",\""labels\"":[\""1 <br/>Not attractive at all\"",\""2\"",\""3\"",\""4\"",\""5\"",\""6\"",\""7\"",\""8\"",\""9  <br/>Extremely attractive\""],\""required\"":true}]"", ""task_unique_trial"": 100, ""task_name"": ""attractive-modifae-single"", ""trial_index"": 22, ""isRepeat"": 0}"
A17IHC8O946XPF:3MMN5BL1W1BX0139W7GSXRWPOS0M3Q,23,1548202277775,"{""rt"": null, ""trial_type"": ""html-keyboard-response"", ""task_unique_trial"": 100, ""stimulus"": ""<p>Good job!</p>"", ""task_version"": 1, ""internal_node_id"": ""0.0-3.0-1.0"", ""task_payment"": 1, ""time_elapsed"": 91416, ""debug_mode"": ""live"", ""key_press"": null, ""task_name"": ""attractive-modifae-single"", ""trial_index"": 23}"
A17IHC8O946XPF:3MMN5BL1W1BX0139W7GSXRWPOS0M3Q,24,1548202278854,"{""rt"": 1077, ""trial_type"": ""face-likert-amanda"", ""debug_mode"": ""live"", ""task_type"": ""face trials"", ""responses"": ""{\""Q0\"":5}"", ""task_payment"": 1, ""task_version"": 1, ""internal_node_id"": ""0.0-4.0-0.0-0.0"", ""time_elapsed"": 92495, ""imgName"": ""/static/images/modifae_new_linspace/attractive/177185_-0.21969696969696972.png"", ""questions"": ""[{\""prompt\"":\""<p>How <b>attractive</b> does this person look to <b>most people</b>? Rate from 1-9</p>\"",\""labels\"":[\""1 <br/>Not attractive at all\"",\""2\"",\""3\"",\""4\"",\""5\"",\""6\"",\""7\"",\""8\"",\""9  <br/>Extremely attractive\""],\""required\"":true}]"", ""task_unique_trial"": 100, ""task_name"": ""attractive-modifae-single"", ""trial_index"": 24, ""isRepeat"": 0}"
A17IHC8O946XPF:3MMN5BL1W1BX0139W7GSXRWPOS0M3Q,25,1548202282798,"{""rt"": 3941, ""trial_type"": ""face-likert-amanda"", ""debug_mode"": ""live"", ""task_type"": ""face trials"", ""responses"": ""{\""Q0\"":7}"", ""task_payment"": 1, ""task_version"": 1, ""internal_node_id"": ""0.0-4.0-0.0-1.0"", ""time_elapsed"": 96439, ""imgName"": ""/static/images/modifae_new_linspace/attractive/190277_0.5984848484848486.png"", ""questions"": ""[{\""prompt\"":\""<p>How <b>attractive</b> does this person look to <b>most people</b>? Rate from 1-9</p>\"",\""labels\"":[\""1 <br/>Not attractive at all\"",\""2\"",\""3\"",\""4\"",\""5\"",\""6\"",\""7\"",\""8\"",\""9  <br/>Extremely attractive\""],\""required\"":true}]"", ""task_unique_trial"": 100, ""task_name"": ""attractive-modifae-single"", ""trial_index"": 25, ""isRepeat"": 0}"
A17IHC8O946XPF:3MMN5BL1W1BX0139W7GSXRWPOS0M3Q,26,1548202284142,"{""rt"": 1342, ""trial_type"": ""face-likert-amanda"", ""debug_mode"": ""live"", ""task_type"": ""face trials"", ""responses"": ""{\""Q0\"":7}"", ""task_payment"": 1, ""task_version"": 1, ""internal_node_id"": ""0.0-4.0-0.0-2.0"", ""time_elapsed"": 97783, ""imgName"": ""/static/images/modifae_new_linspace/attractive/131605_-0.6742424242424242.png"", ""questions"": ""[{\""prompt\"":\""<p>How <b>attractive</b> does this person look to <b>most people</b>? Rate from 1-9</p>\"",\""labels\"":[\""1 <br/>Not attractive at all\"",\""2\"",\""3\"",\""4\"",\""5\"",\""6\"",\""7\"",\""8\"",\""9  <br/>Extremely attractive\""],\""required\"":true}]"", ""task_unique_trial"": 100, ""task_name"": ""attractive-modifae-single"", ""trial_index"": 26, ""isRepeat"": 0}"
A17IHC8O946XPF:3MMN5BL1W1BX0139W7GSXRWPOS0M3Q,27,1548202285235,"{""rt"": 1091, ""trial_type"": ""face-likert-amanda"", ""debug_mode"": ""live"", ""task_type"": ""face trials"", ""responses"": ""{\""Q0\"":7}"", ""task_payment"": 1, ""task_version"": 1, ""internal_node_id"": ""0.0-4.0-0.0-3.0"", ""time_elapsed"": 98876, ""imgName"": ""/static/images/modifae_new_linspace/attractive/164388_0.5378787878787878.png"", ""questions"": ""[{\""prompt\"":\""<p>How <b>attractive</b> does this person look to <b>most people</b>? Rate from 1-9</p>\"",\""labels\"":[\""1 <br/>Not attractive at all\"",\""2\"",\""3\"",\""4\"",\""5\"",\""6\"",\""7\"",\""8\"",\""9  <br/>Extremely attractive\""],\""required\"":true}]"", ""task_unique_trial"": 100, ""task_name"": ""attractive-modifae-single"", ""trial_index"": 27, ""isRepeat"": 0}"
A17IHC8O946XPF:3MMN5BL1W1BX0139W7GSXRWPOS0M3Q,28,1548202286269,"{""rt"": 1030, ""trial_type"": ""face-likert-amanda"", ""debug_mode"": ""live"", ""task_type"": ""face trials"", ""responses"": ""{\""Q0\"":7}"", ""task_payment"": 1, ""task_version"": 1, ""internal_node_id"": ""0.0-4.0-0.0-4.0"", ""time_elapsed"": 99910, ""imgName"": ""/static/images/modifae_new_linspace/attractive/200766_-0.25.png"", ""questions"": ""[{\""prompt\"":\""<p>How <b>attractive</b> does this person look to <b>most people</b>? Rate from 1-9</p>\"",\""labels\"":[\""1 <br/>Not attractive at all\"",\""2\"",\""3\"",\""4\"",\""5\"",\""6\"",\""7\"",\""8\"",\""9  <br/>Extremely attractive\""],\""required\"":true}]"", ""task_unique_trial"": 100, ""task_name"": ""attractive-modifae-single"", ""trial_index"": 28, ""isRepeat"": 0}"
A17IHC8O946XPF:3MMN5BL1W1BX0139W7GSXRWPOS0M3Q,29,1548202287638,"{""rt"": 1366, ""trial_type"": ""face-likert-amanda"", ""debug_mode"": ""live"", ""task_type"": ""face trials"", ""responses"": ""{\""Q0\"":7}"", ""task_payment"": 1, ""task_version"": 1, ""internal_node_id"": ""0.0-4.0-0.0-5.0"", ""time_elapsed"": 101279, ""imgName"": ""/static/images/modifae_new_linspace/attractive/139618_-0.4772727272727273.png"", ""questions"": ""[{\""prompt\"":\""<p>How <b>attractive</b> does this person look to <b>most people</b>? Rate from 1-9</p>\"",\""labels\"":[\""1 <br/>Not attractive at all\"",\""2\"",\""3\"",\""4\"",\""5\"",\""6\"",\""7\"",\""8\"",\""9  <br/>Extremely attractive\""],\""required\"":true}]"", ""task_unique_trial"": 100, ""task_name"": ""attractive-modifae-single"", ""trial_index"": 29, ""isRepeat"": 0}"
A17IHC8O946XPF:3MMN5BL1W1BX0139W7GSXRWPOS0M3Q,30,1548202290357,"{""rt"": 2717, ""trial_type"": ""face-likert-amanda"", ""debug_mode"": ""live"", ""task_type"": ""face trials"", ""responses"": ""{\""Q0\"":4}"", ""task_payment"": 1, ""task_version"": 1, ""internal_node_id"": ""0.0-4.0-0.0-6.0"", ""time_elapsed"": 103997, ""imgName"": ""/static/images/modifae_new_linspace/attractive/124810_-0.44696969696969696.png"", ""questions"": ""[{\""prompt\"":\""<p>How <b>attractive</b> does this person look to <b>most people</b>? Rate from 1-9</p>\"",\""labels\"":[\""1 <br/>Not attractive at all\"",\""2\"",\""3\"",\""4\"",\""5\"",\""6\"",\""7\"",\""8\"",\""9  <br/>Extremely attractive\""],\""required\"":true}]"", ""task_unique_trial"": 100, ""task_name"": ""attractive-modifae-single"", ""trial_index"": 30, ""isRepeat"": 0}"
A17IHC8O946XPF:3MMN5BL1W1BX0139W7GSXRWPOS0M3Q,31,1548202291581,"{""rt"": 1221, ""trial_type"": ""face-likert-amanda"", ""debug_mode"": ""live"", ""task_type"": ""face trials"", ""responses"": ""{\""Q0\"":4}"", ""task_payment"": 1, ""task_version"": 1, ""internal_node_id"": ""0.0-4.0-0.0-7.0"", ""time_elapsed"": 105222, ""imgName"": ""/static/images/modifae_new_linspace/attractive/182210_-0.49242424242424243.png"", ""questions"": ""[{\""prompt\"":\""<p>How <b>attractive</b> does this person look to <b>most people</b>? Rate from 1-9</p>\"",\""labels\"":[\""1 <br/>Not attractive at all\"",\""2\"",\""3\"",\""4\"",\""5\"",\""6\"",\""7\"",\""8\"",\""9  <br/>Extremely attractive\""],\""required\"":true}]"", ""task_unique_trial"": 100, ""task_name"": ""attractive-modifae-single"", ""trial_index"": 31, ""isRepeat"": 0}"
A17IHC8O946XPF:3MMN5BL1W1BX0139W7GSXRWPOS0M3Q,32,1548202293901,"{""rt"": 2317, ""trial_type"": ""face-likert-amanda"", ""debug_mode"": ""live"", ""task_type"": ""face trials"", ""responses"": ""{\""Q0\"":6}"", ""task_payment"": 1, ""task_version"": 1, ""internal_node_id"": ""0.0-4.0-0.0-8.0"", ""time_elapsed"": 107542, ""imgName"": ""/static/images/modifae_new_linspace/attractive/176041_-0.7045454545454546.png"", ""questions"": ""[{\""prompt\"":\""<p>How <b>attractive</b> does this person look to <b>most people</b>? Rate from 1-9</p>\"",\""labels\"":[\""1 <br/>Not attractive at all\"",\""2\"",\""3\"",\""4\"",\""5\"",\""6\"",\""7\"",\""8\"",\""9  <br/>Extremely attractive\""],\""required\"":true}]"", ""task_unique_trial"": 100, ""task_name"": ""attractive-modifae-single"", ""trial_index"": 32, ""isRepeat"": 0}"
A17IHC8O946XPF:3MMN5BL1W1BX0139W7GSXRWPOS0M3Q,33,1548202296693,"{""rt"": 2788, ""trial_type"": ""face-likert-amanda"", ""debug_mode"": ""live"", ""task_type"": ""face trials"", ""responses"": ""{\""Q0\"":1}"", ""task_payment"": 1, ""task_version"": 1, ""internal_node_id"": ""0.0-4.0-0.0-9.0"", ""time_elapsed"": 110333, ""imgName"": ""/static/images/modifae_new_linspace/attractive/080519_0.31060606060606055.png"", ""questions"": ""[{\""prompt\"":\""<p>How <b>attractive</b> does this person look to <b>most people</b>? Rate from 1-9</p>\"",\""labels\"":[\""1 <br/>Not attractive at all\"",\""2\"",\""3\"",\""4\"",\""5\"",\""6\"",\""7\"",\""8\"",\""9  <br/>Extremely attractive\""],\""required\"":true}]"", ""task_unique_trial"": 100, ""task_name"": ""attractive-modifae-single"", ""trial_index"": 33, ""isRepeat"": 0}"
A17IHC8O946XPF:3MMN5BL1W1BX0139W7GSXRWPOS0M3Q,34,1548202298195,"{""rt"": null, ""trial_type"": ""html-keyboard-response"", ""task_unique_trial"": 100, ""stimulus"": ""<p>Good job!</p>"", ""task_version"": 1, ""internal_node_id"": ""0.0-4.0-1.0"", ""task_payment"": 1, ""time_elapsed"": 111836, ""debug_mode"": ""live"", ""key_press"": null, ""task_name"": ""attractive-modifae-single"", ""trial_index"": 34}"
A17IHC8O946XPF:3MMN5BL1W1BX0139W7GSXRWPOS0M3Q,35,1548202300908,"{""rt"": 2710, ""trial_type"": ""face-likert-amanda"", ""debug_mode"": ""live"", ""task_type"": ""face trials"", ""responses"": ""{\""Q0\"":4}"", ""task_payment"": 1, ""task_version"": 1, ""internal_node_id"": ""0.0-5.0-0.0-0.0"", ""time_elapsed"": 114549, ""imgName"": ""/static/images/modifae_new_linspace/attractive/045515_0.007575757575757569.png"", ""questions"": ""[{\""prompt\"":\""<p>How <b>attractive</b> does this person look to <b>most people</b>? Rate from 1-9</p>\"",\""labels\"":[\""1 <br/>Not attractive at all\"",\""2\"",\""3\"",\""4\"",\""5\"",\""6\"",\""7\"",\""8\"",\""9  <br/>Extremely attractive\""],\""required\"":true}]"", ""task_unique_trial"": 100, ""task_name"": ""attractive-modifae-single"", ""trial_index"": 35, ""isRepeat"": 0}"
A17IHC8O946XPF:3MMN5BL1W1BX0139W7GSXRWPOS0M3Q,36,1548202301941,"{""rt"": 1029, ""trial_type"": ""face-likert-amanda"", ""debug_mode"": ""live"", ""task_type"": ""face trials"", ""responses"": ""{\""Q0\"":4}"", ""task_payment"": 1, ""task_version"": 1, ""internal_node_id"": ""0.0-5.0-0.0-1.0"", ""time_elapsed"": 115582, ""imgName"": ""/static/images/modifae_new_linspace/attractive/076120_0.5075757575757576.png"", ""questions"": ""[{\""prompt\"":\""<p>How <b>attractive</b> does this person look to <b>most people</b>? Rate from 1-9</p>\"",\""labels\"":[\""1 <br/>Not attractive at all\"",\""2\"",\""3\"",\""4\"",\""5\"",\""6\"",\""7\"",\""8\"",\""9  <br/>Extremely attractive\""],\""required\"":true}]"", ""task_unique_trial"": 100, ""task_name"": ""attractive-modifae-single"", ""trial_index"": 36, ""isRepeat"": 0}"
A17IHC8O946XPF:3MMN5BL1W1BX0139W7GSXRWPOS0M3Q,37,1548202303462,"{""rt"": 1519, ""trial_type"": ""face-likert-amanda"", ""debug_mode"": ""live"", ""task_type"": ""face trials"", ""responses"": ""{\""Q0\"":4}"", ""task_payment"": 1, ""task_version"": 1, ""internal_node_id"": ""0.0-5.0-0.0-2.0"", ""time_elapsed"": 117103, ""imgName"": ""/static/images/modifae_new_linspace/attractive/074250_-0.08333333333333326.png"", ""questions"": ""[{\""prompt\"":\""<p>How <b>attractive</b> does this person look to <b>most people</b>? Rate from 1-9</p>\"",\""labels\"":[\""1 <br/>Not attractive at all\"",\""2\"",\""3\"",\""4\"",\""5\"",\""6\"",\""7\"",\""8\"",\""9  <br/>Extremely attractive\""],\""required\"":true}]"", ""task_unique_trial"": 100, ""task_name"": ""attractive-modifae-single"", ""trial_index"": 37, ""isRepeat"": 0}"
A17IHC8O946XPF:3MMN5BL1W1BX0139W7GSXRWPOS0M3Q,38,1548202305501,"{""rt"": 2036, ""trial_type"": ""face-likert-amanda"", ""debug_mode"": ""live"", ""task_type"": ""face trials"", ""responses"": ""{\""Q0\"":5}"", ""task_payment"": 1, ""task_version"": 1, ""internal_node_id"": ""0.0-5.0-0.0-3.0"", ""time_elapsed"": 119142, ""imgName"": ""/static/images/modifae_new_linspace/attractive/042970_0.75.png"", ""questions"": ""[{\""prompt\"":\""<p>How <b>attractive</b> does this person look to <b>most people</b>? Rate from 1-9</p>\"",\""labels\"":[\""1 <br/>Not attractive at all\"",\""2\"",\""3\"",\""4\"",\""5\"",\""6\"",\""7\"",\""8\"",\""9  <br/>Extremely attractive\""],\""required\"":true}]"", ""task_unique_trial"": 100, ""task_name"": ""attractive-modifae-single"", ""trial_index"": 38, ""isRepeat"": 0}"
A17IHC8O946XPF:3MMN5BL1W1BX0139W7GSXRWPOS0M3Q,39,1548202307813,"{""rt"": 2309, ""trial_type"": ""face-likert-amanda"", ""debug_mode"": ""live"", ""task_type"": ""face trials"", ""responses"": ""{\""Q0\"":3}"", ""task_payment"": 1, ""task_version"": 1, ""internal_node_id"": ""0.0-5.0-0.0-4.0"", ""time_elapsed"": 121454, ""imgName"": ""/static/images/modifae_new_linspace/attractive/189047_0.21969696969696972.png"", ""questions"": ""[{\""prompt\"":\""<p>How <b>attractive</b> does this person look to <b>most people</b>? Rate from 1-9</p>\"",\""labels\"":[\""1 <br/>Not attractive at all\"",\""2\"",\""3\"",\""4\"",\""5\"",\""6\"",\""7\"",\""8\"",\""9  <br/>Extremely attractive\""],\""required\"":true}]"", ""task_unique_trial"": 100, ""task_name"": ""attractive-modifae-single"", ""trial_index"": 39, ""isRepeat"": 0}"
A17IHC8O946XPF:3MMN5BL1W1BX0139W7GSXRWPOS0M3Q,40,1548202311893,"{""rt"": 4076, ""trial_type"": ""face-likert-amanda"", ""debug_mode"": ""live"", ""task_type"": ""face trials"", ""responses"": ""{\""Q0\"":5}"", ""task_payment"": 1, ""task_version"": 1, ""internal_node_id"": ""0.0-5.0-0.0-5.0"", ""time_elapsed"": 125534, ""imgName"": ""/static/images/modifae_new_linspace/attractive/067107_0.3257575757575757.png"", ""questions"": ""[{\""prompt\"":\""<p>How <b>attractive</b> does this person look to <b>most people</b>? Rate from 1-9</p>\"",\""labels\"":[\""1 <br/>Not attractive at all\"",\""2\"",\""3\"",\""4\"",\""5\"",\""6\"",\""7\"",\""8\"",\""9  <br/>Extremely attractive\""],\""required\"":true}]"", ""task_unique_trial"": 100, ""task_name"": ""attractive-modifae-single"", ""trial_index"": 40, ""isRepeat"": 0}"
A17IHC8O946XPF:3MMN5BL1W1BX0139W7GSXRWPOS0M3Q,41,1548202314093,"{""rt"": 2198, ""trial_type"": ""face-likert-amanda"", ""debug_mode"": ""live"", ""task_type"": ""face trials"", ""responses"": ""{\""Q0\"":4}"", ""task_payment"": 1, ""task_version"": 1, ""internal_node_id"": ""0.0-5.0-0.0-6.0"", ""time_elapsed"": 127734, ""imgName"": ""/static/images/modifae_new_linspace/attractive/115608_0.08333333333333337.png"", ""questions"": ""[{\""prompt\"":\""<p>How <b>attractive</b> does this person look to <b>most people</b>? Rate from 1-9</p>\"",\""labels\"":[\""1 <br/>Not attractive at all\"",\""2\"",\""3\"",\""4\"",\""5\"",\""6\"",\""7\"",\""8\"",\""9  <br/>Extremely attractive\""],\""required\"":true}]"", ""task_unique_trial"": 100, ""task_name"": ""attractive-modifae-single"", ""trial_index"": 41, ""isRepeat"": 0}"
A17IHC8O946XPF:3MMN5BL1W1BX0139W7GSXRWPOS0M3Q,42,1548202315436,"{""rt"": 1340, ""trial_type"": ""face-likert-amanda"", ""debug_mode"": ""live"", ""task_type"": ""face trials"", ""responses"": ""{\""Q0\"":4}"", ""task_payment"": 1, ""task_version"": 1, ""internal_node_id"": ""0.0-5.0-0.0-7.0"", ""time_elapsed"": 129077, ""imgName"": ""/static/images/modifae_new_linspace/attractive/142363_0.6136363636363638.png"", ""questions"": ""[{\""prompt\"":\""<p>How <b>attractive</b> does this person look to <b>most people</b>? Rate from 1-9</p>\"",\""labels\"":[\""1 <br/>Not attractive at all\"",\""2\"",\""3\"",\""4\"",\""5\"",\""6\"",\""7\"",\""8\"",\""9  <br/>Extremely attractive\""],\""required\"":true}]"", ""task_unique_trial"": 100, ""task_name"": ""attractive-modifae-single"", ""trial_index"": 42, ""isRepeat"": 0}"
A17IHC8O946XPF:3MMN5BL1W1BX0139W7GSXRWPOS0M3Q,43,1548202316516,"{""rt"": 1077, ""trial_type"": ""face-likert-amanda"", ""debug_mode"": ""live"", ""task_type"": ""face trials"", ""responses"": ""{\""Q0\"":4}"", ""task_payment"": 1, ""task_version"": 1, ""internal_node_id"": ""0.0-5.0-0.0-8.0"", ""time_elapsed"": 130156, ""imgName"": ""/static/images/modifae_new_linspace/attractive/137488_0.25.png"", ""questions"": ""[{\""prompt\"":\""<p>How <b>attractive</b> does this person look to <b>most people</b>? Rate from 1-9</p>\"",\""labels\"":[\""1 <br/>Not attractive at all\"",\""2\"",\""3\"",\""4\"",\""5\"",\""6\"",\""7\"",\""8\"",\""9  <br/>Extremely attractive\""],\""required\"":true}]"", ""task_unique_trial"": 100, ""task_name"": ""attractive-modifae-single"", ""trial_index"": 43, ""isRepeat"": 0}"
A17IHC8O946XPF:3MMN5BL1W1BX0139W7GSXRWPOS0M3Q,44,1548202319564,"{""rt"": 3046, ""trial_type"": ""face-likert-amanda"", ""debug_mode"": ""live"", ""task_type"": ""face trials"", ""responses"": ""{\""Q0\"":5}"", ""task_payment"": 1, ""task_version"": 1, ""internal_node_id"": ""0.0-5.0-0.0-9.0"", ""time_elapsed"": 133205, ""imgName"": ""/static/images/modifae_new_linspace/attractive/108843_-0.3712121212121212.png"", ""questions"": ""[{\""prompt\"":\""<p>How <b>attractive</b> does this person look to <b>most people</b>? Rate from 1-9</p>\"",\""labels\"":[\""1 <br/>Not attractive at all\"",\""2\"",\""3\"",\""4\"",\""5\"",\""6\"",\""7\"",\""8\"",\""9  <br/>Extremely attractive\""],\""required\"":true}]"", ""task_unique_trial"": 100, ""task_name"": ""attractive-modifae-single"", ""trial_index"": 44, ""isRepeat"": 0}"
A17IHC8O946XPF:3MMN5BL1W1BX0139W7GSXRWPOS0M3Q,45,1548202321569,"{""rt"": null, ""trial_type"": ""html-keyboard-response"", ""task_unique_trial"": 100, ""stimulus"": ""<p>Good job!</p>"", ""task_version"": 1, ""internal_node_id"": ""0.0-5.0-1.0"", ""task_payment"": 1, ""time_elapsed"": 135210, ""debug_mode"": ""live"", ""key_press"": null, ""task_name"": ""attractive-modifae-single"", ""trial_index"": 45}"
A17IHC8O946XPF:3MMN5BL1W1BX0139W7GSXRWPOS0M3Q,46,1548202324682,"{""rt"": 3111, ""trial_type"": ""face-likert-amanda"", ""debug_mode"": ""live"", ""task_type"": ""face trials"", ""responses"": ""{\""Q0\"":6}"", ""task_payment"": 1, ""task_version"": 1, ""internal_node_id"": ""0.0-6.0-0.0-0.0"", ""time_elapsed"": 138323, ""imgName"": ""/static/images/modifae_new_linspace/attractive/111223_-0.23484848484848486.png"", ""questions"": ""[{\""prompt\"":\""<p>How <b>attractive</b> does this person look to <b>most people</b>? Rate from 1-9</p>\"",\""labels\"":[\""1 <br/>Not attractive at all\"",\""2\"",\""3\"",\""4\"",\""5\"",\""6\"",\""7\"",\""8\"",\""9  <br/>Extremely attractive\""],\""required\"":true}]"", ""task_unique_trial"": 100, ""task_name"": ""attractive-modifae-single"", ""trial_index"": 46, ""isRepeat"": 0}"
A17IHC8O946XPF:3MMN5BL1W1BX0139W7GSXRWPOS0M3Q,47,1548202329372,"{""rt"": 4686, ""trial_type"": ""face-likert-amanda"", ""debug_mode"": ""live"", ""task_type"": ""face trials"", ""responses"": ""{\""Q0\"":3}"", ""task_payment"": 1, ""task_version"": 1, ""internal_node_id"": ""0.0-6.0-0.0-1.0"", ""time_elapsed"": 143013, ""imgName"": ""/static/images/modifae_new_linspace/attractive/188228_-0.6136363636363636.png"", ""questions"": ""[{\""prompt\"":\""<p>How <b>attractive</b> does this person look to <b>most people</b>? Rate from 1-9</p>\"",\""labels\"":[\""1 <br/>Not attractive at all\"",\""2\"",\""3\"",\""4\"",\""5\"",\""6\"",\""7\"",\""8\"",\""9  <br/>Extremely attractive\""],\""required\"":true}]"", ""task_unique_trial"": 100, ""task_name"": ""attractive-modifae-single"", ""trial_index"": 47, ""isRepeat"": 0}"
A17IHC8O946XPF:3MMN5BL1W1BX0139W7GSXRWPOS0M3Q,48,1548202330453,"{""rt"": 1079, ""trial_type"": ""face-likert-amanda"", ""debug_mode"": ""live"", ""task_type"": ""face trials"", ""responses"": ""{\""Q0\"":3}"", ""task_payment"": 1, ""task_version"": 1, ""internal_node_id"": ""0.0-6.0-0.0-2.0"", ""time_elapsed"": 144094, ""imgName"": ""/static/images/modifae_new_linspace/attractive/105621_0.5833333333333335.png"", ""questions"": ""[{\""prompt\"":\""<p>How <b>attractive</b> does this person look to <b>most people</b>? Rate from 1-9</p>\"",\""labels\"":[\""1 <br/>Not attractive at all\"",\""2\"",\""3\"",\""4\"",\""5\"",\""6\"",\""7\"",\""8\"",\""9  <br/>Extremely attractive\""],\""required\"":true}]"", ""task_unique_trial"": 100, ""task_name"": ""attractive-modifae-single"", ""trial_index"": 48, ""isRepeat"": 0}"
A17IHC8O946XPF:3MMN5BL1W1BX0139W7GSXRWPOS0M3Q,49,1548202331657,"{""rt"": 1201, ""trial_type"": ""face-likert-amanda"", ""debug_mode"": ""live"", ""task_type"": ""face trials"", ""responses"": ""{\""Q0\"":3}"", ""task_payment"": 1, ""task_version"": 1, ""internal_node_id"": ""0.0-6.0-0.0-3.0"", ""time_elapsed"": 145298, ""imgName"": ""/static/images/modifae_new_linspace/attractive/141447_0.15909090909090917.png"", ""questions"": ""[{\""prompt\"":\""<p>How <b>attractive</b> does this person look to <b>most people</b>? Rate from 1-9</p>\"",\""labels\"":[\""1 <br/>Not attractive at all\"",\""2\"",\""3\"",\""4\"",\""5\"",\""6\"",\""7\"",\""8\"",\""9  <br/>Extremely attractive\""],\""required\"":true}]"", ""task_unique_trial"": 100, ""task_name"": ""attractive-modifae-single"", ""trial_index"": 49, ""isRepeat"": 0}"
A17IHC8O946XPF:3MMN5BL1W1BX0139W7GSXRWPOS0M3Q,50,1548202334187,"{""rt"": 2529, ""trial_type"": ""face-likert-amanda"", ""debug_mode"": ""live"", ""task_type"": ""face trials"", ""responses"": ""{\""Q0\"":2}"", ""task_payment"": 1, ""task_version"": 1, ""internal_node_id"": ""0.0-6.0-0.0-4.0"", ""time_elapsed"": 147828, ""imgName"": ""/static/images/modifae_new_linspace/attractive/114266_0.5227272727272727.png"", ""questions"": ""[{\""prompt\"":\""<p>How <b>attractive</b> does this person look to <b>most people</b>? Rate from 1-9</p>\"",\""labels\"":[\""1 <br/>Not attractive at all\"",\""2\"",\""3\"",\""4\"",\""5\"",\""6\"",\""7\"",\""8\"",\""9  <br/>Extremely attractive\""],\""required\"":true}]"", ""task_unique_trial"": 100, ""task_name"": ""attractive-modifae-single"", ""trial_index"": 50, ""isRepeat"": 0}"
A17IHC8O946XPF:3MMN5BL1W1BX0139W7GSXRWPOS0M3Q,51,1548202336084,"{""rt"": 1895, ""trial_type"": ""face-likert-amanda"", ""debug_mode"": ""live"", ""task_type"": ""face trials"", ""responses"": ""{\""Q0\"":4}"", ""task_payment"": 1, ""task_version"": 1, ""internal_node_id"": ""0.0-6.0-0.0-5.0"", ""time_elapsed"": 149725, ""imgName"": ""/static/images/modifae_new_linspace/attractive/134541_-0.1742424242424242.png"", ""questions"": ""[{\""prompt\"":\""<p>How <b>attractive</b> does this person look to <b>most people</b>? Rate from 1-9</p>\"",\""labels\"":[\""1 <br/>Not attractive at all\"",\""2\"",\""3\"",\""4\"",\""5\"",\""6\"",\""7\"",\""8\"",\""9  <br/>Extremely attractive\""],\""required\"":true}]"", ""task_unique_trial"": 100, ""task_name"": ""attractive-modifae-single"", ""trial_index"": 51, ""isRepeat"": 0}"
A17IHC8O946XPF:3MMN5BL1W1BX0139W7GSXRWPOS0M3Q,52,1548202337102,"{""rt"": 1015, ""trial_type"": ""face-likert-amanda"", ""debug_mode"": ""live"", ""task_type"": ""face trials"", ""responses"": ""{\""Q0\"":4}"", ""task_payment"": 1, ""task_version"": 1, ""internal_node_id"": ""0.0-6.0-0.0-6.0"", ""time_elapsed"": 150743, ""imgName"": ""/static/images/modifae_new_linspace/attractive/005032_0.46212121212121215.png"", ""questions"": ""[{\""prompt\"":\""<p>How <b>attractive</b> does this person look to <b>most people</b>? Rate from 1-9</p>\"",\""labels\"":[\""1 <br/>Not attractive at all\"",\""2\"",\""3\"",\""4\"",\""5\"",\""6\"",\""7\"",\""8\"",\""9  <br/>Extremely attractive\""],\""required\"":true}]"", ""task_unique_trial"": 100, ""task_name"": ""attractive-modifae-single"", ""trial_index"": 52, ""isRepeat"": 0}"
A17IHC8O946XPF:3MMN5BL1W1BX0139W7GSXRWPOS0M3Q,53,1548202341100,"{""rt"": 3994, ""trial_type"": ""face-likert-amanda"", ""debug_mode"": ""live"", ""task_type"": ""face trials"", ""responses"": ""{\""Q0\"":5}"", ""task_payment"": 1, ""task_version"": 1, ""internal_node_id"": ""0.0-6.0-0.0-7.0"", ""time_elapsed"": 154741, ""imgName"": ""/static/images/modifae_new_linspace/attractive/131605_-0.6742424242424242.png"", ""questions"": ""[{\""prompt\"":\""<p>How <b>attractive</b> does this person look to <b>most people</b>? Rate from 1-9</p>\"",\""labels\"":[\""1 <br/>Not attractive at all\"",\""2\"",\""3\"",\""4\"",\""5\"",\""6\"",\""7\"",\""8\"",\""9  <br/>Extremely attractive\""],\""required\"":true}]"", ""task_unique_trial"": 100, ""task_name"": ""attractive-modifae-single"", ""trial_index"": 53, ""isRepeat"": 0}"
A17IHC8O946XPF:3MMN5BL1W1BX0139W7GSXRWPOS0M3Q,54,1548202342979,"{""rt"": 1877, ""trial_type"": ""face-likert-amanda"", ""debug_mode"": ""live"", ""task_type"": ""face trials"", ""responses"": ""{\""Q0\"":3}"", ""task_payment"": 1, ""task_version"": 1, ""internal_node_id"": ""0.0-6.0-0.0-8.0"", ""time_elapsed"": 156620, ""imgName"": ""/static/images/modifae_new_linspace/attractive/189047_0.21969696969696972.png"", ""questions"": ""[{\""prompt\"":\""<p>How <b>attractive</b> does this person look to <b>most people</b>? Rate from 1-9</p>\"",\""labels\"":[\""1 <br/>Not attractive at all\"",\""2\"",\""3\"",\""4\"",\""5\"",\""6\"",\""7\"",\""8\"",\""9  <br/>Extremely attractive\""],\""required\"":true}]"", ""task_unique_trial"": 100, ""task_name"": ""attractive-modifae-single"", ""trial_index"": 54, ""isRepeat"": 0}"
A17IHC8O946XPF:3MMN5BL1W1BX0139W7GSXRWPOS0M3Q,55,1548202344786,"{""rt"": 1804, ""trial_type"": ""face-likert-amanda"", ""debug_mode"": ""live"", ""task_type"": ""face trials"", ""responses"": ""{\""Q0\"":5}"", ""task_payment"": 1, ""task_version"": 1, ""internal_node_id"": ""0.0-6.0-0.0-9.0"", ""time_elapsed"": 158427, ""imgName"": ""/static/images/modifae_new_linspace/attractive/181560_-0.3409090909090909.png"", ""questions"": ""[{\""prompt\"":\""<p>How <b>attractive</b> does this person look to <b>most people</b>? Rate from 1-9</p>\"",\""labels\"":[\""1 <br/>Not attractive at all\"",\""2\"",\""3\"",\""4\"",\""5\"",\""6\"",\""7\"",\""8\"",\""9  <br/>Extremely attractive\""],\""required\"":true}]"", ""task_unique_trial"": 100, ""task_name"": ""attractive-modifae-single"", ""trial_index"": 55, ""isRepeat"": 0}"
A17IHC8O946XPF:3MMN5BL1W1BX0139W7GSXRWPOS0M3Q,56,1548202346790,"{""rt"": null, ""trial_type"": ""html-keyboard-response"", ""task_unique_trial"": 100, ""stimulus"": ""<p>Good job!</p>"", ""task_version"": 1, ""internal_node_id"": ""0.0-6.0-1.0"", ""task_payment"": 1, ""time_elapsed"": 160430, ""debug_mode"": ""live"", ""key_press"": null, ""task_name"": ""attractive-modifae-single"", ""trial_index"": 56}"
A17IHC8O946XPF:3MMN5BL1W1BX0139W7GSXRWPOS0M3Q,57,1548202349581,"{""rt"": 2788, ""trial_type"": ""face-likert-amanda"", ""debug_mode"": ""live"", ""task_type"": ""face trials"", ""responses"": ""{\""Q0\"":5}"", ""task_payment"": 1, ""task_version"": 1, ""internal_node_id"": ""0.0-7.0-0.0-0.0"", ""time_elapsed"": 163222, ""imgName"": ""/static/images/modifae_new_linspace/attractive/141447_0.15909090909090917.png"", ""questions"": ""[{\""prompt\"":\""<p>How <b>attractive</b> does this person look to <b>most people</b>? Rate from 1-9</p>\"",\""labels\"":[\""1 <br/>Not attractive at all\"",\""2\"",\""3\"",\""4\"",\""5\"",\""6\"",\""7\"",\""8\"",\""9  <br/>Extremely attractive\""],\""required\"":true}]"", ""task_unique_trial"": 100, ""task_name"": ""attractive-modifae-single"", ""trial_index"": 57, ""isRepeat"": 0}"
A17IHC8O946XPF:3MMN5BL1W1BX0139W7GSXRWPOS0M3Q,58,1548202350827,"{""rt"": 1242, ""trial_type"": ""face-likert-amanda"", ""debug_mode"": ""live"", ""task_type"": ""face trials"", ""responses"": ""{\""Q0\"":5}"", ""task_payment"": 1, ""task_version"": 1, ""internal_node_id"": ""0.0-7.0-0.0-1.0"", ""time_elapsed"": 164468, ""imgName"": ""/static/images/modifae_new_linspace/attractive/017801_-0.037878787878787845.png"", ""questions"": ""[{\""prompt\"":\""<p>How <b>attractive</b> does this person look to <b>most people</b>? Rate from 1-9</p>\"",\""labels\"":[\""1 <br/>Not attractive at all\"",\""2\"",\""3\"",\""4\"",\""5\"",\""6\"",\""7\"",\""8\"",\""9  <br/>Extremely attractive\""],\""required\"":true}]"", ""task_unique_trial"": 100, ""task_name"": ""attractive-modifae-single"", ""trial_index"": 58, ""isRepeat"": 0}"
A17IHC8O946XPF:3MMN5BL1W1BX0139W7GSXRWPOS0M3Q,59,1548202354213,"{""rt"": 3382, ""trial_type"": ""face-likert-amanda"", ""debug_mode"": ""live"", ""task_type"": ""face trials"", ""responses"": ""{\""Q0\"":4}"", ""task_payment"": 1, ""task_version"": 1, ""internal_node_id"": ""0.0-7.0-0.0-2.0"", ""time_elapsed"": 167854, ""imgName"": ""/static/images/modifae_new_linspace/attractive/058811_0.5681818181818181.png"", ""questions"": ""[{\""prompt\"":\""<p>How <b>attractive</b> does this person look to <b>most people</b>? Rate from 1-9</p>\"",\""labels\"":[\""1 <br/>Not attractive at all\"",\""2\"",\""3\"",\""4\"",\""5\"",\""6\"",\""7\"",\""8\"",\""9  <br/>Extremely attractive\""],\""required\"":true}]"", ""task_unique_trial"": 100, ""task_name"": ""attractive-modifae-single"", ""trial_index"": 59, ""isRepeat"": 0}"
A17IHC8O946XPF:3MMN5BL1W1BX0139W7GSXRWPOS0M3Q,60,1548202355378,"{""rt"": 1163, ""trial_type"": ""face-likert-amanda"", ""debug_mode"": ""live"", ""task_type"": ""face trials"", ""responses"": ""{\""Q0\"":4}"", ""task_payment"": 1, ""task_version"": 1, ""internal_node_id"": ""0.0-7.0-0.0-3.0"", ""time_elapsed"": 169019, ""imgName"": ""/static/images/modifae_new_linspace/attractive/027615_0.053030303030303094.png"", ""questions"": ""[{\""prompt\"":\""<p>How <b>attractive</b> does this person look to <b>most people</b>? Rate from 1-9</p>\"",\""labels\"":[\""1 <br/>Not attractive at all\"",\""2\"",\""3\"",\""4\"",\""5\"",\""6\"",\""7\"",\""8\"",\""9  <br/>Extremely attractive\""],\""required\"":true}]"", ""task_unique_trial"": 100, ""task_name"": ""attractive-modifae-single"", ""trial_index"": 60, ""isRepeat"": 0}"
A17IHC8O946XPF:3MMN5BL1W1BX0139W7GSXRWPOS0M3Q,61,1548202357683,"{""rt"": 2301, ""trial_type"": ""face-likert-amanda"", ""debug_mode"": ""live"", ""task_type"": ""face trials"", ""responses"": ""{\""Q0\"":5}"", ""task_payment"": 1, ""task_version"": 1, ""internal_node_id"": ""0.0-7.0-0.0-4.0"", ""time_elapsed"": 171323, ""imgName"": ""/static/images/modifae_new_linspace/attractive/042076_-0.7196969696969697.png"", ""questions"": ""[{\""prompt\"":\""<p>How <b>attractive</b> does this person look to <b>most people</b>? Rate from 1-9</p>\"",\""labels\"":[\""1 <br/>Not attractive at all\"",\""2\"",\""3\"",\""4\"",\""5\"",\""6\"",\""7\"",\""8\"",\""9  <br/>Extremely attractive\""],\""required\"":true}]"", ""task_unique_trial"": 100, ""task_name"": ""attractive-modifae-single"", ""trial_index"": 61, ""isRepeat"": 0}"
A17IHC8O946XPF:3MMN5BL1W1BX0139W7GSXRWPOS0M3Q,62,1548202358964,"{""rt"": 1278, ""trial_type"": ""face-likert-amanda"", ""debug_mode"": ""live"", ""task_type"": ""face trials"", ""responses"": ""{\""Q0\"":5}"", ""task_payment"": 1, ""task_version"": 1, ""internal_node_id"": ""0.0-7.0-0.0-5.0"", ""time_elapsed"": 172605, ""imgName"": ""/static/images/modifae_new_linspace/attractive/006487_0.6590909090909092.png"", ""questions"": ""[{\""prompt\"":\""<p>How <b>attractive</b> does this person look to <b>most people</b>? Rate from 1-9</p>\"",\""labels\"":[\""1 <br/>Not attractive at all\"",\""2\"",\""3\"",\""4\"",\""5\"",\""6\"",\""7\"",\""8\"",\""9  <br/>Extremely attractive\""],\""required\"":true}]"", ""task_unique_trial"": 100, ""task_name"": ""attractive-modifae-single"", ""trial_index"": 62, ""isRepeat"": 0}"
A17IHC8O946XPF:3MMN5BL1W1BX0139W7GSXRWPOS0M3Q,63,1548202360857,"{""rt"": 1890, ""trial_type"": ""face-likert-amanda"", ""debug_mode"": ""live"", ""task_type"": ""face trials"", ""responses"": ""{\""Q0\"":6}"", ""task_payment"": 1, ""task_version"": 1, ""internal_node_id"": ""0.0-7.0-0.0-6.0"", ""time_elapsed"": 174498, ""imgName"": ""/static/images/modifae_new_linspace/attractive/142408_-0.022727272727272707.png"", ""questions"": ""[{\""prompt\"":\""<p>How <b>attractive</b> does this person look to <b>most people</b>? Rate from 1-9</p>\"",\""labels\"":[\""1 <br/>Not attractive at all\"",\""2\"",\""3\"",\""4\"",\""5\"",\""6\"",\""7\"",\""8\"",\""9  <br/>Extremely attractive\""],\""required\"":true}]"", ""task_unique_trial"": 100, ""task_name"": ""attractive-modifae-single"", ""trial_index"": 63, ""isRepeat"": 0}"
A17IHC8O946XPF:3MMN5BL1W1BX0139W7GSXRWPOS0M3Q,64,1548202361913,"{""rt"": 1051, ""trial_type"": ""face-likert-amanda"", ""debug_mode"": ""live"", ""task_type"": ""face trials"", ""responses"": ""{\""Q0\"":6}"", ""task_payment"": 1, ""task_version"": 1, ""internal_node_id"": ""0.0-7.0-0.0-7.0"", ""time_elapsed"": 175554, ""imgName"": ""/static/images/modifae_new_linspace/attractive/010879_-0.6287878787878788.png"", ""questions"": ""[{\""prompt\"":\""<p>How <b>attractive</b> does this person look to <b>most people</b>? Rate from 1-9</p>\"",\""labels\"":[\""1 <br/>Not attractive at all\"",\""2\"",\""3\"",\""4\"",\""5\"",\""6\"",\""7\"",\""8\"",\""9  <br/>Extremely attractive\""],\""required\"":true}]"", ""task_unique_trial"": 100, ""task_name"": ""attractive-modifae-single"", ""trial_index"": 64, ""isRepeat"": 0}"
A17IHC8O946XPF:3MMN5BL1W1BX0139W7GSXRWPOS0M3Q,65,1548202363052,"{""rt"": 1134, ""trial_type"": ""face-likert-amanda"", ""debug_mode"": ""live"", ""task_type"": ""face trials"", ""responses"": ""{\""Q0\"":6}"", ""task_payment"": 1, ""task_version"": 1, ""internal_node_id"": ""0.0-7.0-0.0-8.0"", ""time_elapsed"": 176692, ""imgName"": ""/static/images/modifae_new_linspace/attractive/182833_-0.007575757575757569.png"", ""questions"": ""[{\""prompt\"":\""<p>How <b>attractive</b> does this person look to <b>most people</b>? Rate from 1-9</p>\"",\""labels\"":[\""1 <br/>Not attractive at all\"",\""2\"",\""3\"",\""4\"",\""5\"",\""6\"",\""7\"",\""8\"",\""9  <br/>Extremely attractive\""],\""required\"":true}]"", ""task_unique_trial"": 100, ""task_name"": ""attractive-modifae-single"", ""trial_index"": 65, ""isRepeat"": 0}"
A17IHC8O946XPF:3MMN5BL1W1BX0139W7GSXRWPOS0M3Q,66,1548202364130,"{""rt"": 1076, ""trial_type"": ""face-likert-amanda"", ""debug_mode"": ""live"", ""task_type"": ""face trials"", ""responses"": ""{\""Q0\"":6}"", ""task_payment"": 1, ""task_version"": 1, ""internal_node_id"": ""0.0-7.0-0.0-9.0"", ""time_elapsed"": 177771, ""imgName"": ""/static/images/modifae_new_linspace/attractive/090214_-0.41666666666666663.png"", ""questions"": ""[{\""prompt\"":\""<p>How <b>attractive</b> does this person look to <b>most people</b>? Rate from 1-9</p>\"",\""labels\"":[\""1 <br/>Not attractive at all\"",\""2\"",\""3\"",\""4\"",\""5\"",\""6\"",\""7\"",\""8\"",\""9  <br/>Extremely attractive\""],\""required\"":true}]"", ""task_unique_trial"": 100, ""task_name"": ""attractive-modifae-single"", ""trial_index"": 66, ""isRepeat"": 0}"
A17IHC8O946XPF:3MMN5BL1W1BX0139W7GSXRWPOS0M3Q,67,1548202365633,"{""rt"": null, ""trial_type"": ""html-keyboard-response"", ""task_unique_trial"": 100, ""stimulus"": ""<p>Good job!</p>"", ""task_version"": 1, ""internal_node_id"": ""0.0-7.0-1.0"", ""task_payment"": 1, ""time_elapsed"": 179274, ""debug_mode"": ""live"", ""key_press"": null, ""task_name"": ""attractive-modifae-single"", ""trial_index"": 67}"
A17IHC8O946XPF:3MMN5BL1W1BX0139W7GSXRWPOS0M3Q,68,1548202367197,"{""rt"": 1560, ""trial_type"": ""face-likert-amanda"", ""debug_mode"": ""live"", ""task_type"": ""face trials"", ""responses"": ""{\""Q0\"":6}"", ""task_payment"": 1, ""task_version"": 1, ""internal_node_id"": ""0.0-8.0-0.0-0.0"", ""time_elapsed"": 180836, ""imgName"": ""/static/images/modifae_new_linspace/attractive/109193_0.7348484848484849.png"", ""questions"": ""[{\""prompt\"":\""<p>How <b>attractive</b> does this person look to <b>most people</b>? Rate from 1-9</p>\"",\""labels\"":[\""1 <br/>Not attractive at all\"",\""2\"",\""3\"",\""4\"",\""5\"",\""6\"",\""7\"",\""8\"",\""9  <br/>Extremely attractive\""],\""required\"":true}]"", ""task_unique_trial"": 100, ""task_name"": ""attractive-modifae-single"", ""trial_index"": 68, ""isRepeat"": 0}"
A17IHC8O946XPF:3MMN5BL1W1BX0139W7GSXRWPOS0M3Q,69,1548202368340,"{""rt"": 1138, ""trial_type"": ""face-likert-amanda"", ""debug_mode"": ""live"", ""task_type"": ""face trials"", ""responses"": ""{\""Q0\"":6}"", ""task_payment"": 1, ""task_version"": 1, ""internal_node_id"": ""0.0-8.0-0.0-1.0"", ""time_elapsed"": 181981, ""imgName"": ""/static/images/modifae_new_linspace/attractive/097202_0.09848484848484851.png"", ""questions"": ""[{\""prompt\"":\""<p>How <b>attractive</b> does this person look to <b>most people</b>? Rate from 1-9</p>\"",\""labels\"":[\""1 <br/>Not attractive at all\"",\""2\"",\""3\"",\""4\"",\""5\"",\""6\"",\""7\"",\""8\"",\""9  <br/>Extremely attractive\""],\""required\"":true}]"", ""task_unique_trial"": 100, ""task_name"": ""attractive-modifae-single"", ""trial_index"": 69, ""isRepeat"": 0}"
A17IHC8O946XPF:3MMN5BL1W1BX0139W7GSXRWPOS0M3Q,70,1548202369937,"{""rt"": 1595, ""trial_type"": ""face-likert-amanda"", ""debug_mode"": ""live"", ""task_type"": ""face trials"", ""responses"": ""{\""Q0\"":5}"", ""task_payment"": 1, ""task_version"": 1, ""internal_node_id"": ""0.0-8.0-0.0-2.0"", ""time_elapsed"": 183578, ""imgName"": ""/static/images/modifae_new_linspace/attractive/032881_0.18939393939393945.png"", ""questions"": ""[{\""prompt\"":\""<p>How <b>attractive</b> does this person look to <b>most people</b>? Rate from 1-9</p>\"",\""labels\"":[\""1 <br/>Not attractive at all\"",\""2\"",\""3\"",\""4\"",\""5\"",\""6\"",\""7\"",\""8\"",\""9  <br/>Extremely attractive\""],\""required\"":true}]"", ""task_unique_trial"": 100, ""task_name"": ""attractive-modifae-single"", ""trial_index"": 70, ""isRepeat"": 0}"
A17IHC8O946XPF:3MMN5BL1W1BX0139W7GSXRWPOS0M3Q,71,1548202371862,"{""rt"": 1921, ""trial_type"": ""face-likert-amanda"", ""debug_mode"": ""live"", ""task_type"": ""face trials"", ""responses"": ""{\""Q0\"":6}"", ""task_payment"": 1, ""task_version"": 1, ""internal_node_id"": ""0.0-8.0-0.0-3.0"", ""time_elapsed"": 185502, ""imgName"": ""/static/images/modifae_new_linspace/attractive/017801_-0.037878787878787845.png"", ""questions"": ""[{\""prompt\"":\""<p>How <b>attractive</b> does this person look to <b>most people</b>? Rate from 1-9</p>\"",\""labels\"":[\""1 <br/>Not attractive at all\"",\""2\"",\""3\"",\""4\"",\""5\"",\""6\"",\""7\"",\""8\"",\""9  <br/>Extremely attractive\""],\""required\"":true}]"", ""task_unique_trial"": 100, ""task_name"": ""attractive-modifae-single"", ""trial_index"": 71, ""isRepeat"": 0}"
A17IHC8O946XPF:3MMN5BL1W1BX0139W7GSXRWPOS0M3Q,72,1548202373042,"{""rt"": 1177, ""trial_type"": ""face-likert-amanda"", ""debug_mode"": ""live"", ""task_type"": ""face trials"", ""responses"": ""{\""Q0\"":6}"", ""task_payment"": 1, ""task_version"": 1, ""internal_node_id"": ""0.0-8.0-0.0-4.0"", ""time_elapsed"": 186683, ""imgName"": ""/static/images/modifae_new_linspace/attractive/006487_0.6590909090909092.png"", ""questions"": ""[{\""prompt\"":\""<p>How <b>attractive</b> does this person look to <b>most people</b>? Rate from 1-9</p>\"",\""labels\"":[\""1 <br/>Not attractive at all\"",\""2\"",\""3\"",\""4\"",\""5\"",\""6\"",\""7\"",\""8\"",\""9  <br/>Extremely attractive\""],\""required\"":true}]"", ""task_unique_trial"": 100, ""task_name"": ""attractive-modifae-single"", ""trial_index"": 72, ""isRepeat"": 0}"
A17IHC8O946XPF:3MMN5BL1W1BX0139W7GSXRWPOS0M3Q,73,1548202374072,"{""rt"": 1029, ""trial_type"": ""face-likert-amanda"", ""debug_mode"": ""live"", ""task_type"": ""face trials"", ""responses"": ""{\""Q0\"":6}"", ""task_payment"": 1, ""task_version"": 1, ""internal_node_id"": ""0.0-8.0-0.0-5.0"", ""time_elapsed"": 187713, ""imgName"": ""/static/images/modifae_new_linspace/attractive/195190_-0.14393939393939392.png"", ""questions"": ""[{\""prompt\"":\""<p>How <b>attractive</b> does this person look to <b>most people</b>? Rate from 1-9</p>\"",\""labels\"":[\""1 <br/>Not attractive at all\"",\""2\"",\""3\"",\""4\"",\""5\"",\""6\"",\""7\"",\""8\"",\""9  <br/>Extremely attractive\""],\""required\"":true}]"", ""task_unique_trial"": 100, ""task_name"": ""attractive-modifae-single"", ""trial_index"": 73, ""isRepeat"": 0}"
A17IHC8O946XPF:3MMN5BL1W1BX0139W7GSXRWPOS0M3Q,74,1548202376672,"{""rt"": 2598, ""trial_type"": ""face-likert-amanda"", ""debug_mode"": ""live"", ""task_type"": ""face trials"", ""responses"": ""{\""Q0\"":4}"", ""task_payment"": 1, ""task_version"": 1, ""internal_node_id"": ""0.0-8.0-0.0-6.0"", ""time_elapsed"": 190313, ""imgName"": ""/static/images/modifae_new_linspace/attractive/062275_0.6287878787878789.png"", ""questions"": ""[{\""prompt\"":\""<p>How <b>attractive</b> does this person look to <b>most people</b>? Rate from 1-9</p>\"",\""labels\"":[\""1 <br/>Not attractive at all\"",\""2\"",\""3\"",\""4\"",\""5\"",\""6\"",\""7\"",\""8\"",\""9  <br/>Extremely attractive\""],\""required\"":true}]"", ""task_unique_trial"": 100, ""task_name"": ""attractive-modifae-single"", ""trial_index"": 74, ""isRepeat"": 0}"
A17IHC8O946XPF:3MMN5BL1W1BX0139W7GSXRWPOS0M3Q,75,1548202377862,"{""rt"": 1188, ""trial_type"": ""face-likert-amanda"", ""debug_mode"": ""live"", ""task_type"": ""face trials"", ""responses"": ""{\""Q0\"":4}"", ""task_payment"": 1, ""task_version"": 1, ""internal_node_id"": ""0.0-8.0-0.0-7.0"", ""time_elapsed"": 191503, ""imgName"": ""/static/images/modifae_new_linspace/attractive/041147_0.446969696969697.png"", ""questions"": ""[{\""prompt\"":\""<p>How <b>attractive</b> does this person look to <b>most people</b>? Rate from 1-9</p>\"",\""labels\"":[\""1 <br/>Not attractive at all\"",\""2\"",\""3\"",\""4\"",\""5\"",\""6\"",\""7\"",\""8\"",\""9  <br/>Extremely attractive\""],\""required\"":true}]"", ""task_unique_trial"": 100, ""task_name"": ""attractive-modifae-single"", ""trial_index"": 75, ""isRepeat"": 0}"
A17IHC8O946XPF:3MMN5BL1W1BX0139W7GSXRWPOS0M3Q,76,1548202380113,"{""rt"": 2250, ""trial_type"": ""face-likert-amanda"", ""debug_mode"": ""live"", ""task_type"": ""face trials"", ""responses"": ""{\""Q0\"":3}"", ""task_payment"": 1, ""task_version"": 1, ""internal_node_id"": ""0.0-8.0-0.0-8.0"", ""time_elapsed"": 193754, ""imgName"": ""/static/images/modifae_new_linspace/attractive/156472_-0.5984848484848485.png"", ""questions"": ""[{\""prompt\"":\""<p>How <b>attractive</b> does this person look to <b>most people</b>? Rate from 1-9</p>\"",\""labels\"":[\""1 <br/>Not attractive at all\"",\""2\"",\""3\"",\""4\"",\""5\"",\""6\"",\""7\"",\""8\"",\""9  <br/>Extremely attractive\""],\""required\"":true}]"", ""task_unique_trial"": 100, ""task_name"": ""attractive-modifae-single"", ""trial_index"": 76, ""isRepeat"": 0}"
A17IHC8O946XPF:3MMN5BL1W1BX0139W7GSXRWPOS0M3Q,77,1548202381897,"{""rt"": 1780, ""trial_type"": ""face-likert-amanda"", ""debug_mode"": ""live"", ""task_type"": ""face trials"", ""responses"": ""{\""Q0\"":4}"", ""task_payment"": 1, ""task_version"": 1, ""internal_node_id"": ""0.0-8.0-0.0-9.0"", ""time_elapsed"": 195538, ""imgName"": ""/static/images/modifae_new_linspace/attractive/057882_0.23484848484848486.png"", ""questions"": ""[{\""prompt\"":\""<p>How <b>attractive</b> does this person look to <b>most people</b>? Rate from 1-9</p>\"",\""labels\"":[\""1 <br/>Not attractive at all\"",\""2\"",\""3\"",\""4\"",\""5\"",\""6\"",\""7\"",\""8\"",\""9  <br/>Extremely attractive\""],\""required\"":true}]"", ""task_unique_trial"": 100, ""task_name"": ""attractive-modifae-single"", ""trial_index"": 77, ""isRepeat"": 0}"
A17IHC8O946XPF:3MMN5BL1W1BX0139W7GSXRWPOS0M3Q,78,1548202383403,"{""rt"": null, ""trial_type"": ""html-keyboard-response"", ""task_unique_trial"": 100, ""stimulus"": ""<p>Good job!</p>"", ""task_version"": 1, ""internal_node_id"": ""0.0-8.0-1.0"", ""task_payment"": 1, ""time_elapsed"": 197044, ""debug_mode"": ""live"", ""key_press"": null, ""task_name"": ""attractive-modifae-single"", ""trial_index"": 78}"
A17IHC8O946XPF:3MMN5BL1W1BX0139W7GSXRWPOS0M3Q,79,1548202385754,"{""rt"": 2349, ""trial_type"": ""face-likert-amanda"", ""debug_mode"": ""live"", ""task_type"": ""face trials"", ""responses"": ""{\""Q0\"":5}"", ""task_payment"": 1, ""task_version"": 1, ""internal_node_id"": ""0.0-9.0-0.0-0.0"", ""time_elapsed"": 199395, ""imgName"": ""/static/images/modifae_new_linspace/attractive/101289_0.49242424242424243.png"", ""questions"": ""[{\""prompt\"":\""<p>How <b>attractive</b> does this person look to <b>most people</b>? Rate from 1-9</p>\"",\""labels\"":[\""1 <br/>Not attractive at all\"",\""2\"",\""3\"",\""4\"",\""5\"",\""6\"",\""7\"",\""8\"",\""9  <br/>Extremely attractive\""],\""required\"":true}]"", ""task_unique_trial"": 100, ""task_name"": ""attractive-modifae-single"", ""trial_index"": 79, ""isRepeat"": 0}"
A17IHC8O946XPF:3MMN5BL1W1BX0139W7GSXRWPOS0M3Q,80,1548202387048,"{""rt"": 1290, ""trial_type"": ""face-likert-amanda"", ""debug_mode"": ""live"", ""task_type"": ""face trials"", ""responses"": ""{\""Q0\"":5}"", ""task_payment"": 1, ""task_version"": 1, ""internal_node_id"": ""0.0-9.0-0.0-1.0"", ""time_elapsed"": 200689, ""imgName"": ""/static/images/modifae_new_linspace/attractive/166828_-0.7348484848484849.png"", ""questions"": ""[{\""prompt\"":\""<p>How <b>attractive</b> does this person look to <b>most people</b>? Rate from 1-9</p>\"",\""labels\"":[\""1 <br/>Not attractive at all\"",\""2\"",\""3\"",\""4\"",\""5\"",\""6\"",\""7\"",\""8\"",\""9  <br/>Extremely attractive\""],\""required\"":true}]"", ""task_unique_trial"": 100, ""task_name"": ""attractive-modifae-single"", ""trial_index"": 80, ""isRepeat"": 0}"
A17IHC8O946XPF:3MMN5BL1W1BX0139W7GSXRWPOS0M3Q,81,1548202389565,"{""rt"": 2512, ""trial_type"": ""face-likert-amanda"", ""debug_mode"": ""live"", ""task_type"": ""face trials"", ""responses"": ""{\""Q0\"":5}"", ""task_payment"": 1, ""task_version"": 1, ""internal_node_id"": ""0.0-9.0-0.0-2.0"", ""time_elapsed"": 203206, ""imgName"": ""/static/images/modifae_new_linspace/attractive/014683_0.41666666666666674.png"", ""questions"": ""[{\""prompt\"":\""<p>How <b>attractive</b> does this person look to <b>most people</b>? Rate from 1-9</p>\"",\""labels\"":[\""1 <br/>Not attractive at all\"",\""2\"",\""3\"",\""4\"",\""5\"",\""6\"",\""7\"",\""8\"",\""9  <br/>Extremely attractive\""],\""required\"":true}]"", ""task_unique_trial"": 100, ""task_name"": ""attractive-modifae-single"", ""trial_index"": 81, ""isRepeat"": 0}"
A17IHC8O946XPF:3MMN5BL1W1BX0139W7GSXRWPOS0M3Q,82,1548202390569,"{""rt"": 1001, ""trial_type"": ""face-likert-amanda"", ""debug_mode"": ""live"", ""task_type"": ""face trials"", ""responses"": ""{\""Q0\"":5}"", ""task_payment"": 1, ""task_version"": 1, ""internal_node_id"": ""0.0-9.0-0.0-3.0"", ""time_elapsed"": 204210, ""imgName"": ""/static/images/modifae_new_linspace/attractive/071433_0.4318181818181819.png"", ""questions"": ""[{\""prompt\"":\""<p>How <b>attractive</b> does this person look to <b>most people</b>? Rate from 1-9</p>\"",\""labels\"":[\""1 <br/>Not attractive at all\"",\""2\"",\""3\"",\""4\"",\""5\"",\""6\"",\""7\"",\""8\"",\""9  <br/>Extremely attractive\""],\""required\"":true}]"", ""task_unique_trial"": 100, ""task_name"": ""attractive-modifae-single"", ""trial_index"": 82, ""isRepeat"": 0}"
A17IHC8O946XPF:3MMN5BL1W1BX0139W7GSXRWPOS0M3Q,83,1548202397321,"{""rt"": 6749, ""trial_type"": ""face-likert-amanda"", ""debug_mode"": ""live"", ""task_type"": ""face trials"", ""responses"": ""{\""Q0\"":5}"", ""task_payment"": 1, ""task_version"": 1, ""internal_node_id"": ""0.0-9.0-0.0-4.0"", ""time_elapsed"": 210962, ""imgName"": ""/static/images/modifae_new_linspace/attractive/045041_0.14393939393939392.png"", ""questions"": ""[{\""prompt\"":\""<p>How <b>attractive</b> does this person look to <b>most people</b>? Rate from 1-9</p>\"",\""labels\"":[\""1 <br/>Not attractive at all\"",\""2\"",\""3\"",\""4\"",\""5\"",\""6\"",\""7\"",\""8\"",\""9  <br/>Extremely attractive\""],\""required\"":true}]"", ""task_unique_trial"": 100, ""task_name"": ""attractive-modifae-single"", ""trial_index"": 83, ""isRepeat"": 0}"
A17IHC8O946XPF:3MMN5BL1W1BX0139W7GSXRWPOS0M3Q,84,1548202398387,"{""rt"": 1064, ""trial_type"": ""face-likert-amanda"", ""debug_mode"": ""live"", ""task_type"": ""face trials"", ""responses"": ""{\""Q0\"":5}"", ""task_payment"": 1, ""task_version"": 1, ""internal_node_id"": ""0.0-9.0-0.0-5.0"", ""time_elapsed"": 212028, ""imgName"": ""/static/images/modifae_new_linspace/attractive/081654_0.20454545454545459.png"", ""questions"": ""[{\""prompt\"":\""<p>How <b>attractive</b> does this person look to <b>most people</b>? Rate from 1-9</p>\"",\""labels\"":[\""1 <br/>Not attractive at all\"",\""2\"",\""3\"",\""4\"",\""5\"",\""6\"",\""7\"",\""8\"",\""9  <br/>Extremely attractive\""],\""required\"":true}]"", ""task_unique_trial"": 100, ""task_name"": ""attractive-modifae-single"", ""trial_index"": 84, ""isRepeat"": 0}"
A17IHC8O946XPF:3MMN5BL1W1BX0139W7GSXRWPOS0M3Q,85,1548202400361,"{""rt"": 1971, ""trial_type"": ""face-likert-amanda"", ""debug_mode"": ""live"", ""task_type"": ""face trials"", ""responses"": ""{\""Q0\"":4}"", ""task_payment"": 1, ""task_version"": 1, ""internal_node_id"": ""0.0-9.0-0.0-6.0"", ""time_elapsed"": 214002, ""imgName"": ""/static/images/modifae_new_linspace/attractive/166562_0.4772727272727273.png"", ""questions"": ""[{\""prompt\"":\""<p>How <b>attractive</b> does this person look to <b>most people</b>? Rate from 1-9</p>\"",\""labels\"":[\""1 <br/>Not attractive at all\"",\""2\"",\""3\"",\""4\"",\""5\"",\""6\"",\""7\"",\""8\"",\""9  <br/>Extremely attractive\""],\""required\"":true}]"", ""task_unique_trial"": 100, ""task_name"": ""attractive-modifae-single"", ""trial_index"": 85, ""isRepeat"": 0}"
A17IHC8O946XPF:3MMN5BL1W1BX0139W7GSXRWPOS0M3Q,86,1548202404336,"{""rt"": 3973, ""trial_type"": ""face-likert-amanda"", ""debug_mode"": ""live"", ""task_type"": ""face trials"", ""responses"": ""{\""Q0\"":4}"", ""task_payment"": 1, ""task_version"": 1, ""internal_node_id"": ""0.0-9.0-0.0-7.0"", ""time_elapsed"": 217977, ""imgName"": ""/static/images/modifae_new_linspace/attractive/018930_-0.38636363636363635.png"", ""questions"": ""[{\""prompt\"":\""<p>How <b>attractive</b> does this person look to <b>most people</b>? Rate from 1-9</p>\"",\""labels\"":[\""1 <br/>Not attractive at all\"",\""2\"",\""3\"",\""4\"",\""5\"",\""6\"",\""7\"",\""8\"",\""9  <br/>Extremely attractive\""],\""required\"":true}]"", ""task_unique_trial"": 100, ""task_name"": ""attractive-modifae-single"", ""trial_index"": 86, ""isRepeat"": 0}"
A17IHC8O946XPF:3MMN5BL1W1BX0139W7GSXRWPOS0M3Q,87,1548202405471,"{""rt"": 1131, ""trial_type"": ""face-likert-amanda"", ""debug_mode"": ""live"", ""task_type"": ""face trials"", ""responses"": ""{\""Q0\"":4}"", ""task_payment"": 1, ""task_version"": 1, ""internal_node_id"": ""0.0-9.0-0.0-8.0"", ""time_elapsed"": 219112, ""imgName"": ""/static/images/modifae_new_linspace/attractive/006146_0.12878787878787878.png"", ""questions"": ""[{\""prompt\"":\""<p>How <b>attractive</b> does this person look to <b>most people</b>? Rate from 1-9</p>\"",\""labels\"":[\""1 <br/>Not attractive at all\"",\""2\"",\""3\"",\""4\"",\""5\"",\""6\"",\""7\"",\""8\"",\""9  <br/>Extremely attractive\""],\""required\"":true}]"", ""task_unique_trial"": 100, ""task_name"": ""attractive-modifae-single"", ""trial_index"": 87, ""isRepeat"": 0}"
A17IHC8O946XPF:3MMN5BL1W1BX0139W7GSXRWPOS0M3Q,88,1548202407370,"{""rt"": 1896, ""trial_type"": ""face-likert-amanda"", ""debug_mode"": ""live"", ""task_type"": ""face trials"", ""responses"": ""{\""Q0\"":5}"", ""task_payment"": 1, ""task_version"": 1, ""internal_node_id"": ""0.0-9.0-0.0-9.0"", ""time_elapsed"": 221011, ""imgName"": ""/static/images/modifae_new_linspace/attractive/181560_-0.3409090909090909.png"", ""questions"": ""[{\""prompt\"":\""<p>How <b>attractive</b> does this person look to <b>most people</b>? Rate from 1-9</p>\"",\""labels\"":[\""1 <br/>Not attractive at all\"",\""2\"",\""3\"",\""4\"",\""5\"",\""6\"",\""7\"",\""8\"",\""9  <br/>Extremely attractive\""],\""required\"":true}]"", ""task_unique_trial"": 100, ""task_name"": ""attractive-modifae-single"", ""trial_index"": 88, ""isRepeat"": 0}"
A17IHC8O946XPF:3MMN5BL1W1BX0139W7GSXRWPOS0M3Q,89,1548202408372,"{""rt"": null, ""trial_type"": ""html-keyboard-response"", ""task_unique_trial"": 100, ""stimulus"": ""<p>Good job!</p>"", ""task_version"": 1, ""internal_node_id"": ""0.0-9.0-1.0"", ""task_payment"": 1, ""time_elapsed"": 222012, ""debug_mode"": ""live"", ""key_press"": null, ""task_name"": ""attractive-modifae-single"", ""trial_index"": 89}"
A17IHC8O946XPF:3MMN5BL1W1BX0139W7GSXRWPOS0M3Q,90,1548202410112,"{""rt"": 1740, ""trial_type"": ""face-likert-amanda"", ""debug_mode"": ""live"", ""task_type"": ""face trials"", ""responses"": ""{\""Q0\"":5}"", ""task_payment"": 1, ""task_version"": 1, ""internal_node_id"": ""0.0-10.0-0.0-0.0"", ""time_elapsed"": 223753, ""imgName"": ""/static/images/modifae_new_linspace/attractive/189127_-0.75.png"", ""questions"": ""[{\""prompt\"":\""<p>How <b>attractive</b> does this person look to <b>most people</b>? Rate from 1-9</p>\"",\""labels\"":[\""1 <br/>Not attractive at all\"",\""2\"",\""3\"",\""4\"",\""5\"",\""6\"",\""7\"",\""8\"",\""9  <br/>Extremely attractive\""],\""required\"":true}]"", ""task_unique_trial"": 100, ""task_name"": ""attractive-modifae-single"", ""trial_index"": 90, ""isRepeat"": 0}"
A17IHC8O946XPF:3MMN5BL1W1BX0139W7GSXRWPOS0M3Q,91,1548202412635,"{""rt"": 2518, ""trial_type"": ""face-likert-amanda"", ""debug_mode"": ""live"", ""task_type"": ""face trials"", ""responses"": ""{\""Q0\"":5}"", ""task_payment"": 1, ""task_version"": 1, ""internal_node_id"": ""0.0-10.0-0.0-1.0"", ""time_elapsed"": 226275, ""imgName"": ""/static/images/modifae_new_linspace/attractive/028460_-0.5075757575757576.png"", ""questions"": ""[{\""prompt\"":\""<p>How <b>attractive</b> does this person look to <b>most people</b>? Rate from 1-9</p>\"",\""labels\"":[\""1 <br/>Not attractive at all\"",\""2\"",\""3\"",\""4\"",\""5\"",\""6\"",\""7\"",\""8\"",\""9  <br/>Extremely attractive\""],\""required\"":true}]"", ""task_unique_trial"": 100, ""task_name"": ""attractive-modifae-single"", ""trial_index"": 91, ""isRepeat"": 0}"
A17IHC8O946XPF:3MMN5BL1W1BX0139W7GSXRWPOS0M3Q,92,1548202415537,"{""rt"": 2899, ""trial_type"": ""face-likert-amanda"", ""debug_mode"": ""live"", ""task_type"": ""face trials"", ""responses"": ""{\""Q0\"":5}"", ""task_payment"": 1, ""task_version"": 1, ""internal_node_id"": ""0.0-10.0-0.0-2.0"", ""time_elapsed"": 229178, ""imgName"": ""/static/images/modifae_new_linspace/attractive/041492_0.11363636363636365.png"", ""questions"": ""[{\""prompt\"":\""<p>How <b>attractive</b> does this person look to <b>most people</b>? Rate from 1-9</p>\"",\""labels\"":[\""1 <br/>Not attractive at all\"",\""2\"",\""3\"",\""4\"",\""5\"",\""6\"",\""7\"",\""8\"",\""9  <br/>Extremely attractive\""],\""required\"":true}]"", ""task_unique_trial"": 100, ""task_name"": ""attractive-modifae-single"", ""trial_index"": 92, ""isRepeat"": 0}"
A17IHC8O946XPF:3MMN5BL1W1BX0139W7GSXRWPOS0M3Q,93,1548202416937,"{""rt"": 1396, ""trial_type"": ""face-likert-amanda"", ""debug_mode"": ""live"", ""task_type"": ""face trials"", ""responses"": ""{\""Q0\"":5}"", ""task_payment"": 1, ""task_version"": 1, ""internal_node_id"": ""0.0-10.0-0.0-3.0"", ""time_elapsed"": 230577, ""imgName"": ""/static/images/modifae_new_linspace/attractive/018930_-0.38636363636363635.png"", ""questions"": ""[{\""prompt\"":\""<p>How <b>attractive</b> does this person look to <b>most people</b>? Rate from 1-9</p>\"",\""labels\"":[\""1 <br/>Not attractive at all\"",\""2\"",\""3\"",\""4\"",\""5\"",\""6\"",\""7\"",\""8\"",\""9  <br/>Extremely attractive\""],\""required\"":true}]"", ""task_unique_trial"": 100, ""task_name"": ""attractive-modifae-single"", ""trial_index"": 93, ""isRepeat"": 0}"
A17IHC8O946XPF:3MMN5BL1W1BX0139W7GSXRWPOS0M3Q,94,1548202418078,"{""rt"": 1140, ""trial_type"": ""face-likert-amanda"", ""debug_mode"": ""live"", ""task_type"": ""face trials"", ""responses"": ""{\""Q0\"":5}"", ""task_payment"": 1, ""task_version"": 1, ""internal_node_id"": ""0.0-10.0-0.0-4.0"", ""time_elapsed"": 231719, ""imgName"": ""/static/images/modifae_new_linspace/attractive/153367_0.037878787878787845.png"", ""questions"": ""[{\""prompt\"":\""<p>How <b>attractive</b> does this person look to <b>most people</b>? Rate from 1-9</p>\"",\""labels\"":[\""1 <br/>Not attractive at all\"",\""2\"",\""3\"",\""4\"",\""5\"",\""6\"",\""7\"",\""8\"",\""9  <br/>Extremely attractive\""],\""required\"":true}]"", ""task_unique_trial"": 100, ""task_name"": ""attractive-modifae-single"", ""trial_index"": 94, ""isRepeat"": 0}"
A17IHC8O946XPF:3MMN5BL1W1BX0139W7GSXRWPOS0M3Q,95,1548202419176,"{""rt"": 1095, ""trial_type"": ""face-likert-amanda"", ""debug_mode"": ""live"", ""task_type"": ""face trials"", ""responses"": ""{\""Q0\"":5}"", ""task_payment"": 1, ""task_version"": 1, ""internal_node_id"": ""0.0-10.0-0.0-5.0"", ""time_elapsed"": 232817, ""imgName"": ""/static/images/modifae_new_linspace/attractive/062697_0.3560606060606062.png"", ""questions"": ""[{\""prompt\"":\""<p>How <b>attractive</b> does this person look to <b>most people</b>? Rate from 1-9</p>\"",\""labels\"":[\""1 <br/>Not attractive at all\"",\""2\"",\""3\"",\""4\"",\""5\"",\""6\"",\""7\"",\""8\"",\""9  <br/>Extremely attractive\""],\""required\"":true}]"", ""task_unique_trial"": 100, ""task_name"": ""attractive-modifae-single"", ""trial_index"": 95, ""isRepeat"": 0}"
A17IHC8O946XPF:3MMN5BL1W1BX0139W7GSXRWPOS0M3Q,96,1548202421231,"{""rt"": 2052, ""trial_type"": ""face-likert-amanda"", ""debug_mode"": ""live"", ""task_type"": ""face trials"", ""responses"": ""{\""Q0\"":5}"", ""task_payment"": 1, ""task_version"": 1, ""internal_node_id"": ""0.0-10.0-0.0-6.0"", ""time_elapsed"": 234872, ""imgName"": ""/static/images/modifae_new_linspace/attractive/129472_-0.553030303030303.png"", ""questions"": ""[{\""prompt\"":\""<p>How <b>attractive</b> does this person look to <b>most people</b>? Rate from 1-9</p>\"",\""labels\"":[\""1 <br/>Not attractive at all\"",\""2\"",\""3\"",\""4\"",\""5\"",\""6\"",\""7\"",\""8\"",\""9  <br/>Extremely attractive\""],\""required\"":true}]"", ""task_unique_trial"": 100, ""task_name"": ""attractive-modifae-single"", ""trial_index"": 96, ""isRepeat"": 0}"
A17IHC8O946XPF:3MMN5BL1W1BX0139W7GSXRWPOS0M3Q,97,1548202422623,"{""rt"": 1388, ""trial_type"": ""face-likert-amanda"", ""debug_mode"": ""live"", ""task_type"": ""face trials"", ""responses"": ""{\""Q0\"":6}"", ""task_payment"": 1, ""task_version"": 1, ""internal_node_id"": ""0.0-10.0-0.0-7.0"", ""time_elapsed"": 236264, ""imgName"": ""/static/images/modifae_new_linspace/attractive/005032_0.46212121212121215.png"", ""questions"": ""[{\""prompt\"":\""<p>How <b>attractive</b> does this person look to <b>most people</b>? Rate from 1-9</p>\"",\""labels\"":[\""1 <br/>Not attractive at all\"",\""2\"",\""3\"",\""4\"",\""5\"",\""6\"",\""7\"",\""8\"",\""9  <br/>Extremely attractive\""],\""required\"":true}]"", ""task_unique_trial"": 100, ""task_name"": ""attractive-modifae-single"", ""trial_index"": 97, ""isRepeat"": 0}"
A17IHC8O946XPF:3MMN5BL1W1BX0139W7GSXRWPOS0M3Q,98,1548202423639,"{""rt"": 1014, ""trial_type"": ""face-likert-amanda"", ""debug_mode"": ""live"", ""task_type"": ""face trials"", ""responses"": ""{\""Q0\"":6}"", ""task_payment"": 1, ""task_version"": 1, ""internal_node_id"": ""0.0-10.0-0.0-8.0"", ""time_elapsed"": 237280, ""imgName"": ""/static/images/modifae_new_linspace/attractive/067945_0.1742424242424243.png"", ""questions"": ""[{\""prompt\"":\""<p>How <b>attractive</b> does this person look to <b>most people</b>? Rate from 1-9</p>\"",\""labels\"":[\""1 <br/>Not attractive at all\"",\""2\"",\""3\"",\""4\"",\""5\"",\""6\"",\""7\"",\""8\"",\""9  <br/>Extremely attractive\""],\""required\"":true}]"", ""task_unique_trial"": 100, ""task_name"": ""attractive-modifae-single"", ""trial_index"": 98, ""isRepeat"": 0}"
A17IHC8O946XPF:3MMN5BL1W1BX0139W7GSXRWPOS0M3Q,99,1548202427240,"{""rt"": 3597, ""trial_type"": ""face-likert-amanda"", ""debug_mode"": ""live"", ""task_type"": ""face trials"", ""responses"": ""{\""Q0\"":5}"", ""task_payment"": 1, ""task_version"": 1, ""internal_node_id"": ""0.0-10.0-0.0-9.0"", ""time_elapsed"": 240881, ""imgName"": ""/static/images/modifae_new_linspace/attractive/081654_0.20454545454545459.png"", ""questions"": ""[{\""prompt\"":\""<p>How <b>attractive</b> does this person look to <b>most people</b>? Rate from 1-9</p>\"",\""labels\"":[\""1 <br/>Not attractive at all\"",\""2\"",\""3\"",\""4\"",\""5\"",\""6\"",\""7\"",\""8\"",\""9  <br/>Extremely attractive\""],\""required\"":true}]"", ""task_unique_trial"": 100, ""task_name"": ""attractive-modifae-single"", ""trial_index"": 99, ""isRepeat"": 0}"
A17IHC8O946XPF:3MMN5BL1W1BX0139W7GSXRWPOS0M3Q,100,1548202428749,"{""rt"": null, ""trial_type"": ""html-keyboard-response"", ""task_unique_trial"": 100, ""stimulus"": ""<p>Good job!</p>"", ""task_version"": 1, ""internal_node_id"": ""0.0-10.0-1.0"", ""task_payment"": 1, ""time_elapsed"": 242390, ""debug_mode"": ""live"", ""key_press"": null, ""task_name"": ""attractive-modifae-single"", ""trial_index"": 100}"
A17IHC8O946XPF:3MMN5BL1W1BX0139W7GSXRWPOS0M3Q,101,1548202434672,"{""rt"": 5920, ""trial_type"": ""face-likert-amanda"", ""debug_mode"": ""live"", ""task_type"": ""face trials"", ""responses"": ""{\""Q0\"":3}"", ""task_payment"": 1, ""task_version"": 1, ""internal_node_id"": ""0.0-11.0-0.0-0.0"", ""time_elapsed"": 248313, ""imgName"": ""/static/images/modifae_new_linspace/attractive/016561_-0.12878787878787878.png"", ""questions"": ""[{\""prompt\"":\""<p>How <b>attractive</b> does this person look to <b>most people</b>? Rate from 1-9</p>\"",\""labels\"":[\""1 <br/>Not attractive at all\"",\""2\"",\""3\"",\""4\"",\""5\"",\""6\"",\""7\"",\""8\"",\""9  <br/>Extremely attractive\""],\""required\"":true}]"", ""task_unique_trial"": 100, ""task_name"": ""attractive-modifae-single"", ""trial_index"": 101, ""isRepeat"": 0}"
A17IHC8O946XPF:3MMN5BL1W1BX0139W7GSXRWPOS0M3Q,102,1548202435791,"{""rt"": 1117, ""trial_type"": ""face-likert-amanda"", ""debug_mode"": ""live"", ""task_type"": ""face trials"", ""responses"": ""{\""Q0\"":3}"", ""task_payment"": 1, ""task_version"": 1, ""internal_node_id"": ""0.0-11.0-0.0-1.0"", ""time_elapsed"": 249432, ""imgName"": ""/static/images/modifae_new_linspace/attractive/000570_0.34090909090909083.png"", ""questions"": ""[{\""prompt\"":\""<p>How <b>attractive</b> does this person look to <b>most people</b>? Rate from 1-9</p>\"",\""labels\"":[\""1 <br/>Not attractive at all\"",\""2\"",\""3\"",\""4\"",\""5\"",\""6\"",\""7\"",\""8\"",\""9  <br/>Extremely attractive\""],\""required\"":true}]"", ""task_unique_trial"": 100, ""task_name"": ""attractive-modifae-single"", ""trial_index"": 102, ""isRepeat"": 0}"
A17IHC8O946XPF:3MMN5BL1W1BX0139W7GSXRWPOS0M3Q,103,1548202436895,"{""rt"": 1102, ""trial_type"": ""face-likert-amanda"", ""debug_mode"": ""live"", ""task_type"": ""face trials"", ""responses"": ""{\""Q0\"":3}"", ""task_payment"": 1, ""task_version"": 1, ""internal_node_id"": ""0.0-11.0-0.0-2.0"", ""time_elapsed"": 250536, ""imgName"": ""/static/images/modifae_new_linspace/attractive/077003_0.643939393939394.png"", ""questions"": ""[{\""prompt\"":\""<p>How <b>attractive</b> does this person look to <b>most people</b>? Rate from 1-9</p>\"",\""labels\"":[\""1 <br/>Not attractive at all\"",\""2\"",\""3\"",\""4\"",\""5\"",\""6\"",\""7\"",\""8\"",\""9  <br/>Extremely attractive\""],\""required\"":true}]"", ""task_unique_trial"": 100, ""task_name"": ""attractive-modifae-single"", ""trial_index"": 103, ""isRepeat"": 0}"
A17IHC8O946XPF:3MMN5BL1W1BX0139W7GSXRWPOS0M3Q,104,1548202439272,"{""rt"": 2374, ""trial_type"": ""face-likert-amanda"", ""debug_mode"": ""live"", ""task_type"": ""face trials"", ""responses"": ""{\""Q0\"":4}"", ""task_payment"": 1, ""task_version"": 1, ""internal_node_id"": ""0.0-11.0-0.0-3.0"", ""time_elapsed"": 252913, ""imgName"": ""/static/images/modifae_new_linspace/attractive/045041_0.14393939393939392.png"", ""questions"": ""[{\""prompt\"":\""<p>How <b>attractive</b> does this person look to <b>most people</b>? Rate from 1-9</p>\"",\""labels\"":[\""1 <br/>Not attractive at all\"",\""2\"",\""3\"",\""4\"",\""5\"",\""6\"",\""7\"",\""8\"",\""9  <br/>Extremely attractive\""],\""required\"":true}]"", ""task_unique_trial"": 100, ""task_name"": ""attractive-modifae-single"", ""trial_index"": 104, ""isRepeat"": 0}"
A17IHC8O946XPF:3MMN5BL1W1BX0139W7GSXRWPOS0M3Q,105,1548202441134,"{""rt"": 1859, ""trial_type"": ""face-likert-amanda"", ""debug_mode"": ""live"", ""task_type"": ""face trials"", ""responses"": ""{\""Q0\"":4}"", ""task_payment"": 1, ""task_version"": 1, ""internal_node_id"": ""0.0-11.0-0.0-4.0"", ""time_elapsed"": 254775, ""imgName"": ""/static/images/modifae_new_linspace/attractive/000879_0.553030303030303.png"", ""questions"": ""[{\""prompt\"":\""<p>How <b>attractive</b> does this person look to <b>most people</b>? Rate from 1-9</p>\"",\""labels\"":[\""1 <br/>Not attractive at all\"",\""2\"",\""3\"",\""4\"",\""5\"",\""6\"",\""7\"",\""8\"",\""9  <br/>Extremely attractive\""],\""required\"":true}]"", ""task_unique_trial"": 100, ""task_name"": ""attractive-modifae-single"", ""trial_index"": 105, ""isRepeat"": 0}"
A17IHC8O946XPF:3MMN5BL1W1BX0139W7GSXRWPOS0M3Q,106,1548202442765,"{""rt"": 1628, ""trial_type"": ""face-likert-amanda"", ""debug_mode"": ""live"", ""task_type"": ""face trials"", ""responses"": ""{\""Q0\"":5}"", ""task_payment"": 1, ""task_version"": 1, ""internal_node_id"": ""0.0-11.0-0.0-5.0"", ""time_elapsed"": 256406, ""imgName"": ""/static/images/modifae_new_linspace/attractive/134541_-0.1742424242424242.png"", ""questions"": ""[{\""prompt\"":\""<p>How <b>attractive</b> does this person look to <b>most people</b>? Rate from 1-9</p>\"",\""labels\"":[\""1 <br/>Not attractive at all\"",\""2\"",\""3\"",\""4\"",\""5\"",\""6\"",\""7\"",\""8\"",\""9  <br/>Extremely attractive\""],\""required\"":true}]"", ""task_unique_trial"": 100, ""task_name"": ""attractive-modifae-single"", ""trial_index"": 106, ""isRepeat"": 0}"
A17IHC8O946XPF:3MMN5BL1W1BX0139W7GSXRWPOS0M3Q,107,1548202444454,"{""rt"": 1685, ""trial_type"": ""face-likert-amanda"", ""debug_mode"": ""live"", ""task_type"": ""face trials"", ""responses"": ""{\""Q0\"":4}"", ""task_payment"": 1, ""task_version"": 1, ""internal_node_id"": ""0.0-11.0-0.0-6.0"", ""time_elapsed"": 258094, ""imgName"": ""/static/images/modifae_new_linspace/attractive/062275_0.6287878787878789.png"", ""questions"": ""[{\""prompt\"":\""<p>How <b>attractive</b> does this person look to <b>most people</b>? Rate from 1-9</p>\"",\""labels\"":[\""1 <br/>Not attractive at all\"",\""2\"",\""3\"",\""4\"",\""5\"",\""6\"",\""7\"",\""8\"",\""9  <br/>Extremely attractive\""],\""required\"":true}]"", ""task_unique_trial"": 100, ""task_name"": ""attractive-modifae-single"", ""trial_index"": 107, ""isRepeat"": 0}"
A17IHC8O946XPF:3MMN5BL1W1BX0139W7GSXRWPOS0M3Q,108,1548202448576,"{""rt"": 4118, ""trial_type"": ""face-likert-amanda"", ""debug_mode"": ""live"", ""task_type"": ""face trials"", ""responses"": ""{\""Q0\"":3}"", ""task_payment"": 1, ""task_version"": 1, ""internal_node_id"": ""0.0-11.0-0.0-7.0"", ""time_elapsed"": 262217, ""imgName"": ""/static/images/modifae_new_linspace/attractive/016561_-0.12878787878787878.png"", ""questions"": ""[{\""prompt\"":\""<p>How <b>attractive</b> does this person look to <b>most people</b>? Rate from 1-9</p>\"",\""labels\"":[\""1 <br/>Not attractive at all\"",\""2\"",\""3\"",\""4\"",\""5\"",\""6\"",\""7\"",\""8\"",\""9  <br/>Extremely attractive\""],\""required\"":true}]"", ""task_unique_trial"": 100, ""task_name"": ""attractive-modifae-single"", ""trial_index"": 108, ""isRepeat"": 0}"
A17IHC8O946XPF:3MMN5BL1W1BX0139W7GSXRWPOS0M3Q,109,1548202450620,"{""rt"": 2042, ""trial_type"": ""face-likert-amanda"", ""debug_mode"": ""live"", ""task_type"": ""face trials"", ""responses"": ""{\""Q0\"":4}"", ""task_payment"": 1, ""task_version"": 1, ""internal_node_id"": ""0.0-11.0-0.0-8.0"", ""time_elapsed"": 264261, ""imgName"": ""/static/images/modifae_new_linspace/attractive/136712_-0.2803030303030303.png"", ""questions"": ""[{\""prompt\"":\""<p>How <b>attractive</b> does this person look to <b>most people</b>? Rate from 1-9</p>\"",\""labels\"":[\""1 <br/>Not attractive at all\"",\""2\"",\""3\"",\""4\"",\""5\"",\""6\"",\""7\"",\""8\"",\""9  <br/>Extremely attractive\""],\""required\"":true}]"", ""task_unique_trial"": 100, ""task_name"": ""attractive-modifae-single"", ""trial_index"": 109, ""isRepeat"": 0}"
A17IHC8O946XPF:3MMN5BL1W1BX0139W7GSXRWPOS0M3Q,110,1548202451845,"{""rt"": 1221, ""trial_type"": ""face-likert-amanda"", ""debug_mode"": ""live"", ""task_type"": ""face trials"", ""responses"": ""{\""Q0\"":4}"", ""task_payment"": 1, ""task_version"": 1, ""internal_node_id"": ""0.0-11.0-0.0-9.0"", ""time_elapsed"": 265486, ""imgName"": ""/static/images/modifae_new_linspace/attractive/044261_-0.15909090909090906.png"", ""questions"": ""[{\""prompt\"":\""<p>How <b>attractive</b> does this person look to <b>most people</b>? Rate from 1-9</p>\"",\""labels\"":[\""1 <br/>Not attractive at all\"",\""2\"",\""3\"",\""4\"",\""5\"",\""6\"",\""7\"",\""8\"",\""9  <br/>Extremely attractive\""],\""required\"":true}]"", ""task_unique_trial"": 100, ""task_name"": ""attractive-modifae-single"", ""trial_index"": 110, ""isRepeat"": 0}"
A17IHC8O946XPF:3MMN5BL1W1BX0139W7GSXRWPOS0M3Q,111,1548202453852,"{""rt"": null, ""trial_type"": ""html-keyboard-response"", ""task_unique_trial"": 100, ""stimulus"": ""<p>Good job!</p>"", ""task_version"": 1, ""internal_node_id"": ""0.0-11.0-1.0"", ""task_payment"": 1, ""time_elapsed"": 267493, ""debug_mode"": ""live"", ""key_press"": null, ""task_name"": ""attractive-modifae-single"", ""trial_index"": 111}"
A17IHC8O946XPF:3MMN5BL1W1BX0139W7GSXRWPOS0M3Q,112,1548202465389,"{""rt"": 11532, ""trial_type"": ""survey-text-req"", ""task_type"": ""feedback for HIT"", ""responses"": ""{\""Q0\"":\""different and refreshing!\""}"", ""task_payment"": 1, ""task_version"": 1, ""internal_node_id"": ""0.0-12.0"", ""time_elapsed"": 279030, ""debug_mode"": ""live"", ""task_name"": ""attractive-modifae-single"", ""task_unique_trial"": 100, ""trial_index"": 112}"
A18KWJ0MC4F86P:3M81GAB8A2QTOB5E3T2FWJE6MLBQB9,0,1548202331366,"{""rt"": 29914, ""trial_type"": ""instructions"", ""view_history"": ""[{\""page_index\"":0,\""viewing_time\"":8103},{\""page_index\"":1,\""viewing_time\"":13694},{\""page_index\"":2,\""viewing_time\"":8115}]"", ""task_type"": ""instruction"", ""task_payment"": 1, ""task_version"": 1, ""internal_node_id"": ""0.0-0.0"", ""time_elapsed"": 29921, ""debug_mode"": ""live"", ""task_name"": ""attractive-modifae-single"", ""task_unique_trial"": 100, ""trial_index"": 0}"
A18KWJ0MC4F86P:3M81GAB8A2QTOB5E3T2FWJE6MLBQB9,1,1548202355364,"{""rt"": 23975, ""trial_type"": ""survey-multi-choice"", ""task_type"": ""demographic-multichoice"", ""responses"": ""{\""Q0\"":\""56+\"",\""Q1\"":\""Female\"",\""Q2\"":\""No\"",\""Q3\"":\""2\"",\""Q4\"":\""White\"",\""Q5\"":\""Some college, no degree\"",\""Q6\"":\""$20,000  - $49,999\""}"", ""task_payment"": 1, ""task_version"": 1, ""time_elapsed"": 53920, ""sanity_check_1_continue"": true, ""random_num"": 2, ""debug_mode"": ""live"", ""questions"": ""[{\""prompt\"":\""What is your age?\"",\""options\"":[\""Under 18\"",\""18-25\"",\""26-35\"",\""36-45\"",\""46-55\"",\""56+\""],\""required\"":true},{\""prompt\"":\""What is your gender?\"",\""options\"":[\""Male\"",\""Female\"",\""Other/Prefer not to say\""],\""required\"":true},{\""prompt\"":\""Are you of Hispanic, Latino, or Spanish origin?\"",\""options\"":[\""Yes\"",\""No\""],\""required\"":true},{\""prompt\"":\""Please choose the option that matches the number here: 2\"",\""options\"":[\""1\"",\""2\"",\""3\"",\""4\""],\""required\"":true},{\""prompt\"":\""How would you describe yourself?\"",\""options\"":[\""American Indian or Alaskan Native\"",\""Asian\"",\""Black or African-American\"",\""Native Hawaiian or Other Pacific Islander\"",\""White\""],\""required\"":true},{\""prompt\"":\""What is the highest degree or level of school you have completed? (If you&#8217;re currently enrolled in school, please indicate the highest degree you have received)\"",\""options\"":[\""Less than a high school diploma\"",\""High school degree or equivalent (e.g. GED)\"",\""Some college, no degree\"",\""Associate degree (e.g. AA, AS)\"",\""Bachelor&#8217;s degree (e.g. BA, BS) or above\""],\""required\"":true},{\""prompt\"":\""What is the total income of all members of your household?\"",\""options\"":[\""Less than $20,000\"",\""$20,000  - $49,999\"",\""$50,000 - $74,999\"",\""$75,000 and above\""],\""required\"":true}]"", ""internal_node_id"": ""0.0-1.0-0.0"", ""task_unique_trial"": 100, ""task_name"": ""attractive-modifae-single"", ""trial_index"": 1}"
A18KWJ0MC4F86P:3M81GAB8A2QTOB5E3T2FWJE6MLBQB9,2,1548202363183,"{""rt"": 7815, ""trial_type"": ""face-likert-amanda"", ""debug_mode"": ""live"", ""task_type"": ""face trials"", ""responses"": ""{\""Q0\"":6}"", ""task_payment"": 1, ""task_version"": 1, ""internal_node_id"": ""0.0-2.0-0.0-0.0"", ""time_elapsed"": 61739, ""imgName"": ""/static/images/modifae_new_linspace/attractive/042970_0.75.png"", ""questions"": ""[{\""prompt\"":\""<p>How <b>attractive</b> does this person look to <b>most people</b>? Rate from 1-9</p>\"",\""labels\"":[\""1 <br/>Not attractive at all\"",\""2\"",\""3\"",\""4\"",\""5\"",\""6\"",\""7\"",\""8\"",\""9  <br/>Extremely attractive\""],\""required\"":true}]"", ""task_unique_trial"": 100, ""task_name"": ""attractive-modifae-single"", ""trial_index"": 2, ""isRepeat"": 0}"
A18KWJ0MC4F86P:3M81GAB8A2QTOB5E3T2FWJE6MLBQB9,3,1548202368089,"{""rt"": 4901, ""trial_type"": ""face-likert-amanda"", ""debug_mode"": ""live"", ""task_type"": ""face trials"", ""responses"": ""{\""Q0\"":7}"", ""task_payment"": 1, ""task_version"": 1, ""internal_node_id"": ""0.0-2.0-0.0-1.0"", ""time_elapsed"": 66645, ""imgName"": ""/static/images/modifae_new_linspace/attractive/181560_-0.3409090909090909.png"", ""questions"": ""[{\""prompt\"":\""<p>How <b>attractive</b> does this person look to <b>most people</b>? Rate from 1-9</p>\"",\""labels\"":[\""1 <br/>Not attractive at all\"",\""2\"",\""3\"",\""4\"",\""5\"",\""6\"",\""7\"",\""8\"",\""9  <br/>Extremely attractive\""],\""required\"":true}]"", ""task_unique_trial"": 100, ""task_name"": ""attractive-modifae-single"", ""trial_index"": 3, ""isRepeat"": 0}"
A18KWJ0MC4F86P:3M81GAB8A2QTOB5E3T2FWJE6MLBQB9,4,1548202372143,"{""rt"": 4051, ""trial_type"": ""face-likert-amanda"", ""debug_mode"": ""live"", ""task_type"": ""face trials"", ""responses"": ""{\""Q0\"":7}"", ""task_payment"": 1, ""task_version"": 1, ""internal_node_id"": ""0.0-2.0-0.0-2.0"", ""time_elapsed"": 70699, ""imgName"": ""/static/images/modifae_new_linspace/attractive/081654_0.20454545454545459.png"", ""questions"": ""[{\""prompt\"":\""<p>How <b>attractive</b> does this person look to <b>most people</b>? Rate from 1-9</p>\"",\""labels\"":[\""1 <br/>Not attractive at all\"",\""2\"",\""3\"",\""4\"",\""5\"",\""6\"",\""7\"",\""8\"",\""9  <br/>Extremely attractive\""],\""required\"":true}]"", ""task_unique_trial"": 100, ""task_name"": ""attractive-modifae-single"", ""trial_index"": 4, ""isRepeat"": 0}"
A18KWJ0MC4F86P:3M81GAB8A2QTOB5E3T2FWJE6MLBQB9,5,1548202375705,"{""rt"": 3560, ""trial_type"": ""face-likert-amanda"", ""debug_mode"": ""live"", ""task_type"": ""face trials"", ""responses"": ""{\""Q0\"":5}"", ""task_payment"": 1, ""task_version"": 1, ""internal_node_id"": ""0.0-2.0-0.0-3.0"", ""time_elapsed"": 74261, ""imgName"": ""/static/images/modifae_new_linspace/attractive/077003_0.643939393939394.png"", ""questions"": ""[{\""prompt\"":\""<p>How <b>attractive</b> does this person look to <b>most people</b>? Rate from 1-9</p>\"",\""labels\"":[\""1 <br/>Not attractive at all\"",\""2\"",\""3\"",\""4\"",\""5\"",\""6\"",\""7\"",\""8\"",\""9  <br/>Extremely attractive\""],\""required\"":true}]"", ""task_unique_trial"": 100, ""task_name"": ""attractive-modifae-single"", ""trial_index"": 5, ""isRepeat"": 0}"
A18KWJ0MC4F86P:3M81GAB8A2QTOB5E3T2FWJE6MLBQB9,6,1548202379805,"{""rt"": 4098, ""trial_type"": ""face-likert-amanda"", ""debug_mode"": ""live"", ""task_type"": ""face trials"", ""responses"": ""{\""Q0\"":3}"", ""task_payment"": 1, ""task_version"": 1, ""internal_node_id"": ""0.0-2.0-0.0-4.0"", ""time_elapsed"": 78361, ""imgName"": ""/static/images/modifae_new_linspace/attractive/101289_0.49242424242424243.png"", ""questions"": ""[{\""prompt\"":\""<p>How <b>attractive</b> does this person look to <b>most people</b>? Rate from 1-9</p>\"",\""labels\"":[\""1 <br/>Not attractive at all\"",\""2\"",\""3\"",\""4\"",\""5\"",\""6\"",\""7\"",\""8\"",\""9  <br/>Extremely attractive\""],\""required\"":true}]"", ""task_unique_trial"": 100, ""task_name"": ""attractive-modifae-single"", ""trial_index"": 6, ""isRepeat"": 0}"
A18KWJ0MC4F86P:3M81GAB8A2QTOB5E3T2FWJE6MLBQB9,7,1548202383963,"{""rt"": 4156, ""trial_type"": ""face-likert-amanda"", ""debug_mode"": ""live"", ""task_type"": ""face trials"", ""responses"": ""{\""Q0\"":7}"", ""task_payment"": 1, ""task_version"": 1, ""internal_node_id"": ""0.0-2.0-0.0-5.0"", ""time_elapsed"": 82519, ""imgName"": ""/static/images/modifae_new_linspace/attractive/081654_0.20454545454545459.png"", ""questions"": ""[{\""prompt\"":\""<p>How <b>attractive</b> does this person look to <b>most people</b>? Rate from 1-9</p>\"",\""labels\"":[\""1 <br/>Not attractive at all\"",\""2\"",\""3\"",\""4\"",\""5\"",\""6\"",\""7\"",\""8\"",\""9  <br/>Extremely attractive\""],\""required\"":true}]"", ""task_unique_trial"": 100, ""task_name"": ""attractive-modifae-single"", ""trial_index"": 7, ""isRepeat"": 0}"
A18KWJ0MC4F86P:3M81GAB8A2QTOB5E3T2FWJE6MLBQB9,8,1548202388777,"{""rt"": 4810, ""trial_type"": ""face-likert-amanda"", ""debug_mode"": ""live"", ""task_type"": ""face trials"", ""responses"": ""{\""Q0\"":3}"", ""task_payment"": 1, ""task_version"": 1, ""internal_node_id"": ""0.0-2.0-0.0-6.0"", ""time_elapsed"": 87333, ""imgName"": ""/static/images/modifae_new_linspace/attractive/166562_0.4772727272727273.png"", ""questions"": ""[{\""prompt\"":\""<p>How <b>attractive</b> does this person look to <b>most people</b>? Rate from 1-9</p>\"",\""labels\"":[\""1 <br/>Not attractive at all\"",\""2\"",\""3\"",\""4\"",\""5\"",\""6\"",\""7\"",\""8\"",\""9  <br/>Extremely attractive\""],\""required\"":true}]"", ""task_unique_trial"": 100, ""task_name"": ""attractive-modifae-single"", ""trial_index"": 8, ""isRepeat"": 0}"
A18KWJ0MC4F86P:3M81GAB8A2QTOB5E3T2FWJE6MLBQB9,9,1548202392876,"{""rt"": 4097, ""trial_type"": ""face-likert-amanda"", ""debug_mode"": ""live"", ""task_type"": ""face trials"", ""responses"": ""{\""Q0\"":4}"", ""task_payment"": 1, ""task_version"": 1, ""internal_node_id"": ""0.0-2.0-0.0-7.0"", ""time_elapsed"": 91432, ""imgName"": ""/static/images/modifae_new_linspace/attractive/166828_-0.7348484848484849.png"", ""questions"": ""[{\""prompt\"":\""<p>How <b>attractive</b> does this person look to <b>most people</b>? Rate from 1-9</p>\"",\""labels\"":[\""1 <br/>Not attractive at all\"",\""2\"",\""3\"",\""4\"",\""5\"",\""6\"",\""7\"",\""8\"",\""9  <br/>Extremely attractive\""],\""required\"":true}]"", ""task_unique_trial"": 100, ""task_name"": ""attractive-modifae-single"", ""trial_index"": 9, ""isRepeat"": 0}"
A18KWJ0MC4F86P:3M81GAB8A2QTOB5E3T2FWJE6MLBQB9,10,1548202396555,"{""rt"": 3675, ""trial_type"": ""face-likert-amanda"", ""debug_mode"": ""live"", ""task_type"": ""face trials"", ""responses"": ""{\""Q0\"":3}"", ""task_payment"": 1, ""task_version"": 1, ""internal_node_id"": ""0.0-2.0-0.0-8.0"", ""time_elapsed"": 95111, ""imgName"": ""/static/images/modifae_new_linspace/attractive/191981_-0.3106060606060606.png"", ""questions"": ""[{\""prompt\"":\""<p>How <b>attractive</b> does this person look to <b>most people</b>? Rate from 1-9</p>\"",\""labels\"":[\""1 <br/>Not attractive at all\"",\""2\"",\""3\"",\""4\"",\""5\"",\""6\"",\""7\"",\""8\"",\""9  <br/>Extremely attractive\""],\""required\"":true}]"", ""task_unique_trial"": 100, ""task_name"": ""attractive-modifae-single"", ""trial_index"": 10, ""isRepeat"": 0}"
