,subId,rt,imgName,rating,trial_index,debug_mode
0,A35P8YSNTQ7OTP:3VJ40NV2QKUQZLMFO21W78PSDDYTO7,2319,136182_-0.3686868686868687.png,5,2,live
1,A35P8YSNTQ7OTP:3VJ40NV2QKUQZLMFO21W78PSDDYTO7,3502,136257_0.38888888888888895.png,5,3,live
2,A35P8YSNTQ7OTP:3VJ40NV2QKUQZLMFO21W78PSDDYTO7,1989,136172_-0.4696969696969697.png,5,4,live
3,A35P8YSNTQ7OTP:3VJ40NV2QKUQZLMFO21W78PSDDYTO7,1683,136207_-0.11616161616161613.png,5,5,live
4,A35P8YSNTQ7OTP:3VJ40NV2QKUQZLMFO21W78PSDDYTO7,1722,136201_-0.17676767676767674.png,5,6,live
5,A35P8YSNTQ7OTP:3VJ40NV2QKUQZLMFO21W78PSDDYTO7,3111,136255_0.36868686868686873.png,5,7,live
6,A35P8YSNTQ7OTP:3VJ40NV2QKUQZLMFO21W78PSDDYTO7,1982,136193_-0.25757575757575757.png,5,8,live
7,A35P8YSNTQ7OTP:3VJ40NV2QKUQZLMFO21W78PSDDYTO7,1838,136244_0.2575757575757577.png,5,9,live
8,A35P8YSNTQ7OTP:3VJ40NV2QKUQZLMFO21W78PSDDYTO7,2001,136182_-0.3686868686868687.png,5,10,live
9,A35P8YSNTQ7OTP:3VJ40NV2QKUQZLMFO21W78PSDDYTO7,1983,136196_-0.22727272727272724.png,5,11,live
10,A35P8YSNTQ7OTP:3VJ40NV2QKUQZLMFO21W78PSDDYTO7,4897,136217_-0.015151515151515138.png,5,13,live
11,A35P8YSNTQ7OTP:3VJ40NV2QKUQZLMFO21W78PSDDYTO7,1759,136231_0.1262626262626263.png,5,14,live
12,A35P8YSNTQ7OTP:3VJ40NV2QKUQZLMFO21W78PSDDYTO7,2500,136194_-0.24747474747474746.png,5,15,live
13,A35P8YSNTQ7OTP:3VJ40NV2QKUQZLMFO21W78PSDDYTO7,1592,136210_-0.0858585858585858.png,5,16,live
14,A35P8YSNTQ7OTP:3VJ40NV2QKUQZLMFO21W78PSDDYTO7,1737,136175_-0.4393939393939394.png,5,17,live
15,A35P8YSNTQ7OTP:3VJ40NV2QKUQZLMFO21W78PSDDYTO7,1382,136216_-0.025252525252525193.png,5,18,live
16,A35P8YSNTQ7OTP:3VJ40NV2QKUQZLMFO21W78PSDDYTO7,1748,136247_0.28787878787878796.png,5,19,live
17,A35P8YSNTQ7OTP:3VJ40NV2QKUQZLMFO21W78PSDDYTO7,2228,136234_0.15656565656565657.png,5,20,live
18,A35P8YSNTQ7OTP:3VJ40NV2QKUQZLMFO21W78PSDDYTO7,2218,136262_0.43939393939393945.png,5,21,live
19,A35P8YSNTQ7OTP:3VJ40NV2QKUQZLMFO21W78PSDDYTO7,2182,136240_0.21717171717171724.png,5,22,live
20,A35P8YSNTQ7OTP:3VJ40NV2QKUQZLMFO21W78PSDDYTO7,2249,136183_-0.35858585858585856.png,5,24,live
21,A35P8YSNTQ7OTP:3VJ40NV2QKUQZLMFO21W78PSDDYTO7,15423,136184_-0.3484848484848485.png,5,25,live
22,A35P8YSNTQ7OTP:3VJ40NV2QKUQZLMFO21W78PSDDYTO7,2267,136267_0.48989898989898994.png,5,26,live
23,A35P8YSNTQ7OTP:3VJ40NV2QKUQZLMFO21W78PSDDYTO7,1914,136232_0.13636363636363646.png,5,27,live
24,A35P8YSNTQ7OTP:3VJ40NV2QKUQZLMFO21W78PSDDYTO7,1982,136202_-0.16666666666666663.png,5,28,live
25,A35P8YSNTQ7OTP:3VJ40NV2QKUQZLMFO21W78PSDDYTO7,1704,136234_0.15656565656565657.png,5,29,live
26,A35P8YSNTQ7OTP:3VJ40NV2QKUQZLMFO21W78PSDDYTO7,1616,136228_0.09595959595959602.png,5,30,live
27,A35P8YSNTQ7OTP:3VJ40NV2QKUQZLMFO21W78PSDDYTO7,1758,136228_0.09595959595959602.png,5,31,live
28,A35P8YSNTQ7OTP:3VJ40NV2QKUQZLMFO21W78PSDDYTO7,1730,136178_-0.40909090909090906.png,5,32,live
29,A35P8YSNTQ7OTP:3VJ40NV2QKUQZLMFO21W78PSDDYTO7,1548,136219_0.005050505050505083.png,5,33,live
30,A35P8YSNTQ7OTP:3VJ40NV2QKUQZLMFO21W78PSDDYTO7,2063,136210_-0.0858585858585858.png,5,35,live
31,A35P8YSNTQ7OTP:3VJ40NV2QKUQZLMFO21W78PSDDYTO7,2361,136255_0.36868686868686873.png,5,36,live
32,A35P8YSNTQ7OTP:3VJ40NV2QKUQZLMFO21W78PSDDYTO7,1331,136191_-0.2777777777777778.png,5,37,live
33,A35P8YSNTQ7OTP:3VJ40NV2QKUQZLMFO21W78PSDDYTO7,2664,136214_-0.045454545454545414.png,5,38,live
34,A35P8YSNTQ7OTP:3VJ40NV2QKUQZLMFO21W78PSDDYTO7,2038,136205_-0.13636363636363635.png,5,39,live
35,A35P8YSNTQ7OTP:3VJ40NV2QKUQZLMFO21W78PSDDYTO7,1828,136179_-0.398989898989899.png,5,40,live
36,A35P8YSNTQ7OTP:3VJ40NV2QKUQZLMFO21W78PSDDYTO7,1618,136246_0.2777777777777778.png,5,41,live
37,A35P8YSNTQ7OTP:3VJ40NV2QKUQZLMFO21W78PSDDYTO7,1679,136200_-0.18686868686868685.png,5,42,live
38,A35P8YSNTQ7OTP:3VJ40NV2QKUQZLMFO21W78PSDDYTO7,1593,136239_0.20707070707070718.png,5,43,live
39,A35P8YSNTQ7OTP:3VJ40NV2QKUQZLMFO21W78PSDDYTO7,1890,136173_-0.4595959595959596.png,5,44,live
40,A35P8YSNTQ7OTP:3VJ40NV2QKUQZLMFO21W78PSDDYTO7,2323,136233_0.14646464646464652.png,5,46,live
41,A35P8YSNTQ7OTP:3VJ40NV2QKUQZLMFO21W78PSDDYTO7,1640,136237_0.18686868686868696.png,5,47,live
42,A35P8YSNTQ7OTP:3VJ40NV2QKUQZLMFO21W78PSDDYTO7,1970,136203_-0.15656565656565652.png,5,48,live
43,A35P8YSNTQ7OTP:3VJ40NV2QKUQZLMFO21W78PSDDYTO7,1892,136203_-0.15656565656565652.png,5,49,live
44,A35P8YSNTQ7OTP:3VJ40NV2QKUQZLMFO21W78PSDDYTO7,1707,136176_-0.4292929292929293.png,5,50,live
45,A35P8YSNTQ7OTP:3VJ40NV2QKUQZLMFO21W78PSDDYTO7,1642,136258_0.3989898989898991.png,5,51,live
46,A35P8YSNTQ7OTP:3VJ40NV2QKUQZLMFO21W78PSDDYTO7,1788,136199_-0.19696969696969696.png,5,52,live
47,A35P8YSNTQ7OTP:3VJ40NV2QKUQZLMFO21W78PSDDYTO7,1685,136208_-0.10606060606060602.png,5,53,live
48,A35P8YSNTQ7OTP:3VJ40NV2QKUQZLMFO21W78PSDDYTO7,1808,136215_-0.035353535353535304.png,5,54,live
49,A35P8YSNTQ7OTP:3VJ40NV2QKUQZLMFO21W78PSDDYTO7,3984,136211_-0.07575757575757575.png,5,55,live
50,A35P8YSNTQ7OTP:3VJ40NV2QKUQZLMFO21W78PSDDYTO7,1799,136213_-0.055555555555555525.png,5,57,live
51,A35P8YSNTQ7OTP:3VJ40NV2QKUQZLMFO21W78PSDDYTO7,1700,136238_0.19696969696969702.png,5,58,live
52,A35P8YSNTQ7OTP:3VJ40NV2QKUQZLMFO21W78PSDDYTO7,1716,136212_-0.06565656565656564.png,5,59,live
53,A35P8YSNTQ7OTP:3VJ40NV2QKUQZLMFO21W78PSDDYTO7,1837,136189_-0.29797979797979796.png,5,60,live
54,A35P8YSNTQ7OTP:3VJ40NV2QKUQZLMFO21W78PSDDYTO7,1788,136238_0.19696969696969702.png,5,61,live
55,A35P8YSNTQ7OTP:3VJ40NV2QKUQZLMFO21W78PSDDYTO7,1736,136222_0.03535353535353536.png,5,62,live
56,A35P8YSNTQ7OTP:3VJ40NV2QKUQZLMFO21W78PSDDYTO7,1929,136187_-0.3181818181818182.png,5,63,live
57,A35P8YSNTQ7OTP:3VJ40NV2QKUQZLMFO21W78PSDDYTO7,1634,136191_-0.2777777777777778.png,5,64,live
58,A35P8YSNTQ7OTP:3VJ40NV2QKUQZLMFO21W78PSDDYTO7,1587,136188_-0.30808080808080807.png,5,65,live
59,A35P8YSNTQ7OTP:3VJ40NV2QKUQZLMFO21W78PSDDYTO7,1943,136177_-0.41919191919191917.png,5,66,live
60,A35P8YSNTQ7OTP:3VJ40NV2QKUQZLMFO21W78PSDDYTO7,1570,136204_-0.1464646464646464.png,5,68,live
61,A35P8YSNTQ7OTP:3VJ40NV2QKUQZLMFO21W78PSDDYTO7,1694,136175_-0.4393939393939394.png,5,69,live
62,A35P8YSNTQ7OTP:3VJ40NV2QKUQZLMFO21W78PSDDYTO7,1728,136220_0.015151515151515249.png,5,70,live
63,A35P8YSNTQ7OTP:3VJ40NV2QKUQZLMFO21W78PSDDYTO7,1517,136257_0.38888888888888895.png,5,71,live
64,A35P8YSNTQ7OTP:3VJ40NV2QKUQZLMFO21W78PSDDYTO7,1888,136221_0.025252525252525304.png,5,72,live
65,A35P8YSNTQ7OTP:3VJ40NV2QKUQZLMFO21W78PSDDYTO7,2051,136229_0.10606060606060608.png,5,73,live
66,A35P8YSNTQ7OTP:3VJ40NV2QKUQZLMFO21W78PSDDYTO7,2724,136254_0.3585858585858587.png,5,74,live
67,A35P8YSNTQ7OTP:3VJ40NV2QKUQZLMFO21W78PSDDYTO7,1617,136196_-0.22727272727272724.png,5,75,live
68,A35P8YSNTQ7OTP:3VJ40NV2QKUQZLMFO21W78PSDDYTO7,1676,136171_-0.4797979797979798.png,5,76,live
69,A35P8YSNTQ7OTP:3VJ40NV2QKUQZLMFO21W78PSDDYTO7,1897,136185_-0.33838383838383834.png,5,77,live
70,A35P8YSNTQ7OTP:3VJ40NV2QKUQZLMFO21W78PSDDYTO7,2187,136251_0.3282828282828284.png,5,79,live
71,A35P8YSNTQ7OTP:3VJ40NV2QKUQZLMFO21W78PSDDYTO7,2996,136264_0.45959595959595967.png,5,80,live
72,A35P8YSNTQ7OTP:3VJ40NV2QKUQZLMFO21W78PSDDYTO7,3009,136225_0.06565656565656575.png,5,81,live
73,A35P8YSNTQ7OTP:3VJ40NV2QKUQZLMFO21W78PSDDYTO7,1700,136171_-0.4797979797979798.png,5,82,live
74,A35P8YSNTQ7OTP:3VJ40NV2QKUQZLMFO21W78PSDDYTO7,2069,136209_-0.09595959595959591.png,5,83,live
75,A35P8YSNTQ7OTP:3VJ40NV2QKUQZLMFO21W78PSDDYTO7,1527,136266_0.4797979797979799.png,5,84,live
76,A35P8YSNTQ7OTP:3VJ40NV2QKUQZLMFO21W78PSDDYTO7,3665,136227_0.08585858585858586.png,5,85,live
77,A35P8YSNTQ7OTP:3VJ40NV2QKUQZLMFO21W78PSDDYTO7,1958,136250_0.31818181818181823.png,5,86,live
78,A35P8YSNTQ7OTP:3VJ40NV2QKUQZLMFO21W78PSDDYTO7,1996,136227_0.08585858585858586.png,5,87,live
79,A35P8YSNTQ7OTP:3VJ40NV2QKUQZLMFO21W78PSDDYTO7,2180,136202_-0.16666666666666663.png,5,88,live
80,A35P8YSNTQ7OTP:3VJ40NV2QKUQZLMFO21W78PSDDYTO7,1639,136223_0.045454545454545525.png,5,90,live
81,A35P8YSNTQ7OTP:3VJ40NV2QKUQZLMFO21W78PSDDYTO7,1747,136192_-0.2676767676767676.png,5,91,live
82,A35P8YSNTQ7OTP:3VJ40NV2QKUQZLMFO21W78PSDDYTO7,1903,136170_-0.4898989898989899.png,5,92,live
83,A35P8YSNTQ7OTP:3VJ40NV2QKUQZLMFO21W78PSDDYTO7,1861,136197_-0.21717171717171713.png,5,93,live
84,A35P8YSNTQ7OTP:3VJ40NV2QKUQZLMFO21W78PSDDYTO7,1871,136222_0.03535353535353536.png,5,94,live
85,A35P8YSNTQ7OTP:3VJ40NV2QKUQZLMFO21W78PSDDYTO7,2516,136243_0.24747474747474751.png,5,95,live
86,A35P8YSNTQ7OTP:3VJ40NV2QKUQZLMFO21W78PSDDYTO7,2144,136190_-0.28787878787878785.png,5,96,live
87,A35P8YSNTQ7OTP:3VJ40NV2QKUQZLMFO21W78PSDDYTO7,1644,136225_0.06565656565656575.png,5,97,live
88,A35P8YSNTQ7OTP:3VJ40NV2QKUQZLMFO21W78PSDDYTO7,2073,136186_-0.3282828282828283.png,5,98,live
89,A35P8YSNTQ7OTP:3VJ40NV2QKUQZLMFO21W78PSDDYTO7,1528,136262_0.43939393939393945.png,5,99,live
90,A35P8YSNTQ7OTP:3VJ40NV2QKUQZLMFO21W78PSDDYTO7,1644,136249_0.3080808080808082.png,5,101,live
91,A35P8YSNTQ7OTP:3VJ40NV2QKUQZLMFO21W78PSDDYTO7,1530,136216_-0.025252525252525193.png,5,102,live
92,A35P8YSNTQ7OTP:3VJ40NV2QKUQZLMFO21W78PSDDYTO7,1952,136181_-0.3787878787878788.png,5,103,live
93,A35P8YSNTQ7OTP:3VJ40NV2QKUQZLMFO21W78PSDDYTO7,3108,136206_-0.12626262626262624.png,5,104,live
94,A35P8YSNTQ7OTP:3VJ40NV2QKUQZLMFO21W78PSDDYTO7,1684,136263_0.4494949494949496.png,5,105,live
95,A35P8YSNTQ7OTP:3VJ40NV2QKUQZLMFO21W78PSDDYTO7,2067,136177_-0.41919191919191917.png,5,106,live
96,A35P8YSNTQ7OTP:3VJ40NV2QKUQZLMFO21W78PSDDYTO7,1976,136208_-0.10606060606060602.png,5,107,live
97,A35P8YSNTQ7OTP:3VJ40NV2QKUQZLMFO21W78PSDDYTO7,1881,136241_0.2272727272727273.png,5,108,live
98,A35P8YSNTQ7OTP:3VJ40NV2QKUQZLMFO21W78PSDDYTO7,1690,136226_0.0757575757575758.png,5,109,live
99,A35P8YSNTQ7OTP:3VJ40NV2QKUQZLMFO21W78PSDDYTO7,1719,136198_-0.20707070707070707.png,5,110,live
100,A1P0M5D9IGZIDK:34PGFRQONQI4QRZC3UE2MWF5ID6WJH,7363,136223_0.045454545454545525.png,2,2,live
101,A1P0M5D9IGZIDK:34PGFRQONQI4QRZC3UE2MWF5ID6WJH,5115,136264_0.45959595959595967.png,5,3,live
102,A1P0M5D9IGZIDK:34PGFRQONQI4QRZC3UE2MWF5ID6WJH,4283,136181_-0.3787878787878788.png,8,4,live
103,A1P0M5D9IGZIDK:34PGFRQONQI4QRZC3UE2MWF5ID6WJH,4684,136227_0.08585858585858586.png,2,5,live
104,A1P0M5D9IGZIDK:34PGFRQONQI4QRZC3UE2MWF5ID6WJH,4119,136203_-0.15656565656565652.png,5,6,live
105,A1P0M5D9IGZIDK:34PGFRQONQI4QRZC3UE2MWF5ID6WJH,3255,136263_0.4494949494949496.png,5,7,live
106,A1P0M5D9IGZIDK:34PGFRQONQI4QRZC3UE2MWF5ID6WJH,3718,136201_-0.17676767676767674.png,5,8,live
107,A1P0M5D9IGZIDK:34PGFRQONQI4QRZC3UE2MWF5ID6WJH,4617,136234_0.15656565656565657.png,2,9,live
108,A1P0M5D9IGZIDK:34PGFRQONQI4QRZC3UE2MWF5ID6WJH,3896,136217_-0.015151515151515138.png,5,10,live
109,A1P0M5D9IGZIDK:34PGFRQONQI4QRZC3UE2MWF5ID6WJH,3467,136244_0.2575757575757577.png,2,11,live
110,A1P0M5D9IGZIDK:34PGFRQONQI4QRZC3UE2MWF5ID6WJH,3275,136216_-0.025252525252525193.png,5,13,live
111,A1P0M5D9IGZIDK:34PGFRQONQI4QRZC3UE2MWF5ID6WJH,3350,136226_0.0757575757575758.png,8,14,live
112,A1P0M5D9IGZIDK:34PGFRQONQI4QRZC3UE2MWF5ID6WJH,4051,136172_-0.4696969696969697.png,2,15,live
113,A1P0M5D9IGZIDK:34PGFRQONQI4QRZC3UE2MWF5ID6WJH,3184,136240_0.21717171717171724.png,2,16,live
114,A1P0M5D9IGZIDK:34PGFRQONQI4QRZC3UE2MWF5ID6WJH,3380,136246_0.2777777777777778.png,2,17,live
115,A1P0M5D9IGZIDK:34PGFRQONQI4QRZC3UE2MWF5ID6WJH,3173,136175_-0.4393939393939394.png,2,18,live
116,A1P0M5D9IGZIDK:34PGFRQONQI4QRZC3UE2MWF5ID6WJH,2992,136199_-0.19696969696969696.png,5,19,live
117,A1P0M5D9IGZIDK:34PGFRQONQI4QRZC3UE2MWF5ID6WJH,3504,136210_-0.0858585858585858.png,2,20,live
118,A1P0M5D9IGZIDK:34PGFRQONQI4QRZC3UE2MWF5ID6WJH,3278,136216_-0.025252525252525193.png,5,21,live
119,A1P0M5D9IGZIDK:34PGFRQONQI4QRZC3UE2MWF5ID6WJH,2844,136225_0.06565656565656575.png,5,22,live
120,A1P0M5D9IGZIDK:34PGFRQONQI4QRZC3UE2MWF5ID6WJH,4531,136212_-0.06565656565656564.png,5,24,live
121,A1P0M5D9IGZIDK:34PGFRQONQI4QRZC3UE2MWF5ID6WJH,5875,136239_0.20707070707070718.png,8,25,live
122,A1P0M5D9IGZIDK:34PGFRQONQI4QRZC3UE2MWF5ID6WJH,4878,136202_-0.16666666666666663.png,8,26,live
123,A1P0M5D9IGZIDK:34PGFRQONQI4QRZC3UE2MWF5ID6WJH,3372,136186_-0.3282828282828283.png,2,27,live
124,A1P0M5D9IGZIDK:34PGFRQONQI4QRZC3UE2MWF5ID6WJH,3115,136247_0.28787878787878796.png,2,28,live
125,A1P0M5D9IGZIDK:34PGFRQONQI4QRZC3UE2MWF5ID6WJH,3148,136255_0.36868686868686873.png,2,29,live
126,A1P0M5D9IGZIDK:34PGFRQONQI4QRZC3UE2MWF5ID6WJH,3619,136231_0.1262626262626263.png,5,30,live
127,A1P0M5D9IGZIDK:34PGFRQONQI4QRZC3UE2MWF5ID6WJH,4561,136262_0.43939393939393945.png,2,31,live
128,A1P0M5D9IGZIDK:34PGFRQONQI4QRZC3UE2MWF5ID6WJH,3153,136207_-0.11616161616161613.png,2,32,live
129,A1P0M5D9IGZIDK:34PGFRQONQI4QRZC3UE2MWF5ID6WJH,2766,136175_-0.4393939393939394.png,2,33,live
130,A1P0M5D9IGZIDK:34PGFRQONQI4QRZC3UE2MWF5ID6WJH,3929,136250_0.31818181818181823.png,5,35,live
131,A1P0M5D9IGZIDK:34PGFRQONQI4QRZC3UE2MWF5ID6WJH,3343,136171_-0.4797979797979798.png,5,36,live
132,A1P0M5D9IGZIDK:34PGFRQONQI4QRZC3UE2MWF5ID6WJH,3273,136267_0.48989898989898994.png,2,37,live
133,A1P0M5D9IGZIDK:34PGFRQONQI4QRZC3UE2MWF5ID6WJH,4333,136177_-0.41919191919191917.png,8,38,live
134,A1P0M5D9IGZIDK:34PGFRQONQI4QRZC3UE2MWF5ID6WJH,3838,136178_-0.40909090909090906.png,2,39,live
135,A1P0M5D9IGZIDK:34PGFRQONQI4QRZC3UE2MWF5ID6WJH,3245,136173_-0.4595959595959596.png,2,40,live
136,A1P0M5D9IGZIDK:34PGFRQONQI4QRZC3UE2MWF5ID6WJH,3501,136232_0.13636363636363646.png,8,41,live
137,A1P0M5D9IGZIDK:34PGFRQONQI4QRZC3UE2MWF5ID6WJH,4600,136258_0.3989898989898991.png,5,42,live
138,A1P0M5D9IGZIDK:34PGFRQONQI4QRZC3UE2MWF5ID6WJH,4625,136221_0.025252525252525304.png,2,43,live
139,A1P0M5D9IGZIDK:34PGFRQONQI4QRZC3UE2MWF5ID6WJH,3165,136177_-0.41919191919191917.png,8,44,live
140,A1P0M5D9IGZIDK:34PGFRQONQI4QRZC3UE2MWF5ID6WJH,4604,136222_0.03535353535353536.png,8,46,live
141,A1P0M5D9IGZIDK:34PGFRQONQI4QRZC3UE2MWF5ID6WJH,2892,136254_0.3585858585858587.png,2,47,live
142,A1P0M5D9IGZIDK:34PGFRQONQI4QRZC3UE2MWF5ID6WJH,4234,136183_-0.35858585858585856.png,8,48,live
143,A1P0M5D9IGZIDK:34PGFRQONQI4QRZC3UE2MWF5ID6WJH,3722,136209_-0.09595959595959591.png,8,49,live
144,A1P0M5D9IGZIDK:34PGFRQONQI4QRZC3UE2MWF5ID6WJH,5688,136228_0.09595959595959602.png,5,50,live
145,A1P0M5D9IGZIDK:34PGFRQONQI4QRZC3UE2MWF5ID6WJH,3201,136238_0.19696969696969702.png,5,51,live
146,A1P0M5D9IGZIDK:34PGFRQONQI4QRZC3UE2MWF5ID6WJH,2873,136227_0.08585858585858586.png,2,52,live
147,A1P0M5D9IGZIDK:34PGFRQONQI4QRZC3UE2MWF5ID6WJH,3878,136191_-0.2777777777777778.png,8,53,live
148,A1P0M5D9IGZIDK:34PGFRQONQI4QRZC3UE2MWF5ID6WJH,2795,136238_0.19696969696969702.png,5,54,live
149,A1P0M5D9IGZIDK:34PGFRQONQI4QRZC3UE2MWF5ID6WJH,3425,136204_-0.1464646464646464.png,5,55,live
150,A1P0M5D9IGZIDK:34PGFRQONQI4QRZC3UE2MWF5ID6WJH,3893,136257_0.38888888888888895.png,5,57,live
151,A1P0M5D9IGZIDK:34PGFRQONQI4QRZC3UE2MWF5ID6WJH,4078,136182_-0.3686868686868687.png,5,58,live
152,A1P0M5D9IGZIDK:34PGFRQONQI4QRZC3UE2MWF5ID6WJH,3106,136206_-0.12626262626262624.png,5,59,live
153,A1P0M5D9IGZIDK:34PGFRQONQI4QRZC3UE2MWF5ID6WJH,4176,136184_-0.3484848484848485.png,5,60,live
154,A1P0M5D9IGZIDK:34PGFRQONQI4QRZC3UE2MWF5ID6WJH,3115,136171_-0.4797979797979798.png,5,61,live
155,A1P0M5D9IGZIDK:34PGFRQONQI4QRZC3UE2MWF5ID6WJH,3884,136255_0.36868686868686873.png,2,62,live
156,A1P0M5D9IGZIDK:34PGFRQONQI4QRZC3UE2MWF5ID6WJH,2850,136233_0.14646464646464652.png,5,63,live
157,A1P0M5D9IGZIDK:34PGFRQONQI4QRZC3UE2MWF5ID6WJH,5377,136215_-0.035353535353535304.png,2,64,live
158,A1P0M5D9IGZIDK:34PGFRQONQI4QRZC3UE2MWF5ID6WJH,3936,136208_-0.10606060606060602.png,2,65,live
159,A1P0M5D9IGZIDK:34PGFRQONQI4QRZC3UE2MWF5ID6WJH,3030,136192_-0.2676767676767676.png,2,66,live
160,A1P0M5D9IGZIDK:34PGFRQONQI4QRZC3UE2MWF5ID6WJH,3079,136222_0.03535353535353536.png,8,68,live
161,A1P0M5D9IGZIDK:34PGFRQONQI4QRZC3UE2MWF5ID6WJH,3140,136249_0.3080808080808082.png,5,69,live
162,A1P0M5D9IGZIDK:34PGFRQONQI4QRZC3UE2MWF5ID6WJH,3494,136194_-0.24747474747474746.png,2,70,live
163,A1P0M5D9IGZIDK:34PGFRQONQI4QRZC3UE2MWF5ID6WJH,2899,136257_0.38888888888888895.png,5,71,live
164,A1P0M5D9IGZIDK:34PGFRQONQI4QRZC3UE2MWF5ID6WJH,4441,136229_0.10606060606060608.png,5,72,live
165,A1P0M5D9IGZIDK:34PGFRQONQI4QRZC3UE2MWF5ID6WJH,2540,136188_-0.30808080808080807.png,5,73,live
166,A1P0M5D9IGZIDK:34PGFRQONQI4QRZC3UE2MWF5ID6WJH,3358,136196_-0.22727272727272724.png,5,74,live
167,A1P0M5D9IGZIDK:34PGFRQONQI4QRZC3UE2MWF5ID6WJH,2853,136203_-0.15656565656565652.png,5,75,live
168,A1P0M5D9IGZIDK:34PGFRQONQI4QRZC3UE2MWF5ID6WJH,2697,136214_-0.045454545454545414.png,5,76,live
169,A1P0M5D9IGZIDK:34PGFRQONQI4QRZC3UE2MWF5ID6WJH,4342,136220_0.015151515151515249.png,5,77,live
170,A1P0M5D9IGZIDK:34PGFRQONQI4QRZC3UE2MWF5ID6WJH,2766,136213_-0.055555555555555525.png,5,79,live
171,A1P0M5D9IGZIDK:34PGFRQONQI4QRZC3UE2MWF5ID6WJH,3008,136251_0.3282828282828284.png,5,80,live
172,A1P0M5D9IGZIDK:34PGFRQONQI4QRZC3UE2MWF5ID6WJH,3619,136193_-0.25757575757575757.png,2,81,live
173,A1P0M5D9IGZIDK:34PGFRQONQI4QRZC3UE2MWF5ID6WJH,2921,136182_-0.3686868686868687.png,5,82,live
174,A1P0M5D9IGZIDK:34PGFRQONQI4QRZC3UE2MWF5ID6WJH,2967,136208_-0.10606060606060602.png,2,83,live
175,A1P0M5D9IGZIDK:34PGFRQONQI4QRZC3UE2MWF5ID6WJH,4551,136241_0.2272727272727273.png,5,84,live
176,A1P0M5D9IGZIDK:34PGFRQONQI4QRZC3UE2MWF5ID6WJH,4089,136211_-0.07575757575757575.png,5,85,live
177,A1P0M5D9IGZIDK:34PGFRQONQI4QRZC3UE2MWF5ID6WJH,3231,136170_-0.4898989898989899.png,5,86,live
178,A1P0M5D9IGZIDK:34PGFRQONQI4QRZC3UE2MWF5ID6WJH,3426,136262_0.43939393939393945.png,5,87,live
179,A1P0M5D9IGZIDK:34PGFRQONQI4QRZC3UE2MWF5ID6WJH,3183,136266_0.4797979797979799.png,5,88,live
180,A1P0M5D9IGZIDK:34PGFRQONQI4QRZC3UE2MWF5ID6WJH,2812,136205_-0.13636363636363635.png,5,90,live
181,A1P0M5D9IGZIDK:34PGFRQONQI4QRZC3UE2MWF5ID6WJH,2873,136237_0.18686868686868696.png,5,91,live
182,A1P0M5D9IGZIDK:34PGFRQONQI4QRZC3UE2MWF5ID6WJH,2881,136187_-0.3181818181818182.png,5,92,live
183,A1P0M5D9IGZIDK:34PGFRQONQI4QRZC3UE2MWF5ID6WJH,2931,136196_-0.22727272727272724.png,5,93,live
184,A1P0M5D9IGZIDK:34PGFRQONQI4QRZC3UE2MWF5ID6WJH,4407,136179_-0.398989898989899.png,5,94,live
185,A1P0M5D9IGZIDK:34PGFRQONQI4QRZC3UE2MWF5ID6WJH,3809,136176_-0.4292929292929293.png,5,95,live
186,A1P0M5D9IGZIDK:34PGFRQONQI4QRZC3UE2MWF5ID6WJH,3706,136228_0.09595959595959602.png,5,96,live
187,A1P0M5D9IGZIDK:34PGFRQONQI4QRZC3UE2MWF5ID6WJH,3252,136243_0.24747474747474751.png,8,97,live
188,A1P0M5D9IGZIDK:34PGFRQONQI4QRZC3UE2MWF5ID6WJH,3019,136225_0.06565656565656575.png,5,98,live
189,A1P0M5D9IGZIDK:34PGFRQONQI4QRZC3UE2MWF5ID6WJH,2899,136197_-0.21717171717171713.png,5,99,live
190,A1P0M5D9IGZIDK:34PGFRQONQI4QRZC3UE2MWF5ID6WJH,3957,136219_0.005050505050505083.png,8,101,live
191,A1P0M5D9IGZIDK:34PGFRQONQI4QRZC3UE2MWF5ID6WJH,3427,136198_-0.20707070707070707.png,8,102,live
192,A1P0M5D9IGZIDK:34PGFRQONQI4QRZC3UE2MWF5ID6WJH,3235,136189_-0.29797979797979796.png,5,103,live
193,A1P0M5D9IGZIDK:34PGFRQONQI4QRZC3UE2MWF5ID6WJH,3096,136200_-0.18686868686868685.png,5,104,live
194,A1P0M5D9IGZIDK:34PGFRQONQI4QRZC3UE2MWF5ID6WJH,3181,136191_-0.2777777777777778.png,8,105,live
195,A1P0M5D9IGZIDK:34PGFRQONQI4QRZC3UE2MWF5ID6WJH,2764,136185_-0.33838383838383834.png,5,106,live
196,A1P0M5D9IGZIDK:34PGFRQONQI4QRZC3UE2MWF5ID6WJH,3556,136234_0.15656565656565657.png,2,107,live
197,A1P0M5D9IGZIDK:34PGFRQONQI4QRZC3UE2MWF5ID6WJH,2626,136190_-0.28787878787878785.png,5,108,live
198,A1P0M5D9IGZIDK:34PGFRQONQI4QRZC3UE2MWF5ID6WJH,3243,136202_-0.16666666666666663.png,8,109,live
199,A1P0M5D9IGZIDK:34PGFRQONQI4QRZC3UE2MWF5ID6WJH,3372,136210_-0.0858585858585858.png,5,110,live
200,A10JXOU89D5RXR:374TNBHA8D2P1JYPDLGZ4UC77GYQY1,8782,136192_-0.2676767676767676.png,2,2,live
201,A10JXOU89D5RXR:374TNBHA8D2P1JYPDLGZ4UC77GYQY1,14173,136188_-0.30808080808080807.png,4,3,live
202,A10JXOU89D5RXR:374TNBHA8D2P1JYPDLGZ4UC77GYQY1,7202,136225_0.06565656565656575.png,7,4,live
203,A10JXOU89D5RXR:374TNBHA8D2P1JYPDLGZ4UC77GYQY1,4169,136199_-0.19696969696969696.png,5,5,live
204,A10JXOU89D5RXR:374TNBHA8D2P1JYPDLGZ4UC77GYQY1,7490,136171_-0.4797979797979798.png,6,6,live
205,A10JXOU89D5RXR:374TNBHA8D2P1JYPDLGZ4UC77GYQY1,5875,136177_-0.41919191919191917.png,5,7,live
206,A10JXOU89D5RXR:374TNBHA8D2P1JYPDLGZ4UC77GYQY1,10412,136204_-0.1464646464646464.png,4,8,live
207,A10JXOU89D5RXR:374TNBHA8D2P1JYPDLGZ4UC77GYQY1,5468,136198_-0.20707070707070707.png,4,9,live
208,A10JXOU89D5RXR:374TNBHA8D2P1JYPDLGZ4UC77GYQY1,5572,136214_-0.045454545454545414.png,5,10,live
209,A10JXOU89D5RXR:374TNBHA8D2P1JYPDLGZ4UC77GYQY1,7042,136226_0.0757575757575758.png,7,11,live
210,A10JXOU89D5RXR:374TNBHA8D2P1JYPDLGZ4UC77GYQY1,8923,136175_-0.4393939393939394.png,6,13,live
211,A10JXOU89D5RXR:374TNBHA8D2P1JYPDLGZ4UC77GYQY1,10871,136232_0.13636363636363646.png,8,14,live
212,A10JXOU89D5RXR:374TNBHA8D2P1JYPDLGZ4UC77GYQY1,9581,136182_-0.3686868686868687.png,5,15,live
213,A10JXOU89D5RXR:374TNBHA8D2P1JYPDLGZ4UC77GYQY1,5656,136243_0.24747474747474751.png,7,16,live
214,A10JXOU89D5RXR:374TNBHA8D2P1JYPDLGZ4UC77GYQY1,5182,136201_-0.17676767676767674.png,5,17,live
215,A10JXOU89D5RXR:374TNBHA8D2P1JYPDLGZ4UC77GYQY1,6515,136250_0.31818181818181823.png,7,18,live
216,A10JXOU89D5RXR:374TNBHA8D2P1JYPDLGZ4UC77GYQY1,4659,136231_0.1262626262626263.png,6,19,live
217,A10JXOU89D5RXR:374TNBHA8D2P1JYPDLGZ4UC77GYQY1,6023,136196_-0.22727272727272724.png,7,20,live
218,A10JXOU89D5RXR:374TNBHA8D2P1JYPDLGZ4UC77GYQY1,6261,136176_-0.4292929292929293.png,3,21,live
219,A10JXOU89D5RXR:374TNBHA8D2P1JYPDLGZ4UC77GYQY1,8734,136179_-0.398989898989899.png,7,22,live
220,A10JXOU89D5RXR:374TNBHA8D2P1JYPDLGZ4UC77GYQY1,5466,136239_0.20707070707070718.png,8,24,live
221,A10JXOU89D5RXR:374TNBHA8D2P1JYPDLGZ4UC77GYQY1,4813,136211_-0.07575757575757575.png,7,25,live
222,A10JXOU89D5RXR:374TNBHA8D2P1JYPDLGZ4UC77GYQY1,5546,136262_0.43939393939393945.png,7,26,live
223,A10JXOU89D5RXR:374TNBHA8D2P1JYPDLGZ4UC77GYQY1,5168,136238_0.19696969696969702.png,6,27,live
224,A10JXOU89D5RXR:374TNBHA8D2P1JYPDLGZ4UC77GYQY1,5744,136221_0.025252525252525304.png,8,28,live
225,A10JXOU89D5RXR:374TNBHA8D2P1JYPDLGZ4UC77GYQY1,5506,136241_0.2272727272727273.png,5,29,live
226,A10JXOU89D5RXR:374TNBHA8D2P1JYPDLGZ4UC77GYQY1,5912,136216_-0.025252525252525193.png,6,30,live
227,A10JXOU89D5RXR:374TNBHA8D2P1JYPDLGZ4UC77GYQY1,4705,136220_0.015151515151515249.png,5,31,live
228,A10JXOU89D5RXR:374TNBHA8D2P1JYPDLGZ4UC77GYQY1,8761,136219_0.005050505050505083.png,7,32,live
229,A10JXOU89D5RXR:374TNBHA8D2P1JYPDLGZ4UC77GYQY1,6606,136247_0.28787878787878796.png,7,33,live
230,A10JXOU89D5RXR:374TNBHA8D2P1JYPDLGZ4UC77GYQY1,5712,136223_0.045454545454545525.png,3,35,live
231,A10JXOU89D5RXR:374TNBHA8D2P1JYPDLGZ4UC77GYQY1,9493,136203_-0.15656565656565652.png,5,36,live
232,A10JXOU89D5RXR:374TNBHA8D2P1JYPDLGZ4UC77GYQY1,4240,136206_-0.12626262626262624.png,8,37,live
233,A10JXOU89D5RXR:374TNBHA8D2P1JYPDLGZ4UC77GYQY1,5283,136212_-0.06565656565656564.png,5,38,live
234,A10JXOU89D5RXR:374TNBHA8D2P1JYPDLGZ4UC77GYQY1,6490,136222_0.03535353535353536.png,8,39,live
235,A10JXOU89D5RXR:374TNBHA8D2P1JYPDLGZ4UC77GYQY1,5451,136191_-0.2777777777777778.png,9,40,live
236,A10JXOU89D5RXR:374TNBHA8D2P1JYPDLGZ4UC77GYQY1,9476,136170_-0.4898989898989899.png,7,41,live
237,A10JXOU89D5RXR:374TNBHA8D2P1JYPDLGZ4UC77GYQY1,4762,136187_-0.3181818181818182.png,6,42,live
238,A10JXOU89D5RXR:374TNBHA8D2P1JYPDLGZ4UC77GYQY1,7756,136229_0.10606060606060608.png,7,43,live
239,A10JXOU89D5RXR:374TNBHA8D2P1JYPDLGZ4UC77GYQY1,5031,136264_0.45959595959595967.png,7,44,live
240,A10JXOU89D5RXR:374TNBHA8D2P1JYPDLGZ4UC77GYQY1,4755,136193_-0.25757575757575757.png,2,46,live
241,A10JXOU89D5RXR:374TNBHA8D2P1JYPDLGZ4UC77GYQY1,4816,136216_-0.025252525252525193.png,6,47,live
242,A10JXOU89D5RXR:374TNBHA8D2P1JYPDLGZ4UC77GYQY1,4280,136184_-0.3484848484848485.png,7,48,live
243,A10JXOU89D5RXR:374TNBHA8D2P1JYPDLGZ4UC77GYQY1,7384,136237_0.18686868686868696.png,8,49,live
244,A10JXOU89D5RXR:374TNBHA8D2P1JYPDLGZ4UC77GYQY1,4858,136210_-0.0858585858585858.png,7,50,live
245,A10JXOU89D5RXR:374TNBHA8D2P1JYPDLGZ4UC77GYQY1,4751,136263_0.4494949494949496.png,6,51,live
246,A10JXOU89D5RXR:374TNBHA8D2P1JYPDLGZ4UC77GYQY1,8154,136215_-0.035353535353535304.png,6,52,live
247,A10JXOU89D5RXR:374TNBHA8D2P1JYPDLGZ4UC77GYQY1,6023,136257_0.38888888888888895.png,6,53,live
248,A10JXOU89D5RXR:374TNBHA8D2P1JYPDLGZ4UC77GYQY1,6419,136177_-0.41919191919191917.png,8,54,live
249,A10JXOU89D5RXR:374TNBHA8D2P1JYPDLGZ4UC77GYQY1,4619,136173_-0.4595959595959596.png,8,55,live
250,A10JXOU89D5RXR:374TNBHA8D2P1JYPDLGZ4UC77GYQY1,5039,136186_-0.3282828282828283.png,4,57,live
251,A10JXOU89D5RXR:374TNBHA8D2P1JYPDLGZ4UC77GYQY1,4355,136227_0.08585858585858586.png,5,58,live
252,A10JXOU89D5RXR:374TNBHA8D2P1JYPDLGZ4UC77GYQY1,5974,136227_0.08585858585858586.png,5,59,live
253,A10JXOU89D5RXR:374TNBHA8D2P1JYPDLGZ4UC77GYQY1,4148,136200_-0.18686868686868685.png,6,60,live
254,A10JXOU89D5RXR:374TNBHA8D2P1JYPDLGZ4UC77GYQY1,4677,136183_-0.35858585858585856.png,7,61,live
255,A10JXOU89D5RXR:374TNBHA8D2P1JYPDLGZ4UC77GYQY1,11659,136213_-0.055555555555555525.png,7,62,live
256,A10JXOU89D5RXR:374TNBHA8D2P1JYPDLGZ4UC77GYQY1,4217,136205_-0.13636363636363635.png,8,63,live
257,A10JXOU89D5RXR:374TNBHA8D2P1JYPDLGZ4UC77GYQY1,6398,136196_-0.22727272727272724.png,8,64,live
258,A10JXOU89D5RXR:374TNBHA8D2P1JYPDLGZ4UC77GYQY1,5038,136208_-0.10606060606060602.png,6,65,live
259,A10JXOU89D5RXR:374TNBHA8D2P1JYPDLGZ4UC77GYQY1,4874,136240_0.21717171717171724.png,6,66,live
260,A10JXOU89D5RXR:374TNBHA8D2P1JYPDLGZ4UC77GYQY1,5687,136185_-0.33838383838383834.png,7,68,live
261,A10JXOU89D5RXR:374TNBHA8D2P1JYPDLGZ4UC77GYQY1,6573,136175_-0.4393939393939394.png,7,69,live
262,A10JXOU89D5RXR:374TNBHA8D2P1JYPDLGZ4UC77GYQY1,3924,136234_0.15656565656565657.png,8,70,live
263,A10JXOU89D5RXR:374TNBHA8D2P1JYPDLGZ4UC77GYQY1,4987,136266_0.4797979797979799.png,8,71,live
264,A10JXOU89D5RXR:374TNBHA8D2P1JYPDLGZ4UC77GYQY1,4202,136233_0.14646464646464652.png,8,72,live
265,A10JXOU89D5RXR:374TNBHA8D2P1JYPDLGZ4UC77GYQY1,6600,136228_0.09595959595959602.png,6,73,live
266,A10JXOU89D5RXR:374TNBHA8D2P1JYPDLGZ4UC77GYQY1,4727,136202_-0.16666666666666663.png,8,74,live
267,A10JXOU89D5RXR:374TNBHA8D2P1JYPDLGZ4UC77GYQY1,12023,136208_-0.10606060606060602.png,6,75,live
268,A10JXOU89D5RXR:374TNBHA8D2P1JYPDLGZ4UC77GYQY1,5998,136258_0.3989898989898991.png,7,76,live
269,A10JXOU89D5RXR:374TNBHA8D2P1JYPDLGZ4UC77GYQY1,4604,136171_-0.4797979797979798.png,7,77,live
270,A10JXOU89D5RXR:374TNBHA8D2P1JYPDLGZ4UC77GYQY1,4260,136249_0.3080808080808082.png,8,79,live
271,A10JXOU89D5RXR:374TNBHA8D2P1JYPDLGZ4UC77GYQY1,4981,136228_0.09595959595959602.png,6,80,live
272,A10JXOU89D5RXR:374TNBHA8D2P1JYPDLGZ4UC77GYQY1,5276,136203_-0.15656565656565652.png,5,81,live
273,A10JXOU89D5RXR:374TNBHA8D2P1JYPDLGZ4UC77GYQY1,5063,136244_0.2575757575757577.png,6,82,live
274,A10JXOU89D5RXR:374TNBHA8D2P1JYPDLGZ4UC77GYQY1,4519,136238_0.19696969696969702.png,6,83,live
275,A10JXOU89D5RXR:374TNBHA8D2P1JYPDLGZ4UC77GYQY1,13732,136181_-0.3787878787878788.png,9,84,live
276,A10JXOU89D5RXR:374TNBHA8D2P1JYPDLGZ4UC77GYQY1,4599,136194_-0.24747474747474746.png,7,85,live
277,A10JXOU89D5RXR:374TNBHA8D2P1JYPDLGZ4UC77GYQY1,5965,136189_-0.29797979797979796.png,6,86,live
278,A10JXOU89D5RXR:374TNBHA8D2P1JYPDLGZ4UC77GYQY1,4744,136172_-0.4696969696969697.png,8,87,live
279,A10JXOU89D5RXR:374TNBHA8D2P1JYPDLGZ4UC77GYQY1,4406,136255_0.36868686868686873.png,7,88,live
280,A10JXOU89D5RXR:374TNBHA8D2P1JYPDLGZ4UC77GYQY1,7900,136209_-0.09595959595959591.png,8,90,live
281,A10JXOU89D5RXR:374TNBHA8D2P1JYPDLGZ4UC77GYQY1,4666,136234_0.15656565656565657.png,7,91,live
282,A10JXOU89D5RXR:374TNBHA8D2P1JYPDLGZ4UC77GYQY1,3839,136202_-0.16666666666666663.png,8,92,live
283,A10JXOU89D5RXR:374TNBHA8D2P1JYPDLGZ4UC77GYQY1,5883,136225_0.06565656565656575.png,7,93,live
284,A10JXOU89D5RXR:374TNBHA8D2P1JYPDLGZ4UC77GYQY1,4140,136207_-0.11616161616161613.png,6,94,live
285,A10JXOU89D5RXR:374TNBHA8D2P1JYPDLGZ4UC77GYQY1,4211,136222_0.03535353535353536.png,7,95,live
286,A10JXOU89D5RXR:374TNBHA8D2P1JYPDLGZ4UC77GYQY1,4442,136255_0.36868686868686873.png,7,96,live
287,A10JXOU89D5RXR:374TNBHA8D2P1JYPDLGZ4UC77GYQY1,4645,136246_0.2777777777777778.png,8,97,live
288,A10JXOU89D5RXR:374TNBHA8D2P1JYPDLGZ4UC77GYQY1,4040,136210_-0.0858585858585858.png,7,98,live
289,A10JXOU89D5RXR:374TNBHA8D2P1JYPDLGZ4UC77GYQY1,5045,136191_-0.2777777777777778.png,8,99,live
290,A10JXOU89D5RXR:374TNBHA8D2P1JYPDLGZ4UC77GYQY1,4226,136267_0.48989898989898994.png,5,101,live
291,A10JXOU89D5RXR:374TNBHA8D2P1JYPDLGZ4UC77GYQY1,5163,136251_0.3282828282828284.png,5,102,live
292,A10JXOU89D5RXR:374TNBHA8D2P1JYPDLGZ4UC77GYQY1,5230,136178_-0.40909090909090906.png,7,103,live
293,A10JXOU89D5RXR:374TNBHA8D2P1JYPDLGZ4UC77GYQY1,4864,136254_0.3585858585858587.png,6,104,live
294,A10JXOU89D5RXR:374TNBHA8D2P1JYPDLGZ4UC77GYQY1,4080,136262_0.43939393939393945.png,7,105,live
295,A10JXOU89D5RXR:374TNBHA8D2P1JYPDLGZ4UC77GYQY1,6995,136197_-0.21717171717171713.png,7,106,live
296,A10JXOU89D5RXR:374TNBHA8D2P1JYPDLGZ4UC77GYQY1,5364,136182_-0.3686868686868687.png,4,107,live
297,A10JXOU89D5RXR:374TNBHA8D2P1JYPDLGZ4UC77GYQY1,4631,136190_-0.28787878787878785.png,8,108,live
298,A10JXOU89D5RXR:374TNBHA8D2P1JYPDLGZ4UC77GYQY1,6883,136217_-0.015151515151515138.png,3,109,live
299,A10JXOU89D5RXR:374TNBHA8D2P1JYPDLGZ4UC77GYQY1,4893,136257_0.38888888888888895.png,5,110,live
300,A1V78X7GWKTLGA:3ZQIG0FLQGNDHMZ6KJSLPKQZD0DWV2,16928,136234_0.15656565656565657.png,8,2,live
301,A1V78X7GWKTLGA:3ZQIG0FLQGNDHMZ6KJSLPKQZD0DWV2,3908,136210_-0.0858585858585858.png,7,3,live
302,A1V78X7GWKTLGA:3ZQIG0FLQGNDHMZ6KJSLPKQZD0DWV2,3878,136244_0.2575757575757577.png,6,4,live
303,A1V78X7GWKTLGA:3ZQIG0FLQGNDHMZ6KJSLPKQZD0DWV2,3036,136228_0.09595959595959602.png,7,5,live
304,A1V78X7GWKTLGA:3ZQIG0FLQGNDHMZ6KJSLPKQZD0DWV2,2709,136255_0.36868686868686873.png,8,6,live
305,A1V78X7GWKTLGA:3ZQIG0FLQGNDHMZ6KJSLPKQZD0DWV2,3862,136232_0.13636363636363646.png,9,7,live
306,A1V78X7GWKTLGA:3ZQIG0FLQGNDHMZ6KJSLPKQZD0DWV2,2108,136255_0.36868686868686873.png,7,8,live
307,A1V78X7GWKTLGA:3ZQIG0FLQGNDHMZ6KJSLPKQZD0DWV2,6126,136239_0.20707070707070718.png,8,9,live
308,A1V78X7GWKTLGA:3ZQIG0FLQGNDHMZ6KJSLPKQZD0DWV2,3852,136249_0.3080808080808082.png,7,10,live
309,A1V78X7GWKTLGA:3ZQIG0FLQGNDHMZ6KJSLPKQZD0DWV2,2900,136213_-0.055555555555555525.png,8,11,live
310,A1V78X7GWKTLGA:3ZQIG0FLQGNDHMZ6KJSLPKQZD0DWV2,2731,136225_0.06565656565656575.png,7,13,live
311,A1V78X7GWKTLGA:3ZQIG0FLQGNDHMZ6KJSLPKQZD0DWV2,3047,136243_0.24747474747474751.png,9,14,live
312,A1V78X7GWKTLGA:3ZQIG0FLQGNDHMZ6KJSLPKQZD0DWV2,3289,136192_-0.2676767676767676.png,6,15,live
313,A1V78X7GWKTLGA:3ZQIG0FLQGNDHMZ6KJSLPKQZD0DWV2,2589,136206_-0.12626262626262624.png,7,16,live
314,A1V78X7GWKTLGA:3ZQIG0FLQGNDHMZ6KJSLPKQZD0DWV2,3029,136208_-0.10606060606060602.png,6,17,live
315,A1V78X7GWKTLGA:3ZQIG0FLQGNDHMZ6KJSLPKQZD0DWV2,2945,136178_-0.40909090909090906.png,8,18,live
316,A1V78X7GWKTLGA:3ZQIG0FLQGNDHMZ6KJSLPKQZD0DWV2,2696,136179_-0.398989898989899.png,7,19,live
317,A1V78X7GWKTLGA:3ZQIG0FLQGNDHMZ6KJSLPKQZD0DWV2,3781,136193_-0.25757575757575757.png,7,20,live
318,A1V78X7GWKTLGA:3ZQIG0FLQGNDHMZ6KJSLPKQZD0DWV2,3527,136258_0.3989898989898991.png,9,21,live
319,A1V78X7GWKTLGA:3ZQIG0FLQGNDHMZ6KJSLPKQZD0DWV2,3580,136237_0.18686868686868696.png,7,22,live
320,A1V78X7GWKTLGA:3ZQIG0FLQGNDHMZ6KJSLPKQZD0DWV2,3780,136225_0.06565656565656575.png,8,24,live
321,A1V78X7GWKTLGA:3ZQIG0FLQGNDHMZ6KJSLPKQZD0DWV2,4413,136262_0.43939393939393945.png,7,25,live
322,A1V78X7GWKTLGA:3ZQIG0FLQGNDHMZ6KJSLPKQZD0DWV2,5606,136185_-0.33838383838383834.png,8,26,live
323,A1V78X7GWKTLGA:3ZQIG0FLQGNDHMZ6KJSLPKQZD0DWV2,3470,136172_-0.4696969696969697.png,7,27,live
324,A1V78X7GWKTLGA:3ZQIG0FLQGNDHMZ6KJSLPKQZD0DWV2,3589,136170_-0.4898989898989899.png,8,28,live
325,A1V78X7GWKTLGA:3ZQIG0FLQGNDHMZ6KJSLPKQZD0DWV2,3033,136238_0.19696969696969702.png,8,29,live
326,A1V78X7GWKTLGA:3ZQIG0FLQGNDHMZ6KJSLPKQZD0DWV2,2993,136231_0.1262626262626263.png,7,30,live
327,A1V78X7GWKTLGA:3ZQIG0FLQGNDHMZ6KJSLPKQZD0DWV2,3261,136251_0.3282828282828284.png,7,31,live
328,A1V78X7GWKTLGA:3ZQIG0FLQGNDHMZ6KJSLPKQZD0DWV2,2959,136175_-0.4393939393939394.png,6,32,live
329,A1V78X7GWKTLGA:3ZQIG0FLQGNDHMZ6KJSLPKQZD0DWV2,3751,136238_0.19696969696969702.png,8,33,live
330,A1V78X7GWKTLGA:3ZQIG0FLQGNDHMZ6KJSLPKQZD0DWV2,21041,136196_-0.22727272727272724.png,8,35,live
331,A1V78X7GWKTLGA:3ZQIG0FLQGNDHMZ6KJSLPKQZD0DWV2,3079,136171_-0.4797979797979798.png,9,36,live
332,A1V78X7GWKTLGA:3ZQIG0FLQGNDHMZ6KJSLPKQZD0DWV2,3643,136203_-0.15656565656565652.png,6,37,live
333,A1V78X7GWKTLGA:3ZQIG0FLQGNDHMZ6KJSLPKQZD0DWV2,4800,136201_-0.17676767676767674.png,6,38,live
334,A1V78X7GWKTLGA:3ZQIG0FLQGNDHMZ6KJSLPKQZD0DWV2,3326,136267_0.48989898989898994.png,7,39,live
335,A1V78X7GWKTLGA:3ZQIG0FLQGNDHMZ6KJSLPKQZD0DWV2,3158,136183_-0.35858585858585856.png,8,40,live
336,A1V78X7GWKTLGA:3ZQIG0FLQGNDHMZ6KJSLPKQZD0DWV2,2663,136171_-0.4797979797979798.png,8,41,live
337,A1V78X7GWKTLGA:3ZQIG0FLQGNDHMZ6KJSLPKQZD0DWV2,2882,136234_0.15656565656565657.png,9,42,live
338,A1V78X7GWKTLGA:3ZQIG0FLQGNDHMZ6KJSLPKQZD0DWV2,3977,136241_0.2272727272727273.png,7,43,live
339,A1V78X7GWKTLGA:3ZQIG0FLQGNDHMZ6KJSLPKQZD0DWV2,2506,136203_-0.15656565656565652.png,6,44,live
340,A1V78X7GWKTLGA:3ZQIG0FLQGNDHMZ6KJSLPKQZD0DWV2,3320,136216_-0.025252525252525193.png,7,46,live
341,A1V78X7GWKTLGA:3ZQIG0FLQGNDHMZ6KJSLPKQZD0DWV2,3581,136187_-0.3181818181818182.png,7,47,live
342,A1V78X7GWKTLGA:3ZQIG0FLQGNDHMZ6KJSLPKQZD0DWV2,2773,136177_-0.41919191919191917.png,8,48,live
343,A1V78X7GWKTLGA:3ZQIG0FLQGNDHMZ6KJSLPKQZD0DWV2,3581,136223_0.045454545454545525.png,7,49,live
344,A1V78X7GWKTLGA:3ZQIG0FLQGNDHMZ6KJSLPKQZD0DWV2,2764,136227_0.08585858585858586.png,8,50,live
345,A1V78X7GWKTLGA:3ZQIG0FLQGNDHMZ6KJSLPKQZD0DWV2,3020,136219_0.005050505050505083.png,7,51,live
346,A1V78X7GWKTLGA:3ZQIG0FLQGNDHMZ6KJSLPKQZD0DWV2,2841,136257_0.38888888888888895.png,8,52,live
347,A1V78X7GWKTLGA:3ZQIG0FLQGNDHMZ6KJSLPKQZD0DWV2,5762,136194_-0.24747474747474746.png,7,53,live
348,A1V78X7GWKTLGA:3ZQIG0FLQGNDHMZ6KJSLPKQZD0DWV2,3478,136226_0.0757575757575758.png,9,54,live
349,A1V78X7GWKTLGA:3ZQIG0FLQGNDHMZ6KJSLPKQZD0DWV2,3791,136222_0.03535353535353536.png,8,55,live
350,A1V78X7GWKTLGA:3ZQIG0FLQGNDHMZ6KJSLPKQZD0DWV2,7146,136181_-0.3787878787878788.png,8,57,live
351,A1V78X7GWKTLGA:3ZQIG0FLQGNDHMZ6KJSLPKQZD0DWV2,3542,136207_-0.11616161616161613.png,7,58,live
352,A1V78X7GWKTLGA:3ZQIG0FLQGNDHMZ6KJSLPKQZD0DWV2,3932,136220_0.015151515151515249.png,7,59,live
353,A1V78X7GWKTLGA:3ZQIG0FLQGNDHMZ6KJSLPKQZD0DWV2,2702,136210_-0.0858585858585858.png,8,60,live
354,A1V78X7GWKTLGA:3ZQIG0FLQGNDHMZ6KJSLPKQZD0DWV2,2508,136175_-0.4393939393939394.png,6,61,live
355,A1V78X7GWKTLGA:3ZQIG0FLQGNDHMZ6KJSLPKQZD0DWV2,3766,136189_-0.29797979797979796.png,7,62,live
356,A1V78X7GWKTLGA:3ZQIG0FLQGNDHMZ6KJSLPKQZD0DWV2,4084,136182_-0.3686868686868687.png,8,63,live
357,A1V78X7GWKTLGA:3ZQIG0FLQGNDHMZ6KJSLPKQZD0DWV2,3869,136222_0.03535353535353536.png,8,64,live
358,A1V78X7GWKTLGA:3ZQIG0FLQGNDHMZ6KJSLPKQZD0DWV2,3620,136205_-0.13636363636363635.png,7,65,live
359,A1V78X7GWKTLGA:3ZQIG0FLQGNDHMZ6KJSLPKQZD0DWV2,4621,136188_-0.30808080808080807.png,6,66,live
360,A1V78X7GWKTLGA:3ZQIG0FLQGNDHMZ6KJSLPKQZD0DWV2,3219,136176_-0.4292929292929293.png,6,68,live
361,A1V78X7GWKTLGA:3ZQIG0FLQGNDHMZ6KJSLPKQZD0DWV2,13434,136186_-0.3282828282828283.png,8,69,live
362,A1V78X7GWKTLGA:3ZQIG0FLQGNDHMZ6KJSLPKQZD0DWV2,2962,136208_-0.10606060606060602.png,6,70,live
363,A1V78X7GWKTLGA:3ZQIG0FLQGNDHMZ6KJSLPKQZD0DWV2,2923,136202_-0.16666666666666663.png,8,71,live
364,A1V78X7GWKTLGA:3ZQIG0FLQGNDHMZ6KJSLPKQZD0DWV2,3334,136227_0.08585858585858586.png,7,72,live
365,A1V78X7GWKTLGA:3ZQIG0FLQGNDHMZ6KJSLPKQZD0DWV2,2744,136199_-0.19696969696969696.png,8,73,live
366,A1V78X7GWKTLGA:3ZQIG0FLQGNDHMZ6KJSLPKQZD0DWV2,2821,136246_0.2777777777777778.png,8,74,live
367,A1V78X7GWKTLGA:3ZQIG0FLQGNDHMZ6KJSLPKQZD0DWV2,2629,136262_0.43939393939393945.png,7,75,live
368,A1V78X7GWKTLGA:3ZQIG0FLQGNDHMZ6KJSLPKQZD0DWV2,3035,136197_-0.21717171717171713.png,8,76,live
369,A1V78X7GWKTLGA:3ZQIG0FLQGNDHMZ6KJSLPKQZD0DWV2,4292,136177_-0.41919191919191917.png,9,77,live
370,A1V78X7GWKTLGA:3ZQIG0FLQGNDHMZ6KJSLPKQZD0DWV2,2503,136257_0.38888888888888895.png,7,79,live
371,A1V78X7GWKTLGA:3ZQIG0FLQGNDHMZ6KJSLPKQZD0DWV2,3126,136191_-0.2777777777777778.png,9,80,live
372,A1V78X7GWKTLGA:3ZQIG0FLQGNDHMZ6KJSLPKQZD0DWV2,4552,136198_-0.20707070707070707.png,8,81,live
373,A1V78X7GWKTLGA:3ZQIG0FLQGNDHMZ6KJSLPKQZD0DWV2,3876,136204_-0.1464646464646464.png,9,82,live
374,A1V78X7GWKTLGA:3ZQIG0FLQGNDHMZ6KJSLPKQZD0DWV2,2500,136196_-0.22727272727272724.png,8,83,live
375,A1V78X7GWKTLGA:3ZQIG0FLQGNDHMZ6KJSLPKQZD0DWV2,3236,136233_0.14646464646464652.png,8,84,live
376,A1V78X7GWKTLGA:3ZQIG0FLQGNDHMZ6KJSLPKQZD0DWV2,2803,136191_-0.2777777777777778.png,9,85,live
377,A1V78X7GWKTLGA:3ZQIG0FLQGNDHMZ6KJSLPKQZD0DWV2,2861,136263_0.4494949494949496.png,8,86,live
378,A1V78X7GWKTLGA:3ZQIG0FLQGNDHMZ6KJSLPKQZD0DWV2,5777,136217_-0.015151515151515138.png,8,87,live
379,A1V78X7GWKTLGA:3ZQIG0FLQGNDHMZ6KJSLPKQZD0DWV2,3501,136250_0.31818181818181823.png,8,88,live
380,A1V78X7GWKTLGA:3ZQIG0FLQGNDHMZ6KJSLPKQZD0DWV2,3341,136229_0.10606060606060608.png,8,90,live
381,A1V78X7GWKTLGA:3ZQIG0FLQGNDHMZ6KJSLPKQZD0DWV2,2853,136173_-0.4595959595959596.png,7,91,live
382,A1V78X7GWKTLGA:3ZQIG0FLQGNDHMZ6KJSLPKQZD0DWV2,3885,136190_-0.28787878787878785.png,8,92,live
383,A1V78X7GWKTLGA:3ZQIG0FLQGNDHMZ6KJSLPKQZD0DWV2,2701,136240_0.21717171717171724.png,7,93,live
384,A1V78X7GWKTLGA:3ZQIG0FLQGNDHMZ6KJSLPKQZD0DWV2,4085,136266_0.4797979797979799.png,8,94,live
385,A1V78X7GWKTLGA:3ZQIG0FLQGNDHMZ6KJSLPKQZD0DWV2,2894,136202_-0.16666666666666663.png,9,95,live
386,A1V78X7GWKTLGA:3ZQIG0FLQGNDHMZ6KJSLPKQZD0DWV2,2771,136184_-0.3484848484848485.png,8,96,live
387,A1V78X7GWKTLGA:3ZQIG0FLQGNDHMZ6KJSLPKQZD0DWV2,3496,136182_-0.3686868686868687.png,8,97,live
388,A1V78X7GWKTLGA:3ZQIG0FLQGNDHMZ6KJSLPKQZD0DWV2,5514,136254_0.3585858585858587.png,7,98,live
389,A1V78X7GWKTLGA:3ZQIG0FLQGNDHMZ6KJSLPKQZD0DWV2,3061,136209_-0.09595959595959591.png,7,99,live
390,A1V78X7GWKTLGA:3ZQIG0FLQGNDHMZ6KJSLPKQZD0DWV2,4473,136221_0.025252525252525304.png,8,101,live
391,A1V78X7GWKTLGA:3ZQIG0FLQGNDHMZ6KJSLPKQZD0DWV2,4018,136212_-0.06565656565656564.png,8,102,live
392,A1V78X7GWKTLGA:3ZQIG0FLQGNDHMZ6KJSLPKQZD0DWV2,3600,136264_0.45959595959595967.png,7,103,live
393,A1V78X7GWKTLGA:3ZQIG0FLQGNDHMZ6KJSLPKQZD0DWV2,3542,136228_0.09595959595959602.png,8,104,live
394,A1V78X7GWKTLGA:3ZQIG0FLQGNDHMZ6KJSLPKQZD0DWV2,2648,136216_-0.025252525252525193.png,6,105,live
395,A1V78X7GWKTLGA:3ZQIG0FLQGNDHMZ6KJSLPKQZD0DWV2,2199,136211_-0.07575757575757575.png,7,106,live
396,A1V78X7GWKTLGA:3ZQIG0FLQGNDHMZ6KJSLPKQZD0DWV2,3624,136215_-0.035353535353535304.png,8,107,live
397,A1V78X7GWKTLGA:3ZQIG0FLQGNDHMZ6KJSLPKQZD0DWV2,2591,136214_-0.045454545454545414.png,8,108,live
398,A1V78X7GWKTLGA:3ZQIG0FLQGNDHMZ6KJSLPKQZD0DWV2,2999,136200_-0.18686868686868685.png,7,109,live
399,A1V78X7GWKTLGA:3ZQIG0FLQGNDHMZ6KJSLPKQZD0DWV2,2606,136247_0.28787878787878796.png,8,110,live
400,AUIPOGXK5QGRX:3H7XDTSHKEYUZP9BVOTZPJNPQLPWGD,5009,136264_0.45959595959595967.png,5,2,live
401,AUIPOGXK5QGRX:3H7XDTSHKEYUZP9BVOTZPJNPQLPWGD,4279,136210_-0.0858585858585858.png,6,3,live
402,AUIPOGXK5QGRX:3H7XDTSHKEYUZP9BVOTZPJNPQLPWGD,2329,136267_0.48989898989898994.png,6,4,live
403,AUIPOGXK5QGRX:3H7XDTSHKEYUZP9BVOTZPJNPQLPWGD,2473,136223_0.045454545454545525.png,4,5,live
404,AUIPOGXK5QGRX:3H7XDTSHKEYUZP9BVOTZPJNPQLPWGD,3018,136203_-0.15656565656565652.png,3,6,live
405,AUIPOGXK5QGRX:3H7XDTSHKEYUZP9BVOTZPJNPQLPWGD,3089,136199_-0.19696969696969696.png,5,7,live
406,AUIPOGXK5QGRX:3H7XDTSHKEYUZP9BVOTZPJNPQLPWGD,2651,136219_0.005050505050505083.png,6,8,live
407,AUIPOGXK5QGRX:3H7XDTSHKEYUZP9BVOTZPJNPQLPWGD,3587,136244_0.2575757575757577.png,4,9,live
408,AUIPOGXK5QGRX:3H7XDTSHKEYUZP9BVOTZPJNPQLPWGD,3110,136228_0.09595959595959602.png,3,10,live
409,AUIPOGXK5QGRX:3H7XDTSHKEYUZP9BVOTZPJNPQLPWGD,4987,136171_-0.4797979797979798.png,8,11,live
410,AUIPOGXK5QGRX:3H7XDTSHKEYUZP9BVOTZPJNPQLPWGD,3582,136182_-0.3686868686868687.png,3,13,live
411,AUIPOGXK5QGRX:3H7XDTSHKEYUZP9BVOTZPJNPQLPWGD,4257,136254_0.3585858585858587.png,4,14,live
412,AUIPOGXK5QGRX:3H7XDTSHKEYUZP9BVOTZPJNPQLPWGD,4281,136216_-0.025252525252525193.png,4,15,live
413,AUIPOGXK5QGRX:3H7XDTSHKEYUZP9BVOTZPJNPQLPWGD,3335,136177_-0.41919191919191917.png,6,16,live
414,AUIPOGXK5QGRX:3H7XDTSHKEYUZP9BVOTZPJNPQLPWGD,2432,136179_-0.398989898989899.png,5,17,live
415,AUIPOGXK5QGRX:3H7XDTSHKEYUZP9BVOTZPJNPQLPWGD,4639,136234_0.15656565656565657.png,4,18,live
416,AUIPOGXK5QGRX:3H7XDTSHKEYUZP9BVOTZPJNPQLPWGD,5322,136193_-0.25757575757575757.png,2,19,live
417,AUIPOGXK5QGRX:3H7XDTSHKEYUZP9BVOTZPJNPQLPWGD,4313,136255_0.36868686868686873.png,6,20,live
418,AUIPOGXK5QGRX:3H7XDTSHKEYUZP9BVOTZPJNPQLPWGD,6155,136198_-0.20707070707070707.png,2,21,live
419,AUIPOGXK5QGRX:3H7XDTSHKEYUZP9BVOTZPJNPQLPWGD,4489,136177_-0.41919191919191917.png,7,22,live
420,AUIPOGXK5QGRX:3H7XDTSHKEYUZP9BVOTZPJNPQLPWGD,3607,136209_-0.09595959595959591.png,5,24,live
421,AUIPOGXK5QGRX:3H7XDTSHKEYUZP9BVOTZPJNPQLPWGD,5360,136194_-0.24747474747474746.png,4,25,live
422,AUIPOGXK5QGRX:3H7XDTSHKEYUZP9BVOTZPJNPQLPWGD,2890,136257_0.38888888888888895.png,3,26,live
423,AUIPOGXK5QGRX:3H7XDTSHKEYUZP9BVOTZPJNPQLPWGD,2898,136227_0.08585858585858586.png,3,27,live
424,AUIPOGXK5QGRX:3H7XDTSHKEYUZP9BVOTZPJNPQLPWGD,2881,136175_-0.4393939393939394.png,5,28,live
425,AUIPOGXK5QGRX:3H7XDTSHKEYUZP9BVOTZPJNPQLPWGD,4842,136213_-0.055555555555555525.png,5,29,live
426,AUIPOGXK5QGRX:3H7XDTSHKEYUZP9BVOTZPJNPQLPWGD,8201,136170_-0.4898989898989899.png,5,30,live
427,AUIPOGXK5QGRX:3H7XDTSHKEYUZP9BVOTZPJNPQLPWGD,1915,136237_0.18686868686868696.png,5,31,live
428,AUIPOGXK5QGRX:3H7XDTSHKEYUZP9BVOTZPJNPQLPWGD,1895,136207_-0.11616161616161613.png,4,32,live
429,AUIPOGXK5QGRX:3H7XDTSHKEYUZP9BVOTZPJNPQLPWGD,3274,136212_-0.06565656565656564.png,4,33,live
430,AUIPOGXK5QGRX:3H7XDTSHKEYUZP9BVOTZPJNPQLPWGD,1815,136172_-0.4696969696969697.png,5,35,live
431,AUIPOGXK5QGRX:3H7XDTSHKEYUZP9BVOTZPJNPQLPWGD,1522,136192_-0.2676767676767676.png,6,36,live
432,AUIPOGXK5QGRX:3H7XDTSHKEYUZP9BVOTZPJNPQLPWGD,1223,136217_-0.015151515151515138.png,4,37,live
433,AUIPOGXK5QGRX:3H7XDTSHKEYUZP9BVOTZPJNPQLPWGD,2705,136255_0.36868686868686873.png,4,38,live
434,AUIPOGXK5QGRX:3H7XDTSHKEYUZP9BVOTZPJNPQLPWGD,5561,136250_0.31818181818181823.png,6,39,live
435,AUIPOGXK5QGRX:3H7XDTSHKEYUZP9BVOTZPJNPQLPWGD,3171,136186_-0.3282828282828283.png,6,40,live
436,AUIPOGXK5QGRX:3H7XDTSHKEYUZP9BVOTZPJNPQLPWGD,6304,136211_-0.07575757575757575.png,5,41,live
437,AUIPOGXK5QGRX:3H7XDTSHKEYUZP9BVOTZPJNPQLPWGD,4330,136249_0.3080808080808082.png,5,42,live
438,AUIPOGXK5QGRX:3H7XDTSHKEYUZP9BVOTZPJNPQLPWGD,4240,136220_0.015151515151515249.png,4,43,live
439,AUIPOGXK5QGRX:3H7XDTSHKEYUZP9BVOTZPJNPQLPWGD,3891,136205_-0.13636363636363635.png,4,44,live
440,AUIPOGXK5QGRX:3H7XDTSHKEYUZP9BVOTZPJNPQLPWGD,2918,136214_-0.045454545454545414.png,3,46,live
441,AUIPOGXK5QGRX:3H7XDTSHKEYUZP9BVOTZPJNPQLPWGD,5041,136185_-0.33838383838383834.png,4,47,live
442,AUIPOGXK5QGRX:3H7XDTSHKEYUZP9BVOTZPJNPQLPWGD,2947,136229_0.10606060606060608.png,4,48,live
443,AUIPOGXK5QGRX:3H7XDTSHKEYUZP9BVOTZPJNPQLPWGD,2233,136263_0.4494949494949496.png,4,49,live
444,AUIPOGXK5QGRX:3H7XDTSHKEYUZP9BVOTZPJNPQLPWGD,2040,136238_0.19696969696969702.png,5,50,live
445,AUIPOGXK5QGRX:3H7XDTSHKEYUZP9BVOTZPJNPQLPWGD,2311,136206_-0.12626262626262624.png,5,51,live
446,AUIPOGXK5QGRX:3H7XDTSHKEYUZP9BVOTZPJNPQLPWGD,2416,136201_-0.17676767676767674.png,5,52,live
447,AUIPOGXK5QGRX:3H7XDTSHKEYUZP9BVOTZPJNPQLPWGD,4042,136222_0.03535353535353536.png,6,53,live
448,AUIPOGXK5QGRX:3H7XDTSHKEYUZP9BVOTZPJNPQLPWGD,2025,136262_0.43939393939393945.png,6,54,live
449,AUIPOGXK5QGRX:3H7XDTSHKEYUZP9BVOTZPJNPQLPWGD,3666,136183_-0.35858585858585856.png,5,55,live
450,AUIPOGXK5QGRX:3H7XDTSHKEYUZP9BVOTZPJNPQLPWGD,3248,136240_0.21717171717171724.png,4,57,live
451,AUIPOGXK5QGRX:3H7XDTSHKEYUZP9BVOTZPJNPQLPWGD,2409,136204_-0.1464646464646464.png,3,58,live
452,AUIPOGXK5QGRX:3H7XDTSHKEYUZP9BVOTZPJNPQLPWGD,1983,136225_0.06565656565656575.png,4,59,live
453,AUIPOGXK5QGRX:3H7XDTSHKEYUZP9BVOTZPJNPQLPWGD,2009,136200_-0.18686868686868685.png,5,60,live
454,AUIPOGXK5QGRX:3H7XDTSHKEYUZP9BVOTZPJNPQLPWGD,2896,136225_0.06565656565656575.png,5,61,live
455,AUIPOGXK5QGRX:3H7XDTSHKEYUZP9BVOTZPJNPQLPWGD,1705,136184_-0.3484848484848485.png,6,62,live
456,AUIPOGXK5QGRX:3H7XDTSHKEYUZP9BVOTZPJNPQLPWGD,5130,136247_0.28787878787878796.png,5,63,live
457,AUIPOGXK5QGRX:3H7XDTSHKEYUZP9BVOTZPJNPQLPWGD,6600,136197_-0.21717171717171713.png,6,64,live
458,AUIPOGXK5QGRX:3H7XDTSHKEYUZP9BVOTZPJNPQLPWGD,3195,136175_-0.4393939393939394.png,4,65,live
459,AUIPOGXK5QGRX:3H7XDTSHKEYUZP9BVOTZPJNPQLPWGD,3210,136171_-0.4797979797979798.png,3,66,live
460,AUIPOGXK5QGRX:3H7XDTSHKEYUZP9BVOTZPJNPQLPWGD,4552,136228_0.09595959595959602.png,4,68,live
461,AUIPOGXK5QGRX:3H7XDTSHKEYUZP9BVOTZPJNPQLPWGD,2627,136233_0.14646464646464652.png,5,69,live
462,AUIPOGXK5QGRX:3H7XDTSHKEYUZP9BVOTZPJNPQLPWGD,2431,136181_-0.3787878787878788.png,4,70,live
463,AUIPOGXK5QGRX:3H7XDTSHKEYUZP9BVOTZPJNPQLPWGD,4649,136221_0.025252525252525304.png,5,71,live
464,AUIPOGXK5QGRX:3H7XDTSHKEYUZP9BVOTZPJNPQLPWGD,1019,136188_-0.30808080808080807.png,4,72,live
465,AUIPOGXK5QGRX:3H7XDTSHKEYUZP9BVOTZPJNPQLPWGD,3475,136203_-0.15656565656565652.png,5,73,live
466,AUIPOGXK5QGRX:3H7XDTSHKEYUZP9BVOTZPJNPQLPWGD,9575,136241_0.2272727272727273.png,3,74,live
467,AUIPOGXK5QGRX:3H7XDTSHKEYUZP9BVOTZPJNPQLPWGD,2201,136262_0.43939393939393945.png,4,75,live
468,AUIPOGXK5QGRX:3H7XDTSHKEYUZP9BVOTZPJNPQLPWGD,2960,136191_-0.2777777777777778.png,5,76,live
469,AUIPOGXK5QGRX:3H7XDTSHKEYUZP9BVOTZPJNPQLPWGD,3521,136215_-0.035353535353535304.png,6,77,live
470,AUIPOGXK5QGRX:3H7XDTSHKEYUZP9BVOTZPJNPQLPWGD,13369,136232_0.13636363636363646.png,6,79,live
471,AUIPOGXK5QGRX:3H7XDTSHKEYUZP9BVOTZPJNPQLPWGD,10601,136178_-0.40909090909090906.png,4,80,live
472,AUIPOGXK5QGRX:3H7XDTSHKEYUZP9BVOTZPJNPQLPWGD,1938,136196_-0.22727272727272724.png,5,81,live
473,AUIPOGXK5QGRX:3H7XDTSHKEYUZP9BVOTZPJNPQLPWGD,2033,136173_-0.4595959595959596.png,5,82,live
474,AUIPOGXK5QGRX:3H7XDTSHKEYUZP9BVOTZPJNPQLPWGD,2091,136202_-0.16666666666666663.png,4,83,live
475,AUIPOGXK5QGRX:3H7XDTSHKEYUZP9BVOTZPJNPQLPWGD,2731,136243_0.24747474747474751.png,6,84,live
476,AUIPOGXK5QGRX:3H7XDTSHKEYUZP9BVOTZPJNPQLPWGD,1888,136202_-0.16666666666666663.png,7,85,live
477,AUIPOGXK5QGRX:3H7XDTSHKEYUZP9BVOTZPJNPQLPWGD,8142,136266_0.4797979797979799.png,4,86,live
478,AUIPOGXK5QGRX:3H7XDTSHKEYUZP9BVOTZPJNPQLPWGD,4270,136227_0.08585858585858586.png,2,87,live
479,AUIPOGXK5QGRX:3H7XDTSHKEYUZP9BVOTZPJNPQLPWGD,2025,136190_-0.28787878787878785.png,3,88,live
480,AUIPOGXK5QGRX:3H7XDTSHKEYUZP9BVOTZPJNPQLPWGD,3444,136208_-0.10606060606060602.png,6,90,live
481,AUIPOGXK5QGRX:3H7XDTSHKEYUZP9BVOTZPJNPQLPWGD,1824,136222_0.03535353535353536.png,5,91,live
482,AUIPOGXK5QGRX:3H7XDTSHKEYUZP9BVOTZPJNPQLPWGD,2790,136258_0.3989898989898991.png,4,92,live
483,AUIPOGXK5QGRX:3H7XDTSHKEYUZP9BVOTZPJNPQLPWGD,4665,136208_-0.10606060606060602.png,3,93,live
484,AUIPOGXK5QGRX:3H7XDTSHKEYUZP9BVOTZPJNPQLPWGD,4251,136231_0.1262626262626263.png,4,94,live
485,AUIPOGXK5QGRX:3H7XDTSHKEYUZP9BVOTZPJNPQLPWGD,7725,136239_0.20707070707070718.png,4,95,live
486,AUIPOGXK5QGRX:3H7XDTSHKEYUZP9BVOTZPJNPQLPWGD,2339,136176_-0.4292929292929293.png,5,96,live
487,AUIPOGXK5QGRX:3H7XDTSHKEYUZP9BVOTZPJNPQLPWGD,4332,136191_-0.2777777777777778.png,5,97,live
488,AUIPOGXK5QGRX:3H7XDTSHKEYUZP9BVOTZPJNPQLPWGD,2889,136182_-0.3686868686868687.png,4,98,live
489,AUIPOGXK5QGRX:3H7XDTSHKEYUZP9BVOTZPJNPQLPWGD,1890,136251_0.3282828282828284.png,4,99,live
490,AUIPOGXK5QGRX:3H7XDTSHKEYUZP9BVOTZPJNPQLPWGD,3254,136234_0.15656565656565657.png,5,101,live
491,AUIPOGXK5QGRX:3H7XDTSHKEYUZP9BVOTZPJNPQLPWGD,9489,136216_-0.025252525252525193.png,3,102,live
492,AUIPOGXK5QGRX:3H7XDTSHKEYUZP9BVOTZPJNPQLPWGD,4313,136226_0.0757575757575758.png,4,103,live
493,AUIPOGXK5QGRX:3H7XDTSHKEYUZP9BVOTZPJNPQLPWGD,7078,136246_0.2777777777777778.png,5,104,live
494,AUIPOGXK5QGRX:3H7XDTSHKEYUZP9BVOTZPJNPQLPWGD,5230,136187_-0.3181818181818182.png,5,105,live
495,AUIPOGXK5QGRX:3H7XDTSHKEYUZP9BVOTZPJNPQLPWGD,2178,136238_0.19696969696969702.png,4,106,live
496,AUIPOGXK5QGRX:3H7XDTSHKEYUZP9BVOTZPJNPQLPWGD,10625,136189_-0.29797979797979796.png,4,107,live
497,AUIPOGXK5QGRX:3H7XDTSHKEYUZP9BVOTZPJNPQLPWGD,4259,136210_-0.0858585858585858.png,5,108,live
498,AUIPOGXK5QGRX:3H7XDTSHKEYUZP9BVOTZPJNPQLPWGD,3320,136257_0.38888888888888895.png,3,109,live
499,AUIPOGXK5QGRX:3H7XDTSHKEYUZP9BVOTZPJNPQLPWGD,2552,136196_-0.22727272727272724.png,4,110,live
500,A3KV9A4OE8HSU7:3X3OR7WPZ17ZVGRU8CA9OVPB4V98LH,8541,136262_0.43939393939393945.png,6,2,live
501,A3KV9A4OE8HSU7:3X3OR7WPZ17ZVGRU8CA9OVPB4V98LH,2882,136193_-0.25757575757575757.png,4,3,live
502,A3KV9A4OE8HSU7:3X3OR7WPZ17ZVGRU8CA9OVPB4V98LH,3836,136255_0.36868686868686873.png,5,4,live
503,A3KV9A4OE8HSU7:3X3OR7WPZ17ZVGRU8CA9OVPB4V98LH,3258,136247_0.28787878787878796.png,6,5,live
504,A3KV9A4OE8HSU7:3X3OR7WPZ17ZVGRU8CA9OVPB4V98LH,2659,136185_-0.33838383838383834.png,4,6,live
505,A3KV9A4OE8HSU7:3X3OR7WPZ17ZVGRU8CA9OVPB4V98LH,3468,136227_0.08585858585858586.png,7,7,live
506,A3KV9A4OE8HSU7:3X3OR7WPZ17ZVGRU8CA9OVPB4V98LH,2977,136209_-0.09595959595959591.png,6,8,live
507,A3KV9A4OE8HSU7:3X3OR7WPZ17ZVGRU8CA9OVPB4V98LH,4348,136207_-0.11616161616161613.png,8,9,live
508,A3KV9A4OE8HSU7:3X3OR7WPZ17ZVGRU8CA9OVPB4V98LH,2347,136211_-0.07575757575757575.png,6,10,live
509,A3KV9A4OE8HSU7:3X3OR7WPZ17ZVGRU8CA9OVPB4V98LH,3086,136229_0.10606060606060608.png,4,11,live
510,A3KV9A4OE8HSU7:3X3OR7WPZ17ZVGRU8CA9OVPB4V98LH,2316,136183_-0.35858585858585856.png,5,13,live
511,A3KV9A4OE8HSU7:3X3OR7WPZ17ZVGRU8CA9OVPB4V98LH,2396,136231_0.1262626262626263.png,6,14,live
512,A3KV9A4OE8HSU7:3X3OR7WPZ17ZVGRU8CA9OVPB4V98LH,5628,136175_-0.4393939393939394.png,8,15,live
513,A3KV9A4OE8HSU7:3X3OR7WPZ17ZVGRU8CA9OVPB4V98LH,3805,136172_-0.4696969696969697.png,5,16,live
514,A3KV9A4OE8HSU7:3X3OR7WPZ17ZVGRU8CA9OVPB4V98LH,3663,136200_-0.18686868686868685.png,6,17,live
515,A3KV9A4OE8HSU7:3X3OR7WPZ17ZVGRU8CA9OVPB4V98LH,4215,136201_-0.17676767676767674.png,7,18,live
516,A3KV9A4OE8HSU7:3X3OR7WPZ17ZVGRU8CA9OVPB4V98LH,6553,136187_-0.3181818181818182.png,4,19,live
517,A3KV9A4OE8HSU7:3X3OR7WPZ17ZVGRU8CA9OVPB4V98LH,5578,136196_-0.22727272727272724.png,6,20,live
518,A3KV9A4OE8HSU7:3X3OR7WPZ17ZVGRU8CA9OVPB4V98LH,4328,136179_-0.398989898989899.png,7,21,live
519,A3KV9A4OE8HSU7:3X3OR7WPZ17ZVGRU8CA9OVPB4V98LH,2628,136217_-0.015151515151515138.png,3,22,live
520,A3KV9A4OE8HSU7:3X3OR7WPZ17ZVGRU8CA9OVPB4V98LH,3705,136189_-0.29797979797979796.png,4,24,live
521,A3KV9A4OE8HSU7:3X3OR7WPZ17ZVGRU8CA9OVPB4V98LH,2402,136228_0.09595959595959602.png,3,25,live
522,A3KV9A4OE8HSU7:3X3OR7WPZ17ZVGRU8CA9OVPB4V98LH,2973,136202_-0.16666666666666663.png,7,26,live
523,A3KV9A4OE8HSU7:3X3OR7WPZ17ZVGRU8CA9OVPB4V98LH,25749,136208_-0.10606060606060602.png,4,27,live
524,A3KV9A4OE8HSU7:3X3OR7WPZ17ZVGRU8CA9OVPB4V98LH,3065,136194_-0.24747474747474746.png,6,28,live
525,A3KV9A4OE8HSU7:3X3OR7WPZ17ZVGRU8CA9OVPB4V98LH,2907,136222_0.03535353535353536.png,3,29,live
526,A3KV9A4OE8HSU7:3X3OR7WPZ17ZVGRU8CA9OVPB4V98LH,4702,136175_-0.4393939393939394.png,4,30,live
527,A3KV9A4OE8HSU7:3X3OR7WPZ17ZVGRU8CA9OVPB4V98LH,3411,136176_-0.4292929292929293.png,6,31,live
528,A3KV9A4OE8HSU7:3X3OR7WPZ17ZVGRU8CA9OVPB4V98LH,5605,136226_0.0757575757575758.png,3,32,live
529,A3KV9A4OE8HSU7:3X3OR7WPZ17ZVGRU8CA9OVPB4V98LH,2966,136220_0.015151515151515249.png,5,33,live
530,A3KV9A4OE8HSU7:3X3OR7WPZ17ZVGRU8CA9OVPB4V98LH,4690,136191_-0.2777777777777778.png,2,35,live
531,A3KV9A4OE8HSU7:3X3OR7WPZ17ZVGRU8CA9OVPB4V98LH,3376,136257_0.38888888888888895.png,4,36,live
532,A3KV9A4OE8HSU7:3X3OR7WPZ17ZVGRU8CA9OVPB4V98LH,3659,136202_-0.16666666666666663.png,2,37,live
533,A3KV9A4OE8HSU7:3X3OR7WPZ17ZVGRU8CA9OVPB4V98LH,3335,136184_-0.3484848484848485.png,4,38,live
534,A3KV9A4OE8HSU7:3X3OR7WPZ17ZVGRU8CA9OVPB4V98LH,2683,136191_-0.2777777777777778.png,3,39,live
535,A3KV9A4OE8HSU7:3X3OR7WPZ17ZVGRU8CA9OVPB4V98LH,2746,136188_-0.30808080808080807.png,5,40,live
536,A3KV9A4OE8HSU7:3X3OR7WPZ17ZVGRU8CA9OVPB4V98LH,3131,136237_0.18686868686868696.png,3,41,live
537,A3KV9A4OE8HSU7:3X3OR7WPZ17ZVGRU8CA9OVPB4V98LH,2759,136204_-0.1464646464646464.png,7,42,live
538,A3KV9A4OE8HSU7:3X3OR7WPZ17ZVGRU8CA9OVPB4V98LH,2587,136238_0.19696969696969702.png,5,43,live
539,A3KV9A4OE8HSU7:3X3OR7WPZ17ZVGRU8CA9OVPB4V98LH,2394,136250_0.31818181818181823.png,4,44,live
540,A3KV9A4OE8HSU7:3X3OR7WPZ17ZVGRU8CA9OVPB4V98LH,3575,136258_0.3989898989898991.png,6,46,live
541,A3KV9A4OE8HSU7:3X3OR7WPZ17ZVGRU8CA9OVPB4V98LH,2267,136171_-0.4797979797979798.png,4,47,live
542,A3KV9A4OE8HSU7:3X3OR7WPZ17ZVGRU8CA9OVPB4V98LH,2317,136197_-0.21717171717171713.png,6,48,live
543,A3KV9A4OE8HSU7:3X3OR7WPZ17ZVGRU8CA9OVPB4V98LH,3151,136228_0.09595959595959602.png,7,49,live
544,A3KV9A4OE8HSU7:3X3OR7WPZ17ZVGRU8CA9OVPB4V98LH,2556,136203_-0.15656565656565652.png,3,50,live
545,A3KV9A4OE8HSU7:3X3OR7WPZ17ZVGRU8CA9OVPB4V98LH,3428,136170_-0.4898989898989899.png,6,51,live
546,A3KV9A4OE8HSU7:3X3OR7WPZ17ZVGRU8CA9OVPB4V98LH,3326,136249_0.3080808080808082.png,7,52,live
547,A3KV9A4OE8HSU7:3X3OR7WPZ17ZVGRU8CA9OVPB4V98LH,5416,136196_-0.22727272727272724.png,8,53,live
548,A3KV9A4OE8HSU7:3X3OR7WPZ17ZVGRU8CA9OVPB4V98LH,2376,136246_0.2777777777777778.png,7,54,live
549,A3KV9A4OE8HSU7:3X3OR7WPZ17ZVGRU8CA9OVPB4V98LH,3104,136225_0.06565656565656575.png,3,55,live
550,A3KV9A4OE8HSU7:3X3OR7WPZ17ZVGRU8CA9OVPB4V98LH,3054,136182_-0.3686868686868687.png,5,57,live
551,A3KV9A4OE8HSU7:3X3OR7WPZ17ZVGRU8CA9OVPB4V98LH,2715,136178_-0.40909090909090906.png,3,58,live
552,A3KV9A4OE8HSU7:3X3OR7WPZ17ZVGRU8CA9OVPB4V98LH,2502,136240_0.21717171717171724.png,4,59,live
553,A3KV9A4OE8HSU7:3X3OR7WPZ17ZVGRU8CA9OVPB4V98LH,2996,136255_0.36868686868686873.png,7,60,live
554,A3KV9A4OE8HSU7:3X3OR7WPZ17ZVGRU8CA9OVPB4V98LH,4293,136216_-0.025252525252525193.png,5,61,live
555,A3KV9A4OE8HSU7:3X3OR7WPZ17ZVGRU8CA9OVPB4V98LH,2684,136177_-0.41919191919191917.png,3,62,live
556,A3KV9A4OE8HSU7:3X3OR7WPZ17ZVGRU8CA9OVPB4V98LH,2665,136190_-0.28787878787878785.png,4,63,live
557,A3KV9A4OE8HSU7:3X3OR7WPZ17ZVGRU8CA9OVPB4V98LH,2316,136266_0.4797979797979799.png,7,64,live
558,A3KV9A4OE8HSU7:3X3OR7WPZ17ZVGRU8CA9OVPB4V98LH,4669,136234_0.15656565656565657.png,8,65,live
559,A3KV9A4OE8HSU7:3X3OR7WPZ17ZVGRU8CA9OVPB4V98LH,3988,136233_0.14646464646464652.png,6,66,live
560,A3KV9A4OE8HSU7:3X3OR7WPZ17ZVGRU8CA9OVPB4V98LH,5413,136225_0.06565656565656575.png,6,68,live
561,A3KV9A4OE8HSU7:3X3OR7WPZ17ZVGRU8CA9OVPB4V98LH,2583,136177_-0.41919191919191917.png,4,69,live
562,A3KV9A4OE8HSU7:3X3OR7WPZ17ZVGRU8CA9OVPB4V98LH,3437,136221_0.025252525252525304.png,5,70,live
563,A3KV9A4OE8HSU7:3X3OR7WPZ17ZVGRU8CA9OVPB4V98LH,12836,136239_0.20707070707070718.png,7,71,live
564,A3KV9A4OE8HSU7:3X3OR7WPZ17ZVGRU8CA9OVPB4V98LH,3047,136243_0.24747474747474751.png,4,72,live
565,A3KV9A4OE8HSU7:3X3OR7WPZ17ZVGRU8CA9OVPB4V98LH,4647,136208_-0.10606060606060602.png,5,73,live
566,A3KV9A4OE8HSU7:3X3OR7WPZ17ZVGRU8CA9OVPB4V98LH,2757,136173_-0.4595959595959596.png,3,74,live
567,A3KV9A4OE8HSU7:3X3OR7WPZ17ZVGRU8CA9OVPB4V98LH,3828,136227_0.08585858585858586.png,5,75,live
568,A3KV9A4OE8HSU7:3X3OR7WPZ17ZVGRU8CA9OVPB4V98LH,3798,136223_0.045454545454545525.png,6,76,live
569,A3KV9A4OE8HSU7:3X3OR7WPZ17ZVGRU8CA9OVPB4V98LH,4605,136213_-0.055555555555555525.png,3,77,live
570,A3KV9A4OE8HSU7:3X3OR7WPZ17ZVGRU8CA9OVPB4V98LH,3496,136232_0.13636363636363646.png,6,79,live
571,A3KV9A4OE8HSU7:3X3OR7WPZ17ZVGRU8CA9OVPB4V98LH,4377,136205_-0.13636363636363635.png,4,80,live
572,A3KV9A4OE8HSU7:3X3OR7WPZ17ZVGRU8CA9OVPB4V98LH,2648,136210_-0.0858585858585858.png,5,81,live
573,A3KV9A4OE8HSU7:3X3OR7WPZ17ZVGRU8CA9OVPB4V98LH,3089,136234_0.15656565656565657.png,6,82,live
574,A3KV9A4OE8HSU7:3X3OR7WPZ17ZVGRU8CA9OVPB4V98LH,2546,136181_-0.3787878787878788.png,3,83,live
575,A3KV9A4OE8HSU7:3X3OR7WPZ17ZVGRU8CA9OVPB4V98LH,2642,136267_0.48989898989898994.png,7,84,live
576,A3KV9A4OE8HSU7:3X3OR7WPZ17ZVGRU8CA9OVPB4V98LH,2556,136216_-0.025252525252525193.png,4,85,live
577,A3KV9A4OE8HSU7:3X3OR7WPZ17ZVGRU8CA9OVPB4V98LH,4446,136206_-0.12626262626262624.png,6,86,live
578,A3KV9A4OE8HSU7:3X3OR7WPZ17ZVGRU8CA9OVPB4V98LH,3011,136212_-0.06565656565656564.png,5,87,live
579,A3KV9A4OE8HSU7:3X3OR7WPZ17ZVGRU8CA9OVPB4V98LH,3481,136203_-0.15656565656565652.png,4,88,live
580,A3KV9A4OE8HSU7:3X3OR7WPZ17ZVGRU8CA9OVPB4V98LH,3088,136182_-0.3686868686868687.png,3,90,live
581,A3KV9A4OE8HSU7:3X3OR7WPZ17ZVGRU8CA9OVPB4V98LH,4435,136219_0.005050505050505083.png,4,91,live
582,A3KV9A4OE8HSU7:3X3OR7WPZ17ZVGRU8CA9OVPB4V98LH,6477,136198_-0.20707070707070707.png,2,92,live
583,A3KV9A4OE8HSU7:3X3OR7WPZ17ZVGRU8CA9OVPB4V98LH,4295,136244_0.2575757575757577.png,3,93,live
584,A3KV9A4OE8HSU7:3X3OR7WPZ17ZVGRU8CA9OVPB4V98LH,3722,136199_-0.19696969696969696.png,5,94,live
585,A3KV9A4OE8HSU7:3X3OR7WPZ17ZVGRU8CA9OVPB4V98LH,3654,136241_0.2272727272727273.png,4,95,live
586,A3KV9A4OE8HSU7:3X3OR7WPZ17ZVGRU8CA9OVPB4V98LH,4128,136214_-0.045454545454545414.png,6,96,live
587,A3KV9A4OE8HSU7:3X3OR7WPZ17ZVGRU8CA9OVPB4V98LH,3306,136238_0.19696969696969702.png,7,97,live
588,A3KV9A4OE8HSU7:3X3OR7WPZ17ZVGRU8CA9OVPB4V98LH,3620,136186_-0.3282828282828283.png,3,98,live
589,A3KV9A4OE8HSU7:3X3OR7WPZ17ZVGRU8CA9OVPB4V98LH,11644,136251_0.3282828282828284.png,5,99,live
590,A3KV9A4OE8HSU7:3X3OR7WPZ17ZVGRU8CA9OVPB4V98LH,9705,136264_0.45959595959595967.png,6,101,live
591,A3KV9A4OE8HSU7:3X3OR7WPZ17ZVGRU8CA9OVPB4V98LH,7943,136257_0.38888888888888895.png,4,102,live
592,A3KV9A4OE8HSU7:3X3OR7WPZ17ZVGRU8CA9OVPB4V98LH,5815,136222_0.03535353535353536.png,3,103,live
593,A3KV9A4OE8HSU7:3X3OR7WPZ17ZVGRU8CA9OVPB4V98LH,4637,136262_0.43939393939393945.png,4,104,live
594,A3KV9A4OE8HSU7:3X3OR7WPZ17ZVGRU8CA9OVPB4V98LH,4643,136254_0.3585858585858587.png,6,105,live
595,A3KV9A4OE8HSU7:3X3OR7WPZ17ZVGRU8CA9OVPB4V98LH,7336,136210_-0.0858585858585858.png,5,106,live
596,A3KV9A4OE8HSU7:3X3OR7WPZ17ZVGRU8CA9OVPB4V98LH,4875,136215_-0.035353535353535304.png,4,107,live
597,A3KV9A4OE8HSU7:3X3OR7WPZ17ZVGRU8CA9OVPB4V98LH,5276,136171_-0.4797979797979798.png,3,108,live
598,A3KV9A4OE8HSU7:3X3OR7WPZ17ZVGRU8CA9OVPB4V98LH,5031,136192_-0.2676767676767676.png,3,109,live
599,A3KV9A4OE8HSU7:3X3OR7WPZ17ZVGRU8CA9OVPB4V98LH,3525,136263_0.4494949494949496.png,4,110,live
600,A1AAO2R3FH2G49:36NEMU28XHKURZ5X6RRU2O7MM71WML,4770,136202_-0.16666666666666663.png,6,2,live
601,A1AAO2R3FH2G49:36NEMU28XHKURZ5X6RRU2O7MM71WML,4366,136176_-0.4292929292929293.png,4,3,live
602,A1AAO2R3FH2G49:36NEMU28XHKURZ5X6RRU2O7MM71WML,3606,136210_-0.0858585858585858.png,5,4,live
603,A1AAO2R3FH2G49:36NEMU28XHKURZ5X6RRU2O7MM71WML,15036,136182_-0.3686868686868687.png,6,5,live
604,A1AAO2R3FH2G49:36NEMU28XHKURZ5X6RRU2O7MM71WML,5922,136266_0.4797979797979799.png,7,6,live
605,A1AAO2R3FH2G49:36NEMU28XHKURZ5X6RRU2O7MM71WML,2439,136222_0.03535353535353536.png,6,7,live
606,A1AAO2R3FH2G49:36NEMU28XHKURZ5X6RRU2O7MM71WML,2659,136214_-0.045454545454545414.png,5,8,live
607,A1AAO2R3FH2G49:36NEMU28XHKURZ5X6RRU2O7MM71WML,3498,136172_-0.4696969696969697.png,6,9,live
608,A1AAO2R3FH2G49:36NEMU28XHKURZ5X6RRU2O7MM71WML,2347,136215_-0.035353535353535304.png,7,10,live
609,A1AAO2R3FH2G49:36NEMU28XHKURZ5X6RRU2O7MM71WML,3188,136267_0.48989898989898994.png,6,11,live
610,A1AAO2R3FH2G49:36NEMU28XHKURZ5X6RRU2O7MM71WML,3464,136187_-0.3181818181818182.png,5,13,live
611,A1AAO2R3FH2G49:36NEMU28XHKURZ5X6RRU2O7MM71WML,2241,136184_-0.3484848484848485.png,6,14,live
612,A1AAO2R3FH2G49:36NEMU28XHKURZ5X6RRU2O7MM71WML,2759,136197_-0.21717171717171713.png,7,15,live
613,A1AAO2R3FH2G49:36NEMU28XHKURZ5X6RRU2O7MM71WML,2409,136231_0.1262626262626263.png,6,16,live
614,A1AAO2R3FH2G49:36NEMU28XHKURZ5X6RRU2O7MM71WML,2433,136196_-0.22727272727272724.png,5,17,live
615,A1AAO2R3FH2G49:36NEMU28XHKURZ5X6RRU2O7MM71WML,2560,136202_-0.16666666666666663.png,6,18,live
616,A1AAO2R3FH2G49:36NEMU28XHKURZ5X6RRU2O7MM71WML,2464,136183_-0.35858585858585856.png,7,19,live
617,A1AAO2R3FH2G49:36NEMU28XHKURZ5X6RRU2O7MM71WML,2574,136233_0.14646464646464652.png,6,20,live
618,A1AAO2R3FH2G49:36NEMU28XHKURZ5X6RRU2O7MM71WML,2523,136216_-0.025252525252525193.png,7,21,live
619,A1AAO2R3FH2G49:36NEMU28XHKURZ5X6RRU2O7MM71WML,2136,136179_-0.398989898989899.png,6,22,live
620,A1AAO2R3FH2G49:36NEMU28XHKURZ5X6RRU2O7MM71WML,3217,136244_0.2575757575757577.png,7,24,live
621,A1AAO2R3FH2G49:36NEMU28XHKURZ5X6RRU2O7MM71WML,2720,136189_-0.29797979797979796.png,6,25,live
622,A1AAO2R3FH2G49:36NEMU28XHKURZ5X6RRU2O7MM71WML,2079,136201_-0.17676767676767674.png,7,26,live
623,A1AAO2R3FH2G49:36NEMU28XHKURZ5X6RRU2O7MM71WML,2288,136228_0.09595959595959602.png,7,27,live
624,A1AAO2R3FH2G49:36NEMU28XHKURZ5X6RRU2O7MM71WML,2727,136173_-0.4595959595959596.png,7,28,live
625,A1AAO2R3FH2G49:36NEMU28XHKURZ5X6RRU2O7MM71WML,2318,136207_-0.11616161616161613.png,7,29,live
626,A1AAO2R3FH2G49:36NEMU28XHKURZ5X6RRU2O7MM71WML,2314,136223_0.045454545454545525.png,7,30,live
627,A1AAO2R3FH2G49:36NEMU28XHKURZ5X6RRU2O7MM71WML,2238,136205_-0.13636363636363635.png,6,31,live
628,A1AAO2R3FH2G49:36NEMU28XHKURZ5X6RRU2O7MM71WML,2444,136175_-0.4393939393939394.png,5,32,live
629,A1AAO2R3FH2G49:36NEMU28XHKURZ5X6RRU2O7MM71WML,2288,136200_-0.18686868686868685.png,6,33,live
630,A1AAO2R3FH2G49:36NEMU28XHKURZ5X6RRU2O7MM71WML,2899,136238_0.19696969696969702.png,7,35,live
631,A1AAO2R3FH2G49:36NEMU28XHKURZ5X6RRU2O7MM71WML,2609,136237_0.18686868686868696.png,6,36,live
632,A1AAO2R3FH2G49:36NEMU28XHKURZ5X6RRU2O7MM71WML,2507,136171_-0.4797979797979798.png,7,37,live
633,A1AAO2R3FH2G49:36NEMU28XHKURZ5X6RRU2O7MM71WML,2608,136216_-0.025252525252525193.png,8,38,live
634,A1AAO2R3FH2G49:36NEMU28XHKURZ5X6RRU2O7MM71WML,2576,136188_-0.30808080808080807.png,7,39,live
635,A1AAO2R3FH2G49:36NEMU28XHKURZ5X6RRU2O7MM71WML,2512,136239_0.20707070707070718.png,6,40,live
636,A1AAO2R3FH2G49:36NEMU28XHKURZ5X6RRU2O7MM71WML,2571,136263_0.4494949494949496.png,7,41,live
637,A1AAO2R3FH2G49:36NEMU28XHKURZ5X6RRU2O7MM71WML,2333,136211_-0.07575757575757575.png,6,42,live
638,A1AAO2R3FH2G49:36NEMU28XHKURZ5X6RRU2O7MM71WML,2626,136208_-0.10606060606060602.png,7,43,live
639,A1AAO2R3FH2G49:36NEMU28XHKURZ5X6RRU2O7MM71WML,2758,136198_-0.20707070707070707.png,6,44,live
640,A1AAO2R3FH2G49:36NEMU28XHKURZ5X6RRU2O7MM71WML,2784,136250_0.31818181818181823.png,7,46,live
641,A1AAO2R3FH2G49:36NEMU28XHKURZ5X6RRU2O7MM71WML,2647,136258_0.3989898989898991.png,8,47,live
642,A1AAO2R3FH2G49:36NEMU28XHKURZ5X6RRU2O7MM71WML,2496,136246_0.2777777777777778.png,7,48,live
643,A1AAO2R3FH2G49:36NEMU28XHKURZ5X6RRU2O7MM71WML,2397,136238_0.19696969696969702.png,8,49,live
644,A1AAO2R3FH2G49:36NEMU28XHKURZ5X6RRU2O7MM71WML,2177,136226_0.0757575757575758.png,7,50,live
645,A1AAO2R3FH2G49:36NEMU28XHKURZ5X6RRU2O7MM71WML,2848,136249_0.3080808080808082.png,6,51,live
646,A1AAO2R3FH2G49:36NEMU28XHKURZ5X6RRU2O7MM71WML,2205,136175_-0.4393939393939394.png,7,52,live
647,A1AAO2R3FH2G49:36NEMU28XHKURZ5X6RRU2O7MM71WML,2707,136206_-0.12626262626262624.png,6,53,live
648,A1AAO2R3FH2G49:36NEMU28XHKURZ5X6RRU2O7MM71WML,2436,136203_-0.15656565656565652.png,7,54,live
649,A1AAO2R3FH2G49:36NEMU28XHKURZ5X6RRU2O7MM71WML,3146,136257_0.38888888888888895.png,8,55,live
650,A1AAO2R3FH2G49:36NEMU28XHKURZ5X6RRU2O7MM71WML,4072,136191_-0.2777777777777778.png,7,57,live
651,A1AAO2R3FH2G49:36NEMU28XHKURZ5X6RRU2O7MM71WML,2231,136217_-0.015151515151515138.png,6,58,live
652,A1AAO2R3FH2G49:36NEMU28XHKURZ5X6RRU2O7MM71WML,2642,136234_0.15656565656565657.png,7,59,live
653,A1AAO2R3FH2G49:36NEMU28XHKURZ5X6RRU2O7MM71WML,2528,136251_0.3282828282828284.png,8,60,live
654,A1AAO2R3FH2G49:36NEMU28XHKURZ5X6RRU2O7MM71WML,2637,136209_-0.09595959595959591.png,6,61,live
655,A1AAO2R3FH2G49:36NEMU28XHKURZ5X6RRU2O7MM71WML,2102,136177_-0.41919191919191917.png,7,62,live
656,A1AAO2R3FH2G49:36NEMU28XHKURZ5X6RRU2O7MM71WML,2459,136255_0.36868686868686873.png,8,63,live
657,A1AAO2R3FH2G49:36NEMU28XHKURZ5X6RRU2O7MM71WML,2348,136210_-0.0858585858585858.png,6,64,live
658,A1AAO2R3FH2G49:36NEMU28XHKURZ5X6RRU2O7MM71WML,2320,136264_0.45959595959595967.png,7,65,live
659,A1AAO2R3FH2G49:36NEMU28XHKURZ5X6RRU2O7MM71WML,2057,136193_-0.25757575757575757.png,6,66,live
660,A1AAO2R3FH2G49:36NEMU28XHKURZ5X6RRU2O7MM71WML,3114,136196_-0.22727272727272724.png,7,68,live
661,A1AAO2R3FH2G49:36NEMU28XHKURZ5X6RRU2O7MM71WML,2308,136181_-0.3787878787878788.png,8,69,live
662,A1AAO2R3FH2G49:36NEMU28XHKURZ5X6RRU2O7MM71WML,2897,136222_0.03535353535353536.png,7,70,live
663,A1AAO2R3FH2G49:36NEMU28XHKURZ5X6RRU2O7MM71WML,2221,136203_-0.15656565656565652.png,6,71,live
664,A1AAO2R3FH2G49:36NEMU28XHKURZ5X6RRU2O7MM71WML,4575,136232_0.13636363636363646.png,9,72,live
665,A1AAO2R3FH2G49:36NEMU28XHKURZ5X6RRU2O7MM71WML,2320,136221_0.025252525252525304.png,8,73,live
666,A1AAO2R3FH2G49:36NEMU28XHKURZ5X6RRU2O7MM71WML,2406,136194_-0.24747474747474746.png,7,74,live
667,A1AAO2R3FH2G49:36NEMU28XHKURZ5X6RRU2O7MM71WML,2254,136186_-0.3282828282828283.png,6,75,live
668,A1AAO2R3FH2G49:36NEMU28XHKURZ5X6RRU2O7MM71WML,2281,136178_-0.40909090909090906.png,5,76,live
669,A1AAO2R3FH2G49:36NEMU28XHKURZ5X6RRU2O7MM71WML,2297,136185_-0.33838383838383834.png,6,77,live
670,A1AAO2R3FH2G49:36NEMU28XHKURZ5X6RRU2O7MM71WML,2839,136227_0.08585858585858586.png,7,79,live
671,A1AAO2R3FH2G49:36NEMU28XHKURZ5X6RRU2O7MM71WML,2576,136243_0.24747474747474751.png,8,80,live
672,A1AAO2R3FH2G49:36NEMU28XHKURZ5X6RRU2O7MM71WML,3333,136234_0.15656565656565657.png,7,81,live
673,A1AAO2R3FH2G49:36NEMU28XHKURZ5X6RRU2O7MM71WML,2583,136170_-0.4898989898989899.png,6,82,live
674,A1AAO2R3FH2G49:36NEMU28XHKURZ5X6RRU2O7MM71WML,2366,136254_0.3585858585858587.png,6,83,live
675,A1AAO2R3FH2G49:36NEMU28XHKURZ5X6RRU2O7MM71WML,2487,136171_-0.4797979797979798.png,7,84,live
676,A1AAO2R3FH2G49:36NEMU28XHKURZ5X6RRU2O7MM71WML,2374,136192_-0.2676767676767676.png,8,85,live
677,A1AAO2R3FH2G49:36NEMU28XHKURZ5X6RRU2O7MM71WML,2218,136204_-0.1464646464646464.png,6,86,live
678,A1AAO2R3FH2G49:36NEMU28XHKURZ5X6RRU2O7MM71WML,2408,136219_0.005050505050505083.png,7,87,live
679,A1AAO2R3FH2G49:36NEMU28XHKURZ5X6RRU2O7MM71WML,2319,136255_0.36868686868686873.png,8,88,live
680,A1AAO2R3FH2G49:36NEMU28XHKURZ5X6RRU2O7MM71WML,2424,136225_0.06565656565656575.png,7,90,live
681,A1AAO2R3FH2G49:36NEMU28XHKURZ5X6RRU2O7MM71WML,3564,136191_-0.2777777777777778.png,6,91,live
682,A1AAO2R3FH2G49:36NEMU28XHKURZ5X6RRU2O7MM71WML,2805,136190_-0.28787878787878785.png,7,92,live
683,A1AAO2R3FH2G49:36NEMU28XHKURZ5X6RRU2O7MM71WML,3014,136213_-0.055555555555555525.png,8,93,live
684,A1AAO2R3FH2G49:36NEMU28XHKURZ5X6RRU2O7MM71WML,2451,136227_0.08585858585858586.png,6,94,live
685,A1AAO2R3FH2G49:36NEMU28XHKURZ5X6RRU2O7MM71WML,2720,136182_-0.3686868686868687.png,7,95,live
686,A1AAO2R3FH2G49:36NEMU28XHKURZ5X6RRU2O7MM71WML,2395,136212_-0.06565656565656564.png,6,96,live
687,A1AAO2R3FH2G49:36NEMU28XHKURZ5X6RRU2O7MM71WML,2336,136240_0.21717171717171724.png,5,97,live
688,A1AAO2R3FH2G49:36NEMU28XHKURZ5X6RRU2O7MM71WML,4057,136177_-0.41919191919191917.png,6,98,live
689,A1AAO2R3FH2G49:36NEMU28XHKURZ5X6RRU2O7MM71WML,2466,136262_0.43939393939393945.png,7,99,live
690,A1AAO2R3FH2G49:36NEMU28XHKURZ5X6RRU2O7MM71WML,2307,136257_0.38888888888888895.png,7,101,live
691,A1AAO2R3FH2G49:36NEMU28XHKURZ5X6RRU2O7MM71WML,2280,136199_-0.19696969696969696.png,8,102,live
692,A1AAO2R3FH2G49:36NEMU28XHKURZ5X6RRU2O7MM71WML,2428,136241_0.2272727272727273.png,7,103,live
693,A1AAO2R3FH2G49:36NEMU28XHKURZ5X6RRU2O7MM71WML,2357,136229_0.10606060606060608.png,7,104,live
694,A1AAO2R3FH2G49:36NEMU28XHKURZ5X6RRU2O7MM71WML,2537,136247_0.28787878787878796.png,6,105,live
695,A1AAO2R3FH2G49:36NEMU28XHKURZ5X6RRU2O7MM71WML,2827,136220_0.015151515151515249.png,8,106,live
696,A1AAO2R3FH2G49:36NEMU28XHKURZ5X6RRU2O7MM71WML,2556,136225_0.06565656565656575.png,7,107,live
697,A1AAO2R3FH2G49:36NEMU28XHKURZ5X6RRU2O7MM71WML,2377,136262_0.43939393939393945.png,6,108,live
698,A1AAO2R3FH2G49:36NEMU28XHKURZ5X6RRU2O7MM71WML,2479,136208_-0.10606060606060602.png,7,109,live
699,A1AAO2R3FH2G49:36NEMU28XHKURZ5X6RRU2O7MM71WML,6534,136228_0.09595959595959602.png,5,110,live
700,A1IV1O890FN1QA:3E13VNJ1NP2FUFZ3OO4HH5AB9L91IC,9061,136239_0.20707070707070718.png,8,2,live
701,A1IV1O890FN1QA:3E13VNJ1NP2FUFZ3OO4HH5AB9L91IC,14437,136196_-0.22727272727272724.png,9,3,live
702,A1IV1O890FN1QA:3E13VNJ1NP2FUFZ3OO4HH5AB9L91IC,3272,136257_0.38888888888888895.png,8,4,live
703,A1IV1O890FN1QA:3E13VNJ1NP2FUFZ3OO4HH5AB9L91IC,3358,136240_0.21717171717171724.png,9,5,live
704,A1IV1O890FN1QA:3E13VNJ1NP2FUFZ3OO4HH5AB9L91IC,3456,136171_-0.4797979797979798.png,8,6,live
705,A1IV1O890FN1QA:3E13VNJ1NP2FUFZ3OO4HH5AB9L91IC,2838,136246_0.2777777777777778.png,9,7,live
706,A1IV1O890FN1QA:3E13VNJ1NP2FUFZ3OO4HH5AB9L91IC,4174,136198_-0.20707070707070707.png,8,8,live
707,A1IV1O890FN1QA:3E13VNJ1NP2FUFZ3OO4HH5AB9L91IC,3374,136207_-0.11616161616161613.png,8,9,live
708,A1IV1O890FN1QA:3E13VNJ1NP2FUFZ3OO4HH5AB9L91IC,3853,136202_-0.16666666666666663.png,8,10,live
709,A1IV1O890FN1QA:3E13VNJ1NP2FUFZ3OO4HH5AB9L91IC,3455,136188_-0.30808080808080807.png,8,11,live
710,A1IV1O890FN1QA:3E13VNJ1NP2FUFZ3OO4HH5AB9L91IC,4417,136255_0.36868686868686873.png,8,13,live
711,A1IV1O890FN1QA:3E13VNJ1NP2FUFZ3OO4HH5AB9L91IC,3142,136210_-0.0858585858585858.png,9,14,live
712,A1IV1O890FN1QA:3E13VNJ1NP2FUFZ3OO4HH5AB9L91IC,2093,136221_0.025252525252525304.png,8,15,live
713,A1IV1O890FN1QA:3E13VNJ1NP2FUFZ3OO4HH5AB9L91IC,2990,136257_0.38888888888888895.png,8,16,live
714,A1IV1O890FN1QA:3E13VNJ1NP2FUFZ3OO4HH5AB9L91IC,4231,136243_0.24747474747474751.png,9,17,live
715,A1IV1O890FN1QA:3E13VNJ1NP2FUFZ3OO4HH5AB9L91IC,3462,136250_0.31818181818181823.png,9,18,live
716,A1IV1O890FN1QA:3E13VNJ1NP2FUFZ3OO4HH5AB9L91IC,3101,136196_-0.22727272727272724.png,8,19,live
717,A1IV1O890FN1QA:3E13VNJ1NP2FUFZ3OO4HH5AB9L91IC,4518,136182_-0.3686868686868687.png,9,20,live
718,A1IV1O890FN1QA:3E13VNJ1NP2FUFZ3OO4HH5AB9L91IC,3982,136182_-0.3686868686868687.png,9,21,live
719,A1IV1O890FN1QA:3E13VNJ1NP2FUFZ3OO4HH5AB9L91IC,2686,136204_-0.1464646464646464.png,8,22,live
720,A1IV1O890FN1QA:3E13VNJ1NP2FUFZ3OO4HH5AB9L91IC,4965,136208_-0.10606060606060602.png,8,24,live
721,A1IV1O890FN1QA:3E13VNJ1NP2FUFZ3OO4HH5AB9L91IC,2886,136227_0.08585858585858586.png,8,25,live
722,A1IV1O890FN1QA:3E13VNJ1NP2FUFZ3OO4HH5AB9L91IC,2806,136234_0.15656565656565657.png,9,26,live
723,A1IV1O890FN1QA:3E13VNJ1NP2FUFZ3OO4HH5AB9L91IC,3183,136228_0.09595959595959602.png,9,27,live
724,A1IV1O890FN1QA:3E13VNJ1NP2FUFZ3OO4HH5AB9L91IC,3069,136185_-0.33838383838383834.png,8,28,live
725,A1IV1O890FN1QA:3E13VNJ1NP2FUFZ3OO4HH5AB9L91IC,3069,136254_0.3585858585858587.png,9,29,live
726,A1IV1O890FN1QA:3E13VNJ1NP2FUFZ3OO4HH5AB9L91IC,2422,136177_-0.41919191919191917.png,8,30,live
727,A1IV1O890FN1QA:3E13VNJ1NP2FUFZ3OO4HH5AB9L91IC,2919,136179_-0.398989898989899.png,9,31,live
728,A1IV1O890FN1QA:3E13VNJ1NP2FUFZ3OO4HH5AB9L91IC,2814,136191_-0.2777777777777778.png,8,32,live
729,A1IV1O890FN1QA:3E13VNJ1NP2FUFZ3OO4HH5AB9L91IC,2486,136201_-0.17676767676767674.png,8,33,live
730,A1IV1O890FN1QA:3E13VNJ1NP2FUFZ3OO4HH5AB9L91IC,2248,136191_-0.2777777777777778.png,8,35,live
731,A1IV1O890FN1QA:3E13VNJ1NP2FUFZ3OO4HH5AB9L91IC,2622,136222_0.03535353535353536.png,9,36,live
732,A1IV1O890FN1QA:3E13VNJ1NP2FUFZ3OO4HH5AB9L91IC,2182,136247_0.28787878787878796.png,9,37,live
733,A1IV1O890FN1QA:3E13VNJ1NP2FUFZ3OO4HH5AB9L91IC,3677,136203_-0.15656565656565652.png,8,38,live
734,A1IV1O890FN1QA:3E13VNJ1NP2FUFZ3OO4HH5AB9L91IC,4111,136177_-0.41919191919191917.png,9,39,live
735,A1IV1O890FN1QA:3E13VNJ1NP2FUFZ3OO4HH5AB9L91IC,3646,136220_0.015151515151515249.png,9,40,live
736,A1IV1O890FN1QA:3E13VNJ1NP2FUFZ3OO4HH5AB9L91IC,4439,136189_-0.29797979797979796.png,8,41,live
737,A1IV1O890FN1QA:3E13VNJ1NP2FUFZ3OO4HH5AB9L91IC,6528,136263_0.4494949494949496.png,8,42,live
738,A1IV1O890FN1QA:3E13VNJ1NP2FUFZ3OO4HH5AB9L91IC,14614,136238_0.19696969696969702.png,8,43,live
739,A1IV1O890FN1QA:3E13VNJ1NP2FUFZ3OO4HH5AB9L91IC,2446,136225_0.06565656565656575.png,9,44,live
740,A1IV1O890FN1QA:3E13VNJ1NP2FUFZ3OO4HH5AB9L91IC,2265,136190_-0.28787878787878785.png,8,46,live
741,A1IV1O890FN1QA:3E13VNJ1NP2FUFZ3OO4HH5AB9L91IC,3335,136206_-0.12626262626262624.png,9,47,live
742,A1IV1O890FN1QA:3E13VNJ1NP2FUFZ3OO4HH5AB9L91IC,5166,136176_-0.4292929292929293.png,8,48,live
743,A1IV1O890FN1QA:3E13VNJ1NP2FUFZ3OO4HH5AB9L91IC,2390,136255_0.36868686868686873.png,8,49,live
744,A1IV1O890FN1QA:3E13VNJ1NP2FUFZ3OO4HH5AB9L91IC,2550,136226_0.0757575757575758.png,8,50,live
745,A1IV1O890FN1QA:3E13VNJ1NP2FUFZ3OO4HH5AB9L91IC,2149,136223_0.045454545454545525.png,9,51,live
746,A1IV1O890FN1QA:3E13VNJ1NP2FUFZ3OO4HH5AB9L91IC,5344,136244_0.2575757575757577.png,9,52,live
747,A1IV1O890FN1QA:3E13VNJ1NP2FUFZ3OO4HH5AB9L91IC,3037,136237_0.18686868686868696.png,8,53,live
748,A1IV1O890FN1QA:3E13VNJ1NP2FUFZ3OO4HH5AB9L91IC,3030,136197_-0.21717171717171713.png,9,54,live
749,A1IV1O890FN1QA:3E13VNJ1NP2FUFZ3OO4HH5AB9L91IC,6308,136186_-0.3282828282828283.png,8,55,live
750,A1IV1O890FN1QA:3E13VNJ1NP2FUFZ3OO4HH5AB9L91IC,2226,136202_-0.16666666666666663.png,8,57,live
751,A1IV1O890FN1QA:3E13VNJ1NP2FUFZ3OO4HH5AB9L91IC,2438,136214_-0.045454545454545414.png,9,58,live
752,A1IV1O890FN1QA:3E13VNJ1NP2FUFZ3OO4HH5AB9L91IC,1837,136178_-0.40909090909090906.png,8,59,live
753,A1IV1O890FN1QA:3E13VNJ1NP2FUFZ3OO4HH5AB9L91IC,2198,136258_0.3989898989898991.png,8,60,live
754,A1IV1O890FN1QA:3E13VNJ1NP2FUFZ3OO4HH5AB9L91IC,2318,136184_-0.3484848484848485.png,9,61,live
755,A1IV1O890FN1QA:3E13VNJ1NP2FUFZ3OO4HH5AB9L91IC,2029,136200_-0.18686868686868685.png,8,62,live
756,A1IV1O890FN1QA:3E13VNJ1NP2FUFZ3OO4HH5AB9L91IC,1902,136183_-0.35858585858585856.png,8,63,live
757,A1IV1O890FN1QA:3E13VNJ1NP2FUFZ3OO4HH5AB9L91IC,3159,136241_0.2272727272727273.png,8,64,live
758,A1IV1O890FN1QA:3E13VNJ1NP2FUFZ3OO4HH5AB9L91IC,2590,136170_-0.4898989898989899.png,8,65,live
759,A1IV1O890FN1QA:3E13VNJ1NP2FUFZ3OO4HH5AB9L91IC,2229,136232_0.13636363636363646.png,9,66,live
760,A1IV1O890FN1QA:3E13VNJ1NP2FUFZ3OO4HH5AB9L91IC,5286,136203_-0.15656565656565652.png,8,68,live
761,A1IV1O890FN1QA:3E13VNJ1NP2FUFZ3OO4HH5AB9L91IC,6171,136234_0.15656565656565657.png,8,69,live
762,A1IV1O890FN1QA:3E13VNJ1NP2FUFZ3OO4HH5AB9L91IC,5709,136208_-0.10606060606060602.png,8,70,live
763,A1IV1O890FN1QA:3E13VNJ1NP2FUFZ3OO4HH5AB9L91IC,12094,136172_-0.4696969696969697.png,9,71,live
764,A1IV1O890FN1QA:3E13VNJ1NP2FUFZ3OO4HH5AB9L91IC,1990,136222_0.03535353535353536.png,9,72,live
765,A1IV1O890FN1QA:3E13VNJ1NP2FUFZ3OO4HH5AB9L91IC,2470,136175_-0.4393939393939394.png,8,73,live
766,A1IV1O890FN1QA:3E13VNJ1NP2FUFZ3OO4HH5AB9L91IC,3165,136192_-0.2676767676767676.png,8,74,live
767,A1IV1O890FN1QA:3E13VNJ1NP2FUFZ3OO4HH5AB9L91IC,2088,136194_-0.24747474747474746.png,9,75,live
768,A1IV1O890FN1QA:3E13VNJ1NP2FUFZ3OO4HH5AB9L91IC,1843,136262_0.43939393939393945.png,8,76,live
769,A1IV1O890FN1QA:3E13VNJ1NP2FUFZ3OO4HH5AB9L91IC,1950,136266_0.4797979797979799.png,8,77,live
770,A1IV1O890FN1QA:3E13VNJ1NP2FUFZ3OO4HH5AB9L91IC,3291,136216_-0.025252525252525193.png,8,79,live
771,A1IV1O890FN1QA:3E13VNJ1NP2FUFZ3OO4HH5AB9L91IC,3525,136213_-0.055555555555555525.png,8,80,live
772,A1IV1O890FN1QA:3E13VNJ1NP2FUFZ3OO4HH5AB9L91IC,2046,136238_0.19696969696969702.png,9,81,live
773,A1IV1O890FN1QA:3E13VNJ1NP2FUFZ3OO4HH5AB9L91IC,1837,136227_0.08585858585858586.png,8,82,live
774,A1IV1O890FN1QA:3E13VNJ1NP2FUFZ3OO4HH5AB9L91IC,1990,136251_0.3282828282828284.png,8,83,live
775,A1IV1O890FN1QA:3E13VNJ1NP2FUFZ3OO4HH5AB9L91IC,11399,136262_0.43939393939393945.png,8,84,live
776,A1IV1O890FN1QA:3E13VNJ1NP2FUFZ3OO4HH5AB9L91IC,3535,136215_-0.035353535353535304.png,8,85,live
777,A1IV1O890FN1QA:3E13VNJ1NP2FUFZ3OO4HH5AB9L91IC,2934,136231_0.1262626262626263.png,8,86,live
778,A1IV1O890FN1QA:3E13VNJ1NP2FUFZ3OO4HH5AB9L91IC,6310,136264_0.45959595959595967.png,8,87,live
779,A1IV1O890FN1QA:3E13VNJ1NP2FUFZ3OO4HH5AB9L91IC,3765,136212_-0.06565656565656564.png,8,88,live
780,A1IV1O890FN1QA:3E13VNJ1NP2FUFZ3OO4HH5AB9L91IC,3443,136181_-0.3787878787878788.png,9,90,live
781,A1IV1O890FN1QA:3E13VNJ1NP2FUFZ3OO4HH5AB9L91IC,1669,136187_-0.3181818181818182.png,7,91,live
782,A1IV1O890FN1QA:3E13VNJ1NP2FUFZ3OO4HH5AB9L91IC,3765,136217_-0.015151515151515138.png,8,92,live
783,A1IV1O890FN1QA:3E13VNJ1NP2FUFZ3OO4HH5AB9L91IC,3095,136233_0.14646464646464652.png,9,93,live
784,A1IV1O890FN1QA:3E13VNJ1NP2FUFZ3OO4HH5AB9L91IC,7454,136175_-0.4393939393939394.png,8,94,live
785,A1IV1O890FN1QA:3E13VNJ1NP2FUFZ3OO4HH5AB9L91IC,2334,136219_0.005050505050505083.png,8,95,live
786,A1IV1O890FN1QA:3E13VNJ1NP2FUFZ3OO4HH5AB9L91IC,2061,136249_0.3080808080808082.png,8,96,live
787,A1IV1O890FN1QA:3E13VNJ1NP2FUFZ3OO4HH5AB9L91IC,2294,136225_0.06565656565656575.png,9,97,live
788,A1IV1O890FN1QA:3E13VNJ1NP2FUFZ3OO4HH5AB9L91IC,3311,136209_-0.09595959595959591.png,8,98,live
789,A1IV1O890FN1QA:3E13VNJ1NP2FUFZ3OO4HH5AB9L91IC,2998,136216_-0.025252525252525193.png,8,99,live
790,A1IV1O890FN1QA:3E13VNJ1NP2FUFZ3OO4HH5AB9L91IC,3285,136205_-0.13636363636363635.png,9,101,live
791,A1IV1O890FN1QA:3E13VNJ1NP2FUFZ3OO4HH5AB9L91IC,2008,136171_-0.4797979797979798.png,8,102,live
792,A1IV1O890FN1QA:3E13VNJ1NP2FUFZ3OO4HH5AB9L91IC,2054,136193_-0.25757575757575757.png,9,103,live
793,A1IV1O890FN1QA:3E13VNJ1NP2FUFZ3OO4HH5AB9L91IC,1925,136210_-0.0858585858585858.png,8,104,live
794,A1IV1O890FN1QA:3E13VNJ1NP2FUFZ3OO4HH5AB9L91IC,2207,136228_0.09595959595959602.png,9,105,live
795,A1IV1O890FN1QA:3E13VNJ1NP2FUFZ3OO4HH5AB9L91IC,2270,136173_-0.4595959595959596.png,8,106,live
796,A1IV1O890FN1QA:3E13VNJ1NP2FUFZ3OO4HH5AB9L91IC,1972,136211_-0.07575757575757575.png,8,107,live
797,A1IV1O890FN1QA:3E13VNJ1NP2FUFZ3OO4HH5AB9L91IC,1694,136199_-0.19696969696969696.png,8,108,live
798,A1IV1O890FN1QA:3E13VNJ1NP2FUFZ3OO4HH5AB9L91IC,2397,136229_0.10606060606060608.png,9,109,live
799,A1IV1O890FN1QA:3E13VNJ1NP2FUFZ3OO4HH5AB9L91IC,5262,136267_0.48989898989898994.png,8,110,live
800,A1B41SBHTQBG8G:3YT88D1N0A52AD36BV3CIE4LZ9BK3X,3350,136203_-0.15656565656565652.png,5,2,live
801,A1B41SBHTQBG8G:3YT88D1N0A52AD36BV3CIE4LZ9BK3X,2389,136188_-0.30808080808080807.png,4,3,live
802,A1B41SBHTQBG8G:3YT88D1N0A52AD36BV3CIE4LZ9BK3X,2493,136225_0.06565656565656575.png,7,4,live
803,A1B41SBHTQBG8G:3YT88D1N0A52AD36BV3CIE4LZ9BK3X,1841,136229_0.10606060606060608.png,4,5,live
804,A1B41SBHTQBG8G:3YT88D1N0A52AD36BV3CIE4LZ9BK3X,2798,136196_-0.22727272727272724.png,5,6,live
805,A1B41SBHTQBG8G:3YT88D1N0A52AD36BV3CIE4LZ9BK3X,1925,136262_0.43939393939393945.png,3,7,live
806,A1B41SBHTQBG8G:3YT88D1N0A52AD36BV3CIE4LZ9BK3X,1680,136189_-0.29797979797979796.png,6,8,live
807,A1B41SBHTQBG8G:3YT88D1N0A52AD36BV3CIE4LZ9BK3X,1863,136181_-0.3787878787878788.png,7,9,live
808,A1B41SBHTQBG8G:3YT88D1N0A52AD36BV3CIE4LZ9BK3X,1916,136194_-0.24747474747474746.png,4,10,live
809,A1B41SBHTQBG8G:3YT88D1N0A52AD36BV3CIE4LZ9BK3X,2133,136233_0.14646464646464652.png,3,11,live
810,A1B41SBHTQBG8G:3YT88D1N0A52AD36BV3CIE4LZ9BK3X,3667,136258_0.3989898989898991.png,6,13,live
811,A1B41SBHTQBG8G:3YT88D1N0A52AD36BV3CIE4LZ9BK3X,3276,136234_0.15656565656565657.png,5,14,live
812,A1B41SBHTQBG8G:3YT88D1N0A52AD36BV3CIE4LZ9BK3X,1812,136175_-0.4393939393939394.png,7,15,live
813,A1B41SBHTQBG8G:3YT88D1N0A52AD36BV3CIE4LZ9BK3X,1668,136198_-0.20707070707070707.png,6,16,live
814,A1B41SBHTQBG8G:3YT88D1N0A52AD36BV3CIE4LZ9BK3X,3593,136262_0.43939393939393945.png,4,17,live
815,A1B41SBHTQBG8G:3YT88D1N0A52AD36BV3CIE4LZ9BK3X,3417,136207_-0.11616161616161613.png,3,18,live
816,A1B41SBHTQBG8G:3YT88D1N0A52AD36BV3CIE4LZ9BK3X,2003,136267_0.48989898989898994.png,5,19,live
817,A1B41SBHTQBG8G:3YT88D1N0A52AD36BV3CIE4LZ9BK3X,2504,136251_0.3282828282828284.png,4,20,live
818,A1B41SBHTQBG8G:3YT88D1N0A52AD36BV3CIE4LZ9BK3X,2167,136205_-0.13636363636363635.png,5,21,live
819,A1B41SBHTQBG8G:3YT88D1N0A52AD36BV3CIE4LZ9BK3X,3404,136206_-0.12626262626262624.png,6,22,live
820,A1B41SBHTQBG8G:3YT88D1N0A52AD36BV3CIE4LZ9BK3X,6319,136223_0.045454545454545525.png,7,24,live
821,A1B41SBHTQBG8G:3YT88D1N0A52AD36BV3CIE4LZ9BK3X,1926,136240_0.21717171717171724.png,4,25,live
822,A1B41SBHTQBG8G:3YT88D1N0A52AD36BV3CIE4LZ9BK3X,2070,136254_0.3585858585858587.png,5,26,live
823,A1B41SBHTQBG8G:3YT88D1N0A52AD36BV3CIE4LZ9BK3X,2315,136212_-0.06565656565656564.png,6,27,live
824,A1B41SBHTQBG8G:3YT88D1N0A52AD36BV3CIE4LZ9BK3X,1894,136192_-0.2676767676767676.png,4,28,live
825,A1B41SBHTQBG8G:3YT88D1N0A52AD36BV3CIE4LZ9BK3X,1761,136237_0.18686868686868696.png,5,29,live
826,A1B41SBHTQBG8G:3YT88D1N0A52AD36BV3CIE4LZ9BK3X,1916,136177_-0.41919191919191917.png,4,30,live
827,A1B41SBHTQBG8G:3YT88D1N0A52AD36BV3CIE4LZ9BK3X,1888,136178_-0.40909090909090906.png,6,31,live
828,A1B41SBHTQBG8G:3YT88D1N0A52AD36BV3CIE4LZ9BK3X,1991,136216_-0.025252525252525193.png,5,32,live
829,A1B41SBHTQBG8G:3YT88D1N0A52AD36BV3CIE4LZ9BK3X,2485,136222_0.03535353535353536.png,7,33,live
830,A1B41SBHTQBG8G:3YT88D1N0A52AD36BV3CIE4LZ9BK3X,3336,136200_-0.18686868686868685.png,7,35,live
831,A1B41SBHTQBG8G:3YT88D1N0A52AD36BV3CIE4LZ9BK3X,2290,136191_-0.2777777777777778.png,4,36,live
832,A1B41SBHTQBG8G:3YT88D1N0A52AD36BV3CIE4LZ9BK3X,2255,136208_-0.10606060606060602.png,5,37,live
833,A1B41SBHTQBG8G:3YT88D1N0A52AD36BV3CIE4LZ9BK3X,6238,136186_-0.3282828282828283.png,6,38,live
834,A1B41SBHTQBG8G:3YT88D1N0A52AD36BV3CIE4LZ9BK3X,2020,136222_0.03535353535353536.png,3,39,live
835,A1B41SBHTQBG8G:3YT88D1N0A52AD36BV3CIE4LZ9BK3X,1686,136244_0.2575757575757577.png,5,40,live
836,A1B41SBHTQBG8G:3YT88D1N0A52AD36BV3CIE4LZ9BK3X,2266,136226_0.0757575757575758.png,6,41,live
837,A1B41SBHTQBG8G:3YT88D1N0A52AD36BV3CIE4LZ9BK3X,1887,136184_-0.3484848484848485.png,4,42,live
838,A1B41SBHTQBG8G:3YT88D1N0A52AD36BV3CIE4LZ9BK3X,1996,136173_-0.4595959595959596.png,5,43,live
839,A1B41SBHTQBG8G:3YT88D1N0A52AD36BV3CIE4LZ9BK3X,2195,136187_-0.3181818181818182.png,7,44,live
840,A1B41SBHTQBG8G:3YT88D1N0A52AD36BV3CIE4LZ9BK3X,540943,136170_-0.4898989898989899.png,6,46,live
841,A1B41SBHTQBG8G:3YT88D1N0A52AD36BV3CIE4LZ9BK3X,2557,136250_0.31818181818181823.png,5,47,live
842,A1B41SBHTQBG8G:3YT88D1N0A52AD36BV3CIE4LZ9BK3X,2395,136204_-0.1464646464646464.png,7,48,live
843,A1B41SBHTQBG8G:3YT88D1N0A52AD36BV3CIE4LZ9BK3X,2395,136232_0.13636363636363646.png,6,49,live
844,A1B41SBHTQBG8G:3YT88D1N0A52AD36BV3CIE4LZ9BK3X,2687,136255_0.36868686868686873.png,8,50,live
845,A1B41SBHTQBG8G:3YT88D1N0A52AD36BV3CIE4LZ9BK3X,2686,136228_0.09595959595959602.png,7,51,live
846,A1B41SBHTQBG8G:3YT88D1N0A52AD36BV3CIE4LZ9BK3X,2006,136246_0.2777777777777778.png,6,52,live
847,A1B41SBHTQBG8G:3YT88D1N0A52AD36BV3CIE4LZ9BK3X,6054,136210_-0.0858585858585858.png,7,53,live
848,A1B41SBHTQBG8G:3YT88D1N0A52AD36BV3CIE4LZ9BK3X,2093,136208_-0.10606060606060602.png,8,54,live
849,A1B41SBHTQBG8G:3YT88D1N0A52AD36BV3CIE4LZ9BK3X,1906,136213_-0.055555555555555525.png,4,55,live
850,A1B41SBHTQBG8G:3YT88D1N0A52AD36BV3CIE4LZ9BK3X,4570,136225_0.06565656565656575.png,5,57,live
851,A1B41SBHTQBG8G:3YT88D1N0A52AD36BV3CIE4LZ9BK3X,2215,136202_-0.16666666666666663.png,4,58,live
852,A1B41SBHTQBG8G:3YT88D1N0A52AD36BV3CIE4LZ9BK3X,2618,136193_-0.25757575757575757.png,7,59,live
853,A1B41SBHTQBG8G:3YT88D1N0A52AD36BV3CIE4LZ9BK3X,1671,136203_-0.15656565656565652.png,5,60,live
854,A1B41SBHTQBG8G:3YT88D1N0A52AD36BV3CIE4LZ9BK3X,2217,136171_-0.4797979797979798.png,4,61,live
855,A1B41SBHTQBG8G:3YT88D1N0A52AD36BV3CIE4LZ9BK3X,2155,136255_0.36868686868686873.png,7,62,live
856,A1B41SBHTQBG8G:3YT88D1N0A52AD36BV3CIE4LZ9BK3X,2165,136257_0.38888888888888895.png,6,63,live
857,A1B41SBHTQBG8G:3YT88D1N0A52AD36BV3CIE4LZ9BK3X,14108,136227_0.08585858585858586.png,7,64,live
858,A1B41SBHTQBG8G:3YT88D1N0A52AD36BV3CIE4LZ9BK3X,2587,136247_0.28787878787878796.png,6,65,live
859,A1B41SBHTQBG8G:3YT88D1N0A52AD36BV3CIE4LZ9BK3X,2488,136183_-0.35858585858585856.png,4,66,live
860,A1B41SBHTQBG8G:3YT88D1N0A52AD36BV3CIE4LZ9BK3X,3635,136239_0.20707070707070718.png,7,68,live
861,A1B41SBHTQBG8G:3YT88D1N0A52AD36BV3CIE4LZ9BK3X,2095,136227_0.08585858585858586.png,4,69,live
862,A1B41SBHTQBG8G:3YT88D1N0A52AD36BV3CIE4LZ9BK3X,2253,136220_0.015151515151515249.png,5,70,live
863,A1B41SBHTQBG8G:3YT88D1N0A52AD36BV3CIE4LZ9BK3X,30361,136231_0.1262626262626263.png,6,71,live
864,A1B41SBHTQBG8G:3YT88D1N0A52AD36BV3CIE4LZ9BK3X,2313,136190_-0.28787878787878785.png,7,72,live
865,A1B41SBHTQBG8G:3YT88D1N0A52AD36BV3CIE4LZ9BK3X,2594,136238_0.19696969696969702.png,4,73,live
866,A1B41SBHTQBG8G:3YT88D1N0A52AD36BV3CIE4LZ9BK3X,2354,136196_-0.22727272727272724.png,6,74,live
867,A1B41SBHTQBG8G:3YT88D1N0A52AD36BV3CIE4LZ9BK3X,3179,136179_-0.398989898989899.png,5,75,live
868,A1B41SBHTQBG8G:3YT88D1N0A52AD36BV3CIE4LZ9BK3X,2158,136263_0.4494949494949496.png,7,76,live
869,A1B41SBHTQBG8G:3YT88D1N0A52AD36BV3CIE4LZ9BK3X,2214,136249_0.3080808080808082.png,6,77,live
870,A1B41SBHTQBG8G:3YT88D1N0A52AD36BV3CIE4LZ9BK3X,4248,136266_0.4797979797979799.png,7,79,live
871,A1B41SBHTQBG8G:3YT88D1N0A52AD36BV3CIE4LZ9BK3X,1871,136191_-0.2777777777777778.png,4,80,live
872,A1B41SBHTQBG8G:3YT88D1N0A52AD36BV3CIE4LZ9BK3X,2266,136211_-0.07575757575757575.png,3,81,live
873,A1B41SBHTQBG8G:3YT88D1N0A52AD36BV3CIE4LZ9BK3X,1958,136243_0.24747474747474751.png,6,82,live
874,A1B41SBHTQBG8G:3YT88D1N0A52AD36BV3CIE4LZ9BK3X,2314,136202_-0.16666666666666663.png,5,83,live
875,A1B41SBHTQBG8G:3YT88D1N0A52AD36BV3CIE4LZ9BK3X,2082,136176_-0.4292929292929293.png,4,84,live
876,A1B41SBHTQBG8G:3YT88D1N0A52AD36BV3CIE4LZ9BK3X,4223,136201_-0.17676767676767674.png,7,85,live
877,A1B41SBHTQBG8G:3YT88D1N0A52AD36BV3CIE4LZ9BK3X,3440,136219_0.005050505050505083.png,5,86,live
878,A1B41SBHTQBG8G:3YT88D1N0A52AD36BV3CIE4LZ9BK3X,4753,136234_0.15656565656565657.png,7,87,live
879,A1B41SBHTQBG8G:3YT88D1N0A52AD36BV3CIE4LZ9BK3X,2288,136215_-0.035353535353535304.png,5,88,live
880,A1B41SBHTQBG8G:3YT88D1N0A52AD36BV3CIE4LZ9BK3X,2255,136177_-0.41919191919191917.png,5,90,live
881,A1B41SBHTQBG8G:3YT88D1N0A52AD36BV3CIE4LZ9BK3X,2390,136199_-0.19696969696969696.png,7,91,live
882,A1B41SBHTQBG8G:3YT88D1N0A52AD36BV3CIE4LZ9BK3X,2188,136197_-0.21717171717171713.png,3,92,live
883,A1B41SBHTQBG8G:3YT88D1N0A52AD36BV3CIE4LZ9BK3X,1718,136175_-0.4393939393939394.png,5,93,live
884,A1B41SBHTQBG8G:3YT88D1N0A52AD36BV3CIE4LZ9BK3X,2020,136185_-0.33838383838383834.png,7,94,live
885,A1B41SBHTQBG8G:3YT88D1N0A52AD36BV3CIE4LZ9BK3X,2576,136221_0.025252525252525304.png,6,95,live
886,A1B41SBHTQBG8G:3YT88D1N0A52AD36BV3CIE4LZ9BK3X,3672,136209_-0.09595959595959591.png,4,96,live
887,A1B41SBHTQBG8G:3YT88D1N0A52AD36BV3CIE4LZ9BK3X,2336,136182_-0.3686868686868687.png,6,97,live
888,A1B41SBHTQBG8G:3YT88D1N0A52AD36BV3CIE4LZ9BK3X,2205,136238_0.19696969696969702.png,5,98,live
889,A1B41SBHTQBG8G:3YT88D1N0A52AD36BV3CIE4LZ9BK3X,2402,136216_-0.025252525252525193.png,7,99,live
890,A1B41SBHTQBG8G:3YT88D1N0A52AD36BV3CIE4LZ9BK3X,2555,136210_-0.0858585858585858.png,7,101,live
891,A1B41SBHTQBG8G:3YT88D1N0A52AD36BV3CIE4LZ9BK3X,2637,136241_0.2272727272727273.png,8,102,live
892,A1B41SBHTQBG8G:3YT88D1N0A52AD36BV3CIE4LZ9BK3X,1896,136182_-0.3686868686868687.png,4,103,live
893,A1B41SBHTQBG8G:3YT88D1N0A52AD36BV3CIE4LZ9BK3X,4307,136257_0.38888888888888895.png,3,104,live
894,A1B41SBHTQBG8G:3YT88D1N0A52AD36BV3CIE4LZ9BK3X,2648,136228_0.09595959595959602.png,6,105,live
895,A1B41SBHTQBG8G:3YT88D1N0A52AD36BV3CIE4LZ9BK3X,4056,136171_-0.4797979797979798.png,4,106,live
896,A1B41SBHTQBG8G:3YT88D1N0A52AD36BV3CIE4LZ9BK3X,2449,136214_-0.045454545454545414.png,5,107,live
897,A1B41SBHTQBG8G:3YT88D1N0A52AD36BV3CIE4LZ9BK3X,2319,136217_-0.015151515151515138.png,6,108,live
898,A1B41SBHTQBG8G:3YT88D1N0A52AD36BV3CIE4LZ9BK3X,2747,136264_0.45959595959595967.png,7,109,live
899,A1B41SBHTQBG8G:3YT88D1N0A52AD36BV3CIE4LZ9BK3X,2804,136172_-0.4696969696969697.png,3,110,live
900,A20SL254675EOK:3AWETUDC94ZCPBKBWZD99ZUNM0TZI6,4247,136213_-0.055555555555555525.png,2,2,live
901,A20SL254675EOK:3AWETUDC94ZCPBKBWZD99ZUNM0TZI6,3755,136212_-0.06565656565656564.png,3,3,live
902,A20SL254675EOK:3AWETUDC94ZCPBKBWZD99ZUNM0TZI6,2725,136175_-0.4393939393939394.png,3,4,live
903,A20SL254675EOK:3AWETUDC94ZCPBKBWZD99ZUNM0TZI6,2306,136229_0.10606060606060608.png,5,5,live
904,A20SL254675EOK:3AWETUDC94ZCPBKBWZD99ZUNM0TZI6,3169,136262_0.43939393939393945.png,5,6,live
905,A20SL254675EOK:3AWETUDC94ZCPBKBWZD99ZUNM0TZI6,2448,136257_0.38888888888888895.png,6,7,live
906,A20SL254675EOK:3AWETUDC94ZCPBKBWZD99ZUNM0TZI6,2563,136223_0.045454545454545525.png,4,8,live
907,A20SL254675EOK:3AWETUDC94ZCPBKBWZD99ZUNM0TZI6,2768,136172_-0.4696969696969697.png,3,9,live
908,A20SL254675EOK:3AWETUDC94ZCPBKBWZD99ZUNM0TZI6,2551,136210_-0.0858585858585858.png,3,10,live
909,A20SL254675EOK:3AWETUDC94ZCPBKBWZD99ZUNM0TZI6,2912,136182_-0.3686868686868687.png,2,11,live
910,A20SL254675EOK:3AWETUDC94ZCPBKBWZD99ZUNM0TZI6,3666,136191_-0.2777777777777778.png,5,13,live
911,A20SL254675EOK:3AWETUDC94ZCPBKBWZD99ZUNM0TZI6,2347,136210_-0.0858585858585858.png,3,14,live
912,A20SL254675EOK:3AWETUDC94ZCPBKBWZD99ZUNM0TZI6,2509,136170_-0.4898989898989899.png,4,15,live
913,A20SL254675EOK:3AWETUDC94ZCPBKBWZD99ZUNM0TZI6,3289,136266_0.4797979797979799.png,7,16,live
914,A20SL254675EOK:3AWETUDC94ZCPBKBWZD99ZUNM0TZI6,3122,136186_-0.3282828282828283.png,3,17,live
915,A20SL254675EOK:3AWETUDC94ZCPBKBWZD99ZUNM0TZI6,2348,136205_-0.13636363636363635.png,6,18,live
916,A20SL254675EOK:3AWETUDC94ZCPBKBWZD99ZUNM0TZI6,2759,136239_0.20707070707070718.png,6,19,live
917,A20SL254675EOK:3AWETUDC94ZCPBKBWZD99ZUNM0TZI6,2870,136243_0.24747474747474751.png,4,20,live
918,A20SL254675EOK:3AWETUDC94ZCPBKBWZD99ZUNM0TZI6,2657,136208_-0.10606060606060602.png,3,21,live
919,A20SL254675EOK:3AWETUDC94ZCPBKBWZD99ZUNM0TZI6,4334,136187_-0.3181818181818182.png,2,22,live
920,A20SL254675EOK:3AWETUDC94ZCPBKBWZD99ZUNM0TZI6,2634,136203_-0.15656565656565652.png,4,24,live
921,A20SL254675EOK:3AWETUDC94ZCPBKBWZD99ZUNM0TZI6,6317,136263_0.4494949494949496.png,4,25,live
922,A20SL254675EOK:3AWETUDC94ZCPBKBWZD99ZUNM0TZI6,2151,136207_-0.11616161616161613.png,5,26,live
923,A20SL254675EOK:3AWETUDC94ZCPBKBWZD99ZUNM0TZI6,3120,136177_-0.41919191919191917.png,7,27,live
924,A20SL254675EOK:3AWETUDC94ZCPBKBWZD99ZUNM0TZI6,2135,136264_0.45959595959595967.png,4,28,live
925,A20SL254675EOK:3AWETUDC94ZCPBKBWZD99ZUNM0TZI6,3752,136226_0.0757575757575758.png,4,29,live
926,A20SL254675EOK:3AWETUDC94ZCPBKBWZD99ZUNM0TZI6,3623,136202_-0.16666666666666663.png,5,30,live
927,A20SL254675EOK:3AWETUDC94ZCPBKBWZD99ZUNM0TZI6,3495,136171_-0.4797979797979798.png,7,31,live
928,A20SL254675EOK:3AWETUDC94ZCPBKBWZD99ZUNM0TZI6,2384,136179_-0.398989898989899.png,5,32,live
929,A20SL254675EOK:3AWETUDC94ZCPBKBWZD99ZUNM0TZI6,1958,136196_-0.22727272727272724.png,5,33,live
930,A20SL254675EOK:3AWETUDC94ZCPBKBWZD99ZUNM0TZI6,4766,136177_-0.41919191919191917.png,6,35,live
931,A20SL254675EOK:3AWETUDC94ZCPBKBWZD99ZUNM0TZI6,4447,136197_-0.21717171717171713.png,4,36,live
932,A20SL254675EOK:3AWETUDC94ZCPBKBWZD99ZUNM0TZI6,2480,136199_-0.19696969696969696.png,3,37,live
933,A20SL254675EOK:3AWETUDC94ZCPBKBWZD99ZUNM0TZI6,3223,136203_-0.15656565656565652.png,3,38,live
934,A20SL254675EOK:3AWETUDC94ZCPBKBWZD99ZUNM0TZI6,5048,136257_0.38888888888888895.png,6,39,live
935,A20SL254675EOK:3AWETUDC94ZCPBKBWZD99ZUNM0TZI6,2456,136241_0.2272727272727273.png,3,40,live
936,A20SL254675EOK:3AWETUDC94ZCPBKBWZD99ZUNM0TZI6,4992,136171_-0.4797979797979798.png,6,41,live
937,A20SL254675EOK:3AWETUDC94ZCPBKBWZD99ZUNM0TZI6,4031,136227_0.08585858585858586.png,6,42,live
938,A20SL254675EOK:3AWETUDC94ZCPBKBWZD99ZUNM0TZI6,2967,136234_0.15656565656565657.png,5,43,live
939,A20SL254675EOK:3AWETUDC94ZCPBKBWZD99ZUNM0TZI6,4464,136189_-0.29797979797979796.png,2,44,live
940,A20SL254675EOK:3AWETUDC94ZCPBKBWZD99ZUNM0TZI6,3475,136209_-0.09595959595959591.png,4,46,live
941,A20SL254675EOK:3AWETUDC94ZCPBKBWZD99ZUNM0TZI6,3424,136233_0.14646464646464652.png,5,47,live
942,A20SL254675EOK:3AWETUDC94ZCPBKBWZD99ZUNM0TZI6,2448,136238_0.19696969696969702.png,2,48,live
943,A20SL254675EOK:3AWETUDC94ZCPBKBWZD99ZUNM0TZI6,1743,136254_0.3585858585858587.png,3,49,live
944,A20SL254675EOK:3AWETUDC94ZCPBKBWZD99ZUNM0TZI6,2080,136251_0.3282828282828284.png,2,50,live
945,A20SL254675EOK:3AWETUDC94ZCPBKBWZD99ZUNM0TZI6,2920,136222_0.03535353535353536.png,3,51,live
946,A20SL254675EOK:3AWETUDC94ZCPBKBWZD99ZUNM0TZI6,2895,136188_-0.30808080808080807.png,3,52,live
947,A20SL254675EOK:3AWETUDC94ZCPBKBWZD99ZUNM0TZI6,3047,136225_0.06565656565656575.png,2,53,live
948,A20SL254675EOK:3AWETUDC94ZCPBKBWZD99ZUNM0TZI6,2367,136238_0.19696969696969702.png,2,54,live
949,A20SL254675EOK:3AWETUDC94ZCPBKBWZD99ZUNM0TZI6,3391,136240_0.21717171717171724.png,4,55,live
950,A20SL254675EOK:3AWETUDC94ZCPBKBWZD99ZUNM0TZI6,2179,136215_-0.035353535353535304.png,3,57,live
951,A20SL254675EOK:3AWETUDC94ZCPBKBWZD99ZUNM0TZI6,3223,136258_0.3989898989898991.png,3,58,live
952,A20SL254675EOK:3AWETUDC94ZCPBKBWZD99ZUNM0TZI6,2469,136200_-0.18686868686868685.png,4,59,live
953,A20SL254675EOK:3AWETUDC94ZCPBKBWZD99ZUNM0TZI6,5391,136185_-0.33838383838383834.png,6,60,live
954,A20SL254675EOK:3AWETUDC94ZCPBKBWZD99ZUNM0TZI6,5320,136246_0.2777777777777778.png,6,61,live
955,A20SL254675EOK:3AWETUDC94ZCPBKBWZD99ZUNM0TZI6,2775,136201_-0.17676767676767674.png,4,62,live
956,A20SL254675EOK:3AWETUDC94ZCPBKBWZD99ZUNM0TZI6,3199,136250_0.31818181818181823.png,2,63,live
957,A20SL254675EOK:3AWETUDC94ZCPBKBWZD99ZUNM0TZI6,2392,136202_-0.16666666666666663.png,5,64,live
958,A20SL254675EOK:3AWETUDC94ZCPBKBWZD99ZUNM0TZI6,1896,136211_-0.07575757575757575.png,6,65,live
959,A20SL254675EOK:3AWETUDC94ZCPBKBWZD99ZUNM0TZI6,3431,136228_0.09595959595959602.png,3,66,live
960,A20SL254675EOK:3AWETUDC94ZCPBKBWZD99ZUNM0TZI6,5182,136208_-0.10606060606060602.png,3,68,live
961,A20SL254675EOK:3AWETUDC94ZCPBKBWZD99ZUNM0TZI6,4686,136219_0.005050505050505083.png,3,69,live
962,A20SL254675EOK:3AWETUDC94ZCPBKBWZD99ZUNM0TZI6,5200,136232_0.13636363636363646.png,4,70,live
963,A20SL254675EOK:3AWETUDC94ZCPBKBWZD99ZUNM0TZI6,2488,136184_-0.3484848484848485.png,3,71,live
964,A20SL254675EOK:3AWETUDC94ZCPBKBWZD99ZUNM0TZI6,2049,136216_-0.025252525252525193.png,3,72,live
965,A20SL254675EOK:3AWETUDC94ZCPBKBWZD99ZUNM0TZI6,3000,136249_0.3080808080808082.png,2,73,live
966,A20SL254675EOK:3AWETUDC94ZCPBKBWZD99ZUNM0TZI6,2942,136182_-0.3686868686868687.png,2,74,live
967,A20SL254675EOK:3AWETUDC94ZCPBKBWZD99ZUNM0TZI6,2112,136191_-0.2777777777777778.png,5,75,live
968,A20SL254675EOK:3AWETUDC94ZCPBKBWZD99ZUNM0TZI6,1951,136262_0.43939393939393945.png,5,76,live
969,A20SL254675EOK:3AWETUDC94ZCPBKBWZD99ZUNM0TZI6,2088,136178_-0.40909090909090906.png,4,77,live
970,A20SL254675EOK:3AWETUDC94ZCPBKBWZD99ZUNM0TZI6,2429,136193_-0.25757575757575757.png,5,79,live
971,A20SL254675EOK:3AWETUDC94ZCPBKBWZD99ZUNM0TZI6,2376,136176_-0.4292929292929293.png,1,80,live
972,A20SL254675EOK:3AWETUDC94ZCPBKBWZD99ZUNM0TZI6,3287,136228_0.09595959595959602.png,3,81,live
973,A20SL254675EOK:3AWETUDC94ZCPBKBWZD99ZUNM0TZI6,2167,136225_0.06565656565656575.png,3,82,live
974,A20SL254675EOK:3AWETUDC94ZCPBKBWZD99ZUNM0TZI6,1766,136173_-0.4595959595959596.png,4,83,live
975,A20SL254675EOK:3AWETUDC94ZCPBKBWZD99ZUNM0TZI6,3440,136194_-0.24747474747474746.png,5,84,live
976,A20SL254675EOK:3AWETUDC94ZCPBKBWZD99ZUNM0TZI6,2879,136196_-0.22727272727272724.png,5,85,live
977,A20SL254675EOK:3AWETUDC94ZCPBKBWZD99ZUNM0TZI6,2342,136206_-0.12626262626262624.png,3,86,live
978,A20SL254675EOK:3AWETUDC94ZCPBKBWZD99ZUNM0TZI6,2255,136255_0.36868686868686873.png,5,87,live
979,A20SL254675EOK:3AWETUDC94ZCPBKBWZD99ZUNM0TZI6,6842,136220_0.015151515151515249.png,6,88,live
980,A20SL254675EOK:3AWETUDC94ZCPBKBWZD99ZUNM0TZI6,3939,136221_0.025252525252525304.png,3,90,live
981,A20SL254675EOK:3AWETUDC94ZCPBKBWZD99ZUNM0TZI6,2120,136255_0.36868686868686873.png,5,91,live
982,A20SL254675EOK:3AWETUDC94ZCPBKBWZD99ZUNM0TZI6,2319,136267_0.48989898989898994.png,5,92,live
983,A20SL254675EOK:3AWETUDC94ZCPBKBWZD99ZUNM0TZI6,3504,136198_-0.20707070707070707.png,3,93,live
984,A20SL254675EOK:3AWETUDC94ZCPBKBWZD99ZUNM0TZI6,4359,136237_0.18686868686868696.png,4,94,live
985,A20SL254675EOK:3AWETUDC94ZCPBKBWZD99ZUNM0TZI6,2511,136217_-0.015151515151515138.png,3,95,live
986,A20SL254675EOK:3AWETUDC94ZCPBKBWZD99ZUNM0TZI6,2335,136227_0.08585858585858586.png,5,96,live
987,A20SL254675EOK:3AWETUDC94ZCPBKBWZD99ZUNM0TZI6,2631,136231_0.1262626262626263.png,2,97,live
988,A20SL254675EOK:3AWETUDC94ZCPBKBWZD99ZUNM0TZI6,3528,136183_-0.35858585858585856.png,5,98,live
989,A20SL254675EOK:3AWETUDC94ZCPBKBWZD99ZUNM0TZI6,2480,136234_0.15656565656565657.png,5,99,live
990,A20SL254675EOK:3AWETUDC94ZCPBKBWZD99ZUNM0TZI6,3218,136222_0.03535353535353536.png,3,101,live
991,A20SL254675EOK:3AWETUDC94ZCPBKBWZD99ZUNM0TZI6,2463,136247_0.28787878787878796.png,4,102,live
992,A20SL254675EOK:3AWETUDC94ZCPBKBWZD99ZUNM0TZI6,3630,136190_-0.28787878787878785.png,7,103,live
993,A20SL254675EOK:3AWETUDC94ZCPBKBWZD99ZUNM0TZI6,2399,136204_-0.1464646464646464.png,5,104,live
994,A20SL254675EOK:3AWETUDC94ZCPBKBWZD99ZUNM0TZI6,5528,136244_0.2575757575757577.png,3,105,live
995,A20SL254675EOK:3AWETUDC94ZCPBKBWZD99ZUNM0TZI6,2320,136216_-0.025252525252525193.png,3,106,live
996,A20SL254675EOK:3AWETUDC94ZCPBKBWZD99ZUNM0TZI6,3055,136175_-0.4393939393939394.png,2,107,live
997,A20SL254675EOK:3AWETUDC94ZCPBKBWZD99ZUNM0TZI6,3390,136192_-0.2676767676767676.png,4,108,live
998,A20SL254675EOK:3AWETUDC94ZCPBKBWZD99ZUNM0TZI6,2334,136181_-0.3787878787878788.png,5,109,live
999,A20SL254675EOK:3AWETUDC94ZCPBKBWZD99ZUNM0TZI6,2759,136214_-0.045454545454545414.png,3,110,live
1000,A208PEBUMRIFP6:3LEIZ60CDL6JEAR8S57WW6VK3A5Z9M,10650,136185_-0.33838383838383834.png,6,2,live
1001,A208PEBUMRIFP6:3LEIZ60CDL6JEAR8S57WW6VK3A5Z9M,3724,136215_-0.035353535353535304.png,5,3,live
1002,A208PEBUMRIFP6:3LEIZ60CDL6JEAR8S57WW6VK3A5Z9M,2285,136197_-0.21717171717171713.png,6,4,live
1003,A208PEBUMRIFP6:3LEIZ60CDL6JEAR8S57WW6VK3A5Z9M,3606,136183_-0.35858585858585856.png,7,5,live
1004,A208PEBUMRIFP6:3LEIZ60CDL6JEAR8S57WW6VK3A5Z9M,6079,136196_-0.22727272727272724.png,7,6,live
1005,A208PEBUMRIFP6:3LEIZ60CDL6JEAR8S57WW6VK3A5Z9M,3945,136229_0.10606060606060608.png,6,7,live
1006,A208PEBUMRIFP6:3LEIZ60CDL6JEAR8S57WW6VK3A5Z9M,3593,136219_0.005050505050505083.png,7,8,live
1007,A208PEBUMRIFP6:3LEIZ60CDL6JEAR8S57WW6VK3A5Z9M,2538,136200_-0.18686868686868685.png,6,9,live
1008,A208PEBUMRIFP6:3LEIZ60CDL6JEAR8S57WW6VK3A5Z9M,2845,136187_-0.3181818181818182.png,7,10,live
1009,A208PEBUMRIFP6:3LEIZ60CDL6JEAR8S57WW6VK3A5Z9M,2725,136226_0.0757575757575758.png,6,11,live
1010,A208PEBUMRIFP6:3LEIZ60CDL6JEAR8S57WW6VK3A5Z9M,3590,136258_0.3989898989898991.png,7,13,live
1011,A208PEBUMRIFP6:3LEIZ60CDL6JEAR8S57WW6VK3A5Z9M,2386,136257_0.38888888888888895.png,6,14,live
1012,A208PEBUMRIFP6:3LEIZ60CDL6JEAR8S57WW6VK3A5Z9M,2634,136175_-0.4393939393939394.png,7,15,live
1013,A208PEBUMRIFP6:3LEIZ60CDL6JEAR8S57WW6VK3A5Z9M,2705,136173_-0.4595959595959596.png,6,16,live
1014,A208PEBUMRIFP6:3LEIZ60CDL6JEAR8S57WW6VK3A5Z9M,2705,136216_-0.025252525252525193.png,7,17,live
1015,A208PEBUMRIFP6:3LEIZ60CDL6JEAR8S57WW6VK3A5Z9M,2257,136221_0.025252525252525304.png,6,18,live
1016,A208PEBUMRIFP6:3LEIZ60CDL6JEAR8S57WW6VK3A5Z9M,3228,136192_-0.2676767676767676.png,6,19,live
1017,A208PEBUMRIFP6:3LEIZ60CDL6JEAR8S57WW6VK3A5Z9M,4044,136237_0.18686868686868696.png,7,20,live
1018,A208PEBUMRIFP6:3LEIZ60CDL6JEAR8S57WW6VK3A5Z9M,2732,136178_-0.40909090909090906.png,6,21,live
1019,A208PEBUMRIFP6:3LEIZ60CDL6JEAR8S57WW6VK3A5Z9M,3276,136234_0.15656565656565657.png,7,22,live
1020,A208PEBUMRIFP6:3LEIZ60CDL6JEAR8S57WW6VK3A5Z9M,3174,136212_-0.06565656565656564.png,8,24,live
1021,A208PEBUMRIFP6:3LEIZ60CDL6JEAR8S57WW6VK3A5Z9M,2459,136247_0.28787878787878796.png,7,25,live
1022,A208PEBUMRIFP6:3LEIZ60CDL6JEAR8S57WW6VK3A5Z9M,2942,136211_-0.07575757575757575.png,6,26,live
1023,A208PEBUMRIFP6:3LEIZ60CDL6JEAR8S57WW6VK3A5Z9M,2888,136175_-0.4393939393939394.png,7,27,live
1024,A208PEBUMRIFP6:3LEIZ60CDL6JEAR8S57WW6VK3A5Z9M,2827,136217_-0.015151515151515138.png,7,28,live
1025,A208PEBUMRIFP6:3LEIZ60CDL6JEAR8S57WW6VK3A5Z9M,3724,136238_0.19696969696969702.png,6,29,live
1026,A208PEBUMRIFP6:3LEIZ60CDL6JEAR8S57WW6VK3A5Z9M,4265,136186_-0.3282828282828283.png,7,30,live
1027,A208PEBUMRIFP6:3LEIZ60CDL6JEAR8S57WW6VK3A5Z9M,3502,136210_-0.0858585858585858.png,6,31,live
1028,A208PEBUMRIFP6:3LEIZ60CDL6JEAR8S57WW6VK3A5Z9M,3214,136177_-0.41919191919191917.png,7,32,live
1029,A208PEBUMRIFP6:3LEIZ60CDL6JEAR8S57WW6VK3A5Z9M,3088,136251_0.3282828282828284.png,8,33,live
1030,A208PEBUMRIFP6:3LEIZ60CDL6JEAR8S57WW6VK3A5Z9M,2686,136202_-0.16666666666666663.png,7,35,live
1031,A208PEBUMRIFP6:3LEIZ60CDL6JEAR8S57WW6VK3A5Z9M,4307,136257_0.38888888888888895.png,6,36,live
1032,A208PEBUMRIFP6:3LEIZ60CDL6JEAR8S57WW6VK3A5Z9M,2784,136204_-0.1464646464646464.png,7,37,live
1033,A208PEBUMRIFP6:3LEIZ60CDL6JEAR8S57WW6VK3A5Z9M,2689,136231_0.1262626262626263.png,6,38,live
1034,A208PEBUMRIFP6:3LEIZ60CDL6JEAR8S57WW6VK3A5Z9M,4573,136234_0.15656565656565657.png,7,39,live
1035,A208PEBUMRIFP6:3LEIZ60CDL6JEAR8S57WW6VK3A5Z9M,4299,136193_-0.25757575757575757.png,5,40,live
1036,A208PEBUMRIFP6:3LEIZ60CDL6JEAR8S57WW6VK3A5Z9M,3178,136177_-0.41919191919191917.png,6,41,live
1037,A208PEBUMRIFP6:3LEIZ60CDL6JEAR8S57WW6VK3A5Z9M,3795,136220_0.015151515151515249.png,7,42,live
