A35P8YSNTQ7OTP:3VJ40NV2QKUQZLMFO21W78PSDDYTO7,0,1548065844590,"{""rt"": 7252, ""trial_type"": ""instructions"", ""view_history"": ""[{\""page_index\"":0,\""viewing_time\"":4470},{\""page_index\"":1,\""viewing_time\"":982},{\""page_index\"":2,\""viewing_time\"":1799}]"", ""task_type"": ""instruction"", ""task_payment"": 1, ""task_version"": 1, ""internal_node_id"": ""0.0-0.0"", ""time_elapsed"": 7256, ""debug_mode"": ""live"", ""task_name"": ""intelligent-modifae-single"", ""task_unique_trial"": 100, ""trial_index"": 0}"
A35P8YSNTQ7OTP:3VJ40NV2QKUQZLMFO21W78PSDDYTO7,1,1548065870009,"{""rt"": 25387, ""trial_type"": ""survey-multi-choice"", ""task_type"": ""demographic-multichoice"", ""responses"": ""{\""Q0\"":\""46-55\"",\""Q1\"":\""Male\"",\""Q2\"":\""No\"",\""Q3\"":\""4\"",\""Q4\"":\""American Indian or Alaskan Native\"",\""Q5\"":\""Some college, no degree\"",\""Q6\"":\""Less than $20,000\""}"", ""task_payment"": 1, ""task_version"": 1, ""time_elapsed"": 32674, ""sanity_check_1_continue"": true, ""random_num"": 4, ""debug_mode"": ""live"", ""questions"": ""[{\""prompt\"":\""What is your age?\"",\""options\"":[\""Under 18\"",\""18-25\"",\""26-35\"",\""36-45\"",\""46-55\"",\""56+\""],\""required\"":true},{\""prompt\"":\""What is your gender?\"",\""options\"":[\""Male\"",\""Female\"",\""Other/Prefer not to say\""],\""required\"":true},{\""prompt\"":\""Are you of Hispanic, Latino, or Spanish origin?\"",\""options\"":[\""Yes\"",\""No\""],\""required\"":true},{\""prompt\"":\""Please choose the option that matches the number here: 4\"",\""options\"":[\""1\"",\""2\"",\""3\"",\""4\""],\""required\"":true},{\""prompt\"":\""How would you describe yourself?\"",\""options\"":[\""American Indian or Alaskan Native\"",\""Asian\"",\""Black or African-American\"",\""Native Hawaiian or Other Pacific Islander\"",\""White\""],\""required\"":true},{\""prompt\"":\""What is the highest degree or level of school you have completed? (If you&#8217;re currently enrolled in school, please indicate the highest degree you have received)\"",\""options\"":[\""Less than a high school diploma\"",\""High school degree or equivalent (e.g. GED)\"",\""Some college, no degree\"",\""Associate degree (e.g. AA, AS)\"",\""Bachelor&#8217;s degree (e.g. BA, BS) or above\""],\""required\"":true},{\""prompt\"":\""What is the total income of all members of your household?\"",\""options\"":[\""Less than $20,000\"",\""$20,000  - $49,999\"",\""$50,000 - $74,999\"",\""$75,000 and above\""],\""required\"":true}]"", ""internal_node_id"": ""0.0-1.0-0.0"", ""task_unique_trial"": 100, ""task_name"": ""intelligent-modifae-single"", ""trial_index"": 1}"
A35P8YSNTQ7OTP:3VJ40NV2QKUQZLMFO21W78PSDDYTO7,2,1548065872341,"{""rt"": 2319, ""trial_type"": ""face-likert-amanda"", ""debug_mode"": ""live"", ""task_type"": ""face trials"", ""responses"": ""{\""Q0\"":4}"", ""task_payment"": 1, ""task_version"": 1, ""internal_node_id"": ""0.0-2.0-0.0-0.0"", ""time_elapsed"": 35006, ""imgName"": ""/static/images/modifAE_linspace/intelligent/136182_-0.3686868686868687.png"", ""questions"": ""[{\""prompt\"":\""<p>How <b>intelligent</b> does this person look to <b>most people</b>? Rate from 1-9</p>\"",\""labels\"":[\""1 <br/><b>Not intelligent at all</b>\"",\""2\"",\""3\"",\""4\"",\""5\"",\""6\"",\""7\"",\""8\"",\""9  <br/><b>Extremely intelligent</b>\""],\""required\"":true}]"", ""task_unique_trial"": 100, ""task_name"": ""intelligent-modifae-single"", ""trial_index"": 2, ""isRepeat"": 0}"
A35P8YSNTQ7OTP:3VJ40NV2QKUQZLMFO21W78PSDDYTO7,3,1548065875851,"{""rt"": 3502, ""trial_type"": ""face-likert-amanda"", ""debug_mode"": ""live"", ""task_type"": ""face trials"", ""responses"": ""{\""Q0\"":4}"", ""task_payment"": 1, ""task_version"": 1, ""internal_node_id"": ""0.0-2.0-0.0-1.0"", ""time_elapsed"": 38516, ""imgName"": ""/static/images/modifAE_linspace/intelligent/136257_0.38888888888888895.png"", ""questions"": ""[{\""prompt\"":\""<p>How <b>intelligent</b> does this person look to <b>most people</b>? Rate from 1-9</p>\"",\""labels\"":[\""1 <br/><b>Not intelligent at all</b>\"",\""2\"",\""3\"",\""4\"",\""5\"",\""6\"",\""7\"",\""8\"",\""9  <br/><b>Extremely intelligent</b>\""],\""required\"":true}]"", ""task_unique_trial"": 100, ""task_name"": ""intelligent-modifae-single"", ""trial_index"": 3, ""isRepeat"": 0}"
A35P8YSNTQ7OTP:3VJ40NV2QKUQZLMFO21W78PSDDYTO7,4,1548065877848,"{""rt"": 1989, ""trial_type"": ""face-likert-amanda"", ""debug_mode"": ""live"", ""task_type"": ""face trials"", ""responses"": ""{\""Q0\"":4}"", ""task_payment"": 1, ""task_version"": 1, ""internal_node_id"": ""0.0-2.0-0.0-2.0"", ""time_elapsed"": 40513, ""imgName"": ""/static/images/modifAE_linspace/intelligent/136172_-0.4696969696969697.png"", ""questions"": ""[{\""prompt\"":\""<p>How <b>intelligent</b> does this person look to <b>most people</b>? Rate from 1-9</p>\"",\""labels\"":[\""1 <br/><b>Not intelligent at all</b>\"",\""2\"",\""3\"",\""4\"",\""5\"",\""6\"",\""7\"",\""8\"",\""9  <br/><b>Extremely intelligent</b>\""],\""required\"":true}]"", ""task_unique_trial"": 100, ""task_name"": ""intelligent-modifae-single"", ""trial_index"": 4, ""isRepeat"": 0}"
A35P8YSNTQ7OTP:3VJ40NV2QKUQZLMFO21W78PSDDYTO7,5,1548065879540,"{""rt"": 1683, ""trial_type"": ""face-likert-amanda"", ""debug_mode"": ""live"", ""task_type"": ""face trials"", ""responses"": ""{\""Q0\"":4}"", ""task_payment"": 1, ""task_version"": 1, ""internal_node_id"": ""0.0-2.0-0.0-3.0"", ""time_elapsed"": 42205, ""imgName"": ""/static/images/modifAE_linspace/intelligent/136207_-0.11616161616161613.png"", ""questions"": ""[{\""prompt\"":\""<p>How <b>intelligent</b> does this person look to <b>most people</b>? Rate from 1-9</p>\"",\""labels\"":[\""1 <br/><b>Not intelligent at all</b>\"",\""2\"",\""3\"",\""4\"",\""5\"",\""6\"",\""7\"",\""8\"",\""9  <br/><b>Extremely intelligent</b>\""],\""required\"":true}]"", ""task_unique_trial"": 100, ""task_name"": ""intelligent-modifae-single"", ""trial_index"": 5, ""isRepeat"": 0}"
A35P8YSNTQ7OTP:3VJ40NV2QKUQZLMFO21W78PSDDYTO7,6,1548065881268,"{""rt"": 1722, ""trial_type"": ""face-likert-amanda"", ""debug_mode"": ""live"", ""task_type"": ""face trials"", ""responses"": ""{\""Q0\"":4}"", ""task_payment"": 1, ""task_version"": 1, ""internal_node_id"": ""0.0-2.0-0.0-4.0"", ""time_elapsed"": 43934, ""imgName"": ""/static/images/modifAE_linspace/intelligent/136201_-0.17676767676767674.png"", ""questions"": ""[{\""prompt\"":\""<p>How <b>intelligent</b> does this person look to <b>most people</b>? Rate from 1-9</p>\"",\""labels\"":[\""1 <br/><b>Not intelligent at all</b>\"",\""2\"",\""3\"",\""4\"",\""5\"",\""6\"",\""7\"",\""8\"",\""9  <br/><b>Extremely intelligent</b>\""],\""required\"":true}]"", ""task_unique_trial"": 100, ""task_name"": ""intelligent-modifae-single"", ""trial_index"": 6, ""isRepeat"": 0}"
A35P8YSNTQ7OTP:3VJ40NV2QKUQZLMFO21W78PSDDYTO7,7,1548065884383,"{""rt"": 3111, ""trial_type"": ""face-likert-amanda"", ""debug_mode"": ""live"", ""task_type"": ""face trials"", ""responses"": ""{\""Q0\"":4}"", ""task_payment"": 1, ""task_version"": 1, ""internal_node_id"": ""0.0-2.0-0.0-5.0"", ""time_elapsed"": 47049, ""imgName"": ""/static/images/modifAE_linspace/intelligent/136255_0.36868686868686873.png"", ""questions"": ""[{\""prompt\"":\""<p>How <b>intelligent</b> does this person look to <b>most people</b>? Rate from 1-9</p>\"",\""labels\"":[\""1 <br/><b>Not intelligent at all</b>\"",\""2\"",\""3\"",\""4\"",\""5\"",\""6\"",\""7\"",\""8\"",\""9  <br/><b>Extremely intelligent</b>\""],\""required\"":true}]"", ""task_unique_trial"": 100, ""task_name"": ""intelligent-modifae-single"", ""trial_index"": 7, ""isRepeat"": 0}"
A35P8YSNTQ7OTP:3VJ40NV2QKUQZLMFO21W78PSDDYTO7,8,1548065886369,"{""rt"": 1982, ""trial_type"": ""face-likert-amanda"", ""debug_mode"": ""live"", ""task_type"": ""face trials"", ""responses"": ""{\""Q0\"":4}"", ""task_payment"": 1, ""task_version"": 1, ""internal_node_id"": ""0.0-2.0-0.0-6.0"", ""time_elapsed"": 49035, ""imgName"": ""/static/images/modifAE_linspace/intelligent/136193_-0.25757575757575757.png"", ""questions"": ""[{\""prompt\"":\""<p>How <b>intelligent</b> does this person look to <b>most people</b>? Rate from 1-9</p>\"",\""labels\"":[\""1 <br/><b>Not intelligent at all</b>\"",\""2\"",\""3\"",\""4\"",\""5\"",\""6\"",\""7\"",\""8\"",\""9  <br/><b>Extremely intelligent</b>\""],\""required\"":true}]"", ""task_unique_trial"": 100, ""task_name"": ""intelligent-modifae-single"", ""trial_index"": 8, ""isRepeat"": 0}"
A35P8YSNTQ7OTP:3VJ40NV2QKUQZLMFO21W78PSDDYTO7,9,1548065888213,"{""rt"": 1838, ""trial_type"": ""face-likert-amanda"", ""debug_mode"": ""live"", ""task_type"": ""face trials"", ""responses"": ""{\""Q0\"":4}"", ""task_payment"": 1, ""task_version"": 1, ""internal_node_id"": ""0.0-2.0-0.0-7.0"", ""time_elapsed"": 50879, ""imgName"": ""/static/images/modifAE_linspace/intelligent/136244_0.2575757575757577.png"", ""questions"": ""[{\""prompt\"":\""<p>How <b>intelligent</b> does this person look to <b>most people</b>? Rate from 1-9</p>\"",\""labels\"":[\""1 <br/><b>Not intelligent at all</b>\"",\""2\"",\""3\"",\""4\"",\""5\"",\""6\"",\""7\"",\""8\"",\""9  <br/><b>Extremely intelligent</b>\""],\""required\"":true}]"", ""task_unique_trial"": 100, ""task_name"": ""intelligent-modifae-single"", ""trial_index"": 9, ""isRepeat"": 0}"
A35P8YSNTQ7OTP:3VJ40NV2QKUQZLMFO21W78PSDDYTO7,10,1548065890219,"{""rt"": 2001, ""trial_type"": ""face-likert-amanda"", ""debug_mode"": ""live"", ""task_type"": ""face trials"", ""responses"": ""{\""Q0\"":4}"", ""task_payment"": 1, ""task_version"": 1, ""internal_node_id"": ""0.0-2.0-0.0-8.0"", ""time_elapsed"": 52885, ""imgName"": ""/static/images/modifAE_linspace/intelligent/136182_-0.3686868686868687.png"", ""questions"": ""[{\""prompt\"":\""<p>How <b>intelligent</b> does this person look to <b>most people</b>? Rate from 1-9</p>\"",\""labels\"":[\""1 <br/><b>Not intelligent at all</b>\"",\""2\"",\""3\"",\""4\"",\""5\"",\""6\"",\""7\"",\""8\"",\""9  <br/><b>Extremely intelligent</b>\""],\""required\"":true}]"", ""task_unique_trial"": 100, ""task_name"": ""intelligent-modifae-single"", ""trial_index"": 10, ""isRepeat"": 0}"
A35P8YSNTQ7OTP:3VJ40NV2QKUQZLMFO21W78PSDDYTO7,11,1548065892207,"{""rt"": 1983, ""trial_type"": ""face-likert-amanda"", ""debug_mode"": ""live"", ""task_type"": ""face trials"", ""responses"": ""{\""Q0\"":4}"", ""task_payment"": 1, ""task_version"": 1, ""internal_node_id"": ""0.0-2.0-0.0-9.0"", ""time_elapsed"": 54872, ""imgName"": ""/static/images/modifAE_linspace/intelligent/136196_-0.22727272727272724.png"", ""questions"": ""[{\""prompt\"":\""<p>How <b>intelligent</b> does this person look to <b>most people</b>? Rate from 1-9</p>\"",\""labels\"":[\""1 <br/><b>Not intelligent at all</b>\"",\""2\"",\""3\"",\""4\"",\""5\"",\""6\"",\""7\"",\""8\"",\""9  <br/><b>Extremely intelligent</b>\""],\""required\"":true}]"", ""task_unique_trial"": 100, ""task_name"": ""intelligent-modifae-single"", ""trial_index"": 11, ""isRepeat"": 0}"
A35P8YSNTQ7OTP:3VJ40NV2QKUQZLMFO21W78PSDDYTO7,12,1548065894213,"{""rt"": null, ""trial_type"": ""html-keyboard-response"", ""task_unique_trial"": 100, ""stimulus"": ""<p>Good job!</p>"", ""task_version"": 1, ""internal_node_id"": ""0.0-2.0-1.0"", ""task_payment"": 1, ""time_elapsed"": 56879, ""debug_mode"": ""live"", ""key_press"": null, ""task_name"": ""intelligent-modifae-single"", ""trial_index"": 12}"
A35P8YSNTQ7OTP:3VJ40NV2QKUQZLMFO21W78PSDDYTO7,13,1548065899115,"{""rt"": 4897, ""trial_type"": ""face-likert-amanda"", ""debug_mode"": ""live"", ""task_type"": ""face trials"", ""responses"": ""{\""Q0\"":4}"", ""task_payment"": 1, ""task_version"": 1, ""internal_node_id"": ""0.0-3.0-0.0-0.0"", ""time_elapsed"": 61780, ""imgName"": ""/static/images/modifAE_linspace/intelligent/136217_-0.015151515151515138.png"", ""questions"": ""[{\""prompt\"":\""<p>How <b>intelligent</b> does this person look to <b>most people</b>? Rate from 1-9</p>\"",\""labels\"":[\""1 <br/><b>Not intelligent at all</b>\"",\""2\"",\""3\"",\""4\"",\""5\"",\""6\"",\""7\"",\""8\"",\""9  <br/><b>Extremely intelligent</b>\""],\""required\"":true}]"", ""task_unique_trial"": 100, ""task_name"": ""intelligent-modifae-single"", ""trial_index"": 13, ""isRepeat"": 0}"
A35P8YSNTQ7OTP:3VJ40NV2QKUQZLMFO21W78PSDDYTO7,14,1548065900880,"{""rt"": 1759, ""trial_type"": ""face-likert-amanda"", ""debug_mode"": ""live"", ""task_type"": ""face trials"", ""responses"": ""{\""Q0\"":4}"", ""task_payment"": 1, ""task_version"": 1, ""internal_node_id"": ""0.0-3.0-0.0-1.0"", ""time_elapsed"": 63545, ""imgName"": ""/static/images/modifAE_linspace/intelligent/136231_0.1262626262626263.png"", ""questions"": ""[{\""prompt\"":\""<p>How <b>intelligent</b> does this person look to <b>most people</b>? Rate from 1-9</p>\"",\""labels\"":[\""1 <br/><b>Not intelligent at all</b>\"",\""2\"",\""3\"",\""4\"",\""5\"",\""6\"",\""7\"",\""8\"",\""9  <br/><b>Extremely intelligent</b>\""],\""required\"":true}]"", ""task_unique_trial"": 100, ""task_name"": ""intelligent-modifae-single"", ""trial_index"": 14, ""isRepeat"": 0}"
A35P8YSNTQ7OTP:3VJ40NV2QKUQZLMFO21W78PSDDYTO7,15,1548065903383,"{""rt"": 2500, ""trial_type"": ""face-likert-amanda"", ""debug_mode"": ""live"", ""task_type"": ""face trials"", ""responses"": ""{\""Q0\"":4}"", ""task_payment"": 1, ""task_version"": 1, ""internal_node_id"": ""0.0-3.0-0.0-2.0"", ""time_elapsed"": 66049, ""imgName"": ""/static/images/modifAE_linspace/intelligent/136194_-0.24747474747474746.png"", ""questions"": ""[{\""prompt\"":\""<p>How <b>intelligent</b> does this person look to <b>most people</b>? Rate from 1-9</p>\"",\""labels\"":[\""1 <br/><b>Not intelligent at all</b>\"",\""2\"",\""3\"",\""4\"",\""5\"",\""6\"",\""7\"",\""8\"",\""9  <br/><b>Extremely intelligent</b>\""],\""required\"":true}]"", ""task_unique_trial"": 100, ""task_name"": ""intelligent-modifae-single"", ""trial_index"": 15, ""isRepeat"": 0}"
A35P8YSNTQ7OTP:3VJ40NV2QKUQZLMFO21W78PSDDYTO7,16,1548065904979,"{""rt"": 1592, ""trial_type"": ""face-likert-amanda"", ""debug_mode"": ""live"", ""task_type"": ""face trials"", ""responses"": ""{\""Q0\"":4}"", ""task_payment"": 1, ""task_version"": 1, ""internal_node_id"": ""0.0-3.0-0.0-3.0"", ""time_elapsed"": 67645, ""imgName"": ""/static/images/modifAE_linspace/intelligent/136210_-0.0858585858585858.png"", ""questions"": ""[{\""prompt\"":\""<p>How <b>intelligent</b> does this person look to <b>most people</b>? Rate from 1-9</p>\"",\""labels\"":[\""1 <br/><b>Not intelligent at all</b>\"",\""2\"",\""3\"",\""4\"",\""5\"",\""6\"",\""7\"",\""8\"",\""9  <br/><b>Extremely intelligent</b>\""],\""required\"":true}]"", ""task_unique_trial"": 100, ""task_name"": ""intelligent-modifae-single"", ""trial_index"": 16, ""isRepeat"": 0}"
A35P8YSNTQ7OTP:3VJ40NV2QKUQZLMFO21W78PSDDYTO7,17,1548065906721,"{""rt"": 1737, ""trial_type"": ""face-likert-amanda"", ""debug_mode"": ""live"", ""task_type"": ""face trials"", ""responses"": ""{\""Q0\"":4}"", ""task_payment"": 1, ""task_version"": 1, ""internal_node_id"": ""0.0-3.0-0.0-4.0"", ""time_elapsed"": 69386, ""imgName"": ""/static/images/modifAE_linspace/intelligent/136175_-0.4393939393939394.png"", ""questions"": ""[{\""prompt\"":\""<p>How <b>intelligent</b> does this person look to <b>most people</b>? Rate from 1-9</p>\"",\""labels\"":[\""1 <br/><b>Not intelligent at all</b>\"",\""2\"",\""3\"",\""4\"",\""5\"",\""6\"",\""7\"",\""8\"",\""9  <br/><b>Extremely intelligent</b>\""],\""required\"":true}]"", ""task_unique_trial"": 100, ""task_name"": ""intelligent-modifae-single"", ""trial_index"": 17, ""isRepeat"": 0}"
A35P8YSNTQ7OTP:3VJ40NV2QKUQZLMFO21W78PSDDYTO7,18,1548065908108,"{""rt"": 1382, ""trial_type"": ""face-likert-amanda"", ""debug_mode"": ""live"", ""task_type"": ""face trials"", ""responses"": ""{\""Q0\"":4}"", ""task_payment"": 1, ""task_version"": 1, ""internal_node_id"": ""0.0-3.0-0.0-5.0"", ""time_elapsed"": 70773, ""imgName"": ""/static/images/modifAE_linspace/intelligent/136216_-0.025252525252525193.png"", ""questions"": ""[{\""prompt\"":\""<p>How <b>intelligent</b> does this person look to <b>most people</b>? Rate from 1-9</p>\"",\""labels\"":[\""1 <br/><b>Not intelligent at all</b>\"",\""2\"",\""3\"",\""4\"",\""5\"",\""6\"",\""7\"",\""8\"",\""9  <br/><b>Extremely intelligent</b>\""],\""required\"":true}]"", ""task_unique_trial"": 100, ""task_name"": ""intelligent-modifae-single"", ""trial_index"": 18, ""isRepeat"": 0}"
A35P8YSNTQ7OTP:3VJ40NV2QKUQZLMFO21W78PSDDYTO7,19,1548065909858,"{""rt"": 1748, ""trial_type"": ""face-likert-amanda"", ""debug_mode"": ""live"", ""task_type"": ""face trials"", ""responses"": ""{\""Q0\"":4}"", ""task_payment"": 1, ""task_version"": 1, ""internal_node_id"": ""0.0-3.0-0.0-6.0"", ""time_elapsed"": 72524, ""imgName"": ""/static/images/modifAE_linspace/intelligent/136247_0.28787878787878796.png"", ""questions"": ""[{\""prompt\"":\""<p>How <b>intelligent</b> does this person look to <b>most people</b>? Rate from 1-9</p>\"",\""labels\"":[\""1 <br/><b>Not intelligent at all</b>\"",\""2\"",\""3\"",\""4\"",\""5\"",\""6\"",\""7\"",\""8\"",\""9  <br/><b>Extremely intelligent</b>\""],\""required\"":true}]"", ""task_unique_trial"": 100, ""task_name"": ""intelligent-modifae-single"", ""trial_index"": 19, ""isRepeat"": 0}"
A35P8YSNTQ7OTP:3VJ40NV2QKUQZLMFO21W78PSDDYTO7,20,1548065912094,"{""rt"": 2228, ""trial_type"": ""face-likert-amanda"", ""debug_mode"": ""live"", ""task_type"": ""face trials"", ""responses"": ""{\""Q0\"":4}"", ""task_payment"": 1, ""task_version"": 1, ""internal_node_id"": ""0.0-3.0-0.0-7.0"", ""time_elapsed"": 74756, ""imgName"": ""/static/images/modifAE_linspace/intelligent/136234_0.15656565656565657.png"", ""questions"": ""[{\""prompt\"":\""<p>How <b>intelligent</b> does this person look to <b>most people</b>? Rate from 1-9</p>\"",\""labels\"":[\""1 <br/><b>Not intelligent at all</b>\"",\""2\"",\""3\"",\""4\"",\""5\"",\""6\"",\""7\"",\""8\"",\""9  <br/><b>Extremely intelligent</b>\""],\""required\"":true}]"", ""task_unique_trial"": 100, ""task_name"": ""intelligent-modifae-single"", ""trial_index"": 20, ""isRepeat"": 0}"
A35P8YSNTQ7OTP:3VJ40NV2QKUQZLMFO21W78PSDDYTO7,21,1548065914320,"{""rt"": 2218, ""trial_type"": ""face-likert-amanda"", ""debug_mode"": ""live"", ""task_type"": ""face trials"", ""responses"": ""{\""Q0\"":4}"", ""task_payment"": 1, ""task_version"": 1, ""internal_node_id"": ""0.0-3.0-0.0-8.0"", ""time_elapsed"": 76983, ""imgName"": ""/static/images/modifAE_linspace/intelligent/136262_0.43939393939393945.png"", ""questions"": ""[{\""prompt\"":\""<p>How <b>intelligent</b> does this person look to <b>most people</b>? Rate from 1-9</p>\"",\""labels\"":[\""1 <br/><b>Not intelligent at all</b>\"",\""2\"",\""3\"",\""4\"",\""5\"",\""6\"",\""7\"",\""8\"",\""9  <br/><b>Extremely intelligent</b>\""],\""required\"":true}]"", ""task_unique_trial"": 100, ""task_name"": ""intelligent-modifae-single"", ""trial_index"": 21, ""isRepeat"": 0}"
A35P8YSNTQ7OTP:3VJ40NV2QKUQZLMFO21W78PSDDYTO7,22,1548065916506,"{""rt"": 2182, ""trial_type"": ""face-likert-amanda"", ""debug_mode"": ""live"", ""task_type"": ""face trials"", ""responses"": ""{\""Q0\"":4}"", ""task_payment"": 1, ""task_version"": 1, ""internal_node_id"": ""0.0-3.0-0.0-9.0"", ""time_elapsed"": 79172, ""imgName"": ""/static/images/modifAE_linspace/intelligent/136240_0.21717171717171724.png"", ""questions"": ""[{\""prompt\"":\""<p>How <b>intelligent</b> does this person look to <b>most people</b>? Rate from 1-9</p>\"",\""labels\"":[\""1 <br/><b>Not intelligent at all</b>\"",\""2\"",\""3\"",\""4\"",\""5\"",\""6\"",\""7\"",\""8\"",\""9  <br/><b>Extremely intelligent</b>\""],\""required\"":true}]"", ""task_unique_trial"": 100, ""task_name"": ""intelligent-modifae-single"", ""trial_index"": 22, ""isRepeat"": 0}"
A35P8YSNTQ7OTP:3VJ40NV2QKUQZLMFO21W78PSDDYTO7,23,1548065918509,"{""rt"": null, ""trial_type"": ""html-keyboard-response"", ""task_unique_trial"": 100, ""stimulus"": ""<p>Good job!</p>"", ""task_version"": 1, ""internal_node_id"": ""0.0-3.0-1.0"", ""task_payment"": 1, ""time_elapsed"": 81175, ""debug_mode"": ""live"", ""key_press"": null, ""task_name"": ""intelligent-modifae-single"", ""trial_index"": 23}"
A35P8YSNTQ7OTP:3VJ40NV2QKUQZLMFO21W78PSDDYTO7,24,1548065920764,"{""rt"": 2249, ""trial_type"": ""face-likert-amanda"", ""debug_mode"": ""live"", ""task_type"": ""face trials"", ""responses"": ""{\""Q0\"":4}"", ""task_payment"": 1, ""task_version"": 1, ""internal_node_id"": ""0.0-4.0-0.0-0.0"", ""time_elapsed"": 83429, ""imgName"": ""/static/images/modifAE_linspace/intelligent/136183_-0.35858585858585856.png"", ""questions"": ""[{\""prompt\"":\""<p>How <b>intelligent</b> does this person look to <b>most people</b>? Rate from 1-9</p>\"",\""labels\"":[\""1 <br/><b>Not intelligent at all</b>\"",\""2\"",\""3\"",\""4\"",\""5\"",\""6\"",\""7\"",\""8\"",\""9  <br/><b>Extremely intelligent</b>\""],\""required\"":true}]"", ""task_unique_trial"": 100, ""task_name"": ""intelligent-modifae-single"", ""trial_index"": 24, ""isRepeat"": 0}"
A35P8YSNTQ7OTP:3VJ40NV2QKUQZLMFO21W78PSDDYTO7,25,1548065936195,"{""rt"": 15423, ""trial_type"": ""face-likert-amanda"", ""debug_mode"": ""live"", ""task_type"": ""face trials"", ""responses"": ""{\""Q0\"":4}"", ""task_payment"": 1, ""task_version"": 1, ""internal_node_id"": ""0.0-4.0-0.0-1.0"", ""time_elapsed"": 98860, ""imgName"": ""/static/images/modifAE_linspace/intelligent/136184_-0.3484848484848485.png"", ""questions"": ""[{\""prompt\"":\""<p>How <b>intelligent</b> does this person look to <b>most people</b>? Rate from 1-9</p>\"",\""labels\"":[\""1 <br/><b>Not intelligent at all</b>\"",\""2\"",\""3\"",\""4\"",\""5\"",\""6\"",\""7\"",\""8\"",\""9  <br/><b>Extremely intelligent</b>\""],\""required\"":true}]"", ""task_unique_trial"": 100, ""task_name"": ""intelligent-modifae-single"", ""trial_index"": 25, ""isRepeat"": 0}"
A35P8YSNTQ7OTP:3VJ40NV2QKUQZLMFO21W78PSDDYTO7,26,1548065938472,"{""rt"": 2267, ""trial_type"": ""face-likert-amanda"", ""debug_mode"": ""live"", ""task_type"": ""face trials"", ""responses"": ""{\""Q0\"":4}"", ""task_payment"": 1, ""task_version"": 1, ""internal_node_id"": ""0.0-4.0-0.0-2.0"", ""time_elapsed"": 101138, ""imgName"": ""/static/images/modifAE_linspace/intelligent/136267_0.48989898989898994.png"", ""questions"": ""[{\""prompt\"":\""<p>How <b>intelligent</b> does this person look to <b>most people</b>? Rate from 1-9</p>\"",\""labels\"":[\""1 <br/><b>Not intelligent at all</b>\"",\""2\"",\""3\"",\""4\"",\""5\"",\""6\"",\""7\"",\""8\"",\""9  <br/><b>Extremely intelligent</b>\""],\""required\"":true}]"", ""task_unique_trial"": 100, ""task_name"": ""intelligent-modifae-single"", ""trial_index"": 26, ""isRepeat"": 0}"
A35P8YSNTQ7OTP:3VJ40NV2QKUQZLMFO21W78PSDDYTO7,27,1548065940394,"{""rt"": 1914, ""trial_type"": ""face-likert-amanda"", ""debug_mode"": ""live"", ""task_type"": ""face trials"", ""responses"": ""{\""Q0\"":4}"", ""task_payment"": 1, ""task_version"": 1, ""internal_node_id"": ""0.0-4.0-0.0-3.0"", ""time_elapsed"": 103060, ""imgName"": ""/static/images/modifAE_linspace/intelligent/136232_0.13636363636363646.png"", ""questions"": ""[{\""prompt\"":\""<p>How <b>intelligent</b> does this person look to <b>most people</b>? Rate from 1-9</p>\"",\""labels\"":[\""1 <br/><b>Not intelligent at all</b>\"",\""2\"",\""3\"",\""4\"",\""5\"",\""6\"",\""7\"",\""8\"",\""9  <br/><b>Extremely intelligent</b>\""],\""required\"":true}]"", ""task_unique_trial"": 100, ""task_name"": ""intelligent-modifae-single"", ""trial_index"": 27, ""isRepeat"": 0}"
A35P8YSNTQ7OTP:3VJ40NV2QKUQZLMFO21W78PSDDYTO7,28,1548065942380,"{""rt"": 1982, ""trial_type"": ""face-likert-amanda"", ""debug_mode"": ""live"", ""task_type"": ""face trials"", ""responses"": ""{\""Q0\"":4}"", ""task_payment"": 1, ""task_version"": 1, ""internal_node_id"": ""0.0-4.0-0.0-4.0"", ""time_elapsed"": 105045, ""imgName"": ""/static/images/modifAE_linspace/intelligent/136202_-0.16666666666666663.png"", ""questions"": ""[{\""prompt\"":\""<p>How <b>intelligent</b> does this person look to <b>most people</b>? Rate from 1-9</p>\"",\""labels\"":[\""1 <br/><b>Not intelligent at all</b>\"",\""2\"",\""3\"",\""4\"",\""5\"",\""6\"",\""7\"",\""8\"",\""9  <br/><b>Extremely intelligent</b>\""],\""required\"":true}]"", ""task_unique_trial"": 100, ""task_name"": ""intelligent-modifae-single"", ""trial_index"": 28, ""isRepeat"": 0}"
A35P8YSNTQ7OTP:3VJ40NV2QKUQZLMFO21W78PSDDYTO7,29,1548065944091,"{""rt"": 1704, ""trial_type"": ""face-likert-amanda"", ""debug_mode"": ""live"", ""task_type"": ""face trials"", ""responses"": ""{\""Q0\"":4}"", ""task_payment"": 1, ""task_version"": 1, ""internal_node_id"": ""0.0-4.0-0.0-5.0"", ""time_elapsed"": 106756, ""imgName"": ""/static/images/modifAE_linspace/intelligent/136234_0.15656565656565657.png"", ""questions"": ""[{\""prompt\"":\""<p>How <b>intelligent</b> does this person look to <b>most people</b>? Rate from 1-9</p>\"",\""labels\"":[\""1 <br/><b>Not intelligent at all</b>\"",\""2\"",\""3\"",\""4\"",\""5\"",\""6\"",\""7\"",\""8\"",\""9  <br/><b>Extremely intelligent</b>\""],\""required\"":true}]"", ""task_unique_trial"": 100, ""task_name"": ""intelligent-modifae-single"", ""trial_index"": 29, ""isRepeat"": 0}"
A35P8YSNTQ7OTP:3VJ40NV2QKUQZLMFO21W78PSDDYTO7,30,1548065945715,"{""rt"": 1616, ""trial_type"": ""face-likert-amanda"", ""debug_mode"": ""live"", ""task_type"": ""face trials"", ""responses"": ""{\""Q0\"":4}"", ""task_payment"": 1, ""task_version"": 1, ""internal_node_id"": ""0.0-4.0-0.0-6.0"", ""time_elapsed"": 108381, ""imgName"": ""/static/images/modifAE_linspace/intelligent/136228_0.09595959595959602.png"", ""questions"": ""[{\""prompt\"":\""<p>How <b>intelligent</b> does this person look to <b>most people</b>? Rate from 1-9</p>\"",\""labels\"":[\""1 <br/><b>Not intelligent at all</b>\"",\""2\"",\""3\"",\""4\"",\""5\"",\""6\"",\""7\"",\""8\"",\""9  <br/><b>Extremely intelligent</b>\""],\""required\"":true}]"", ""task_unique_trial"": 100, ""task_name"": ""intelligent-modifae-single"", ""trial_index"": 30, ""isRepeat"": 0}"
A35P8YSNTQ7OTP:3VJ40NV2QKUQZLMFO21W78PSDDYTO7,31,1548065947481,"{""rt"": 1758, ""trial_type"": ""face-likert-amanda"", ""debug_mode"": ""live"", ""task_type"": ""face trials"", ""responses"": ""{\""Q0\"":4}"", ""task_payment"": 1, ""task_version"": 1, ""internal_node_id"": ""0.0-4.0-0.0-7.0"", ""time_elapsed"": 110147, ""imgName"": ""/static/images/modifAE_linspace/intelligent/136228_0.09595959595959602.png"", ""questions"": ""[{\""prompt\"":\""<p>How <b>intelligent</b> does this person look to <b>most people</b>? Rate from 1-9</p>\"",\""labels\"":[\""1 <br/><b>Not intelligent at all</b>\"",\""2\"",\""3\"",\""4\"",\""5\"",\""6\"",\""7\"",\""8\"",\""9  <br/><b>Extremely intelligent</b>\""],\""required\"":true}]"", ""task_unique_trial"": 100, ""task_name"": ""intelligent-modifae-single"", ""trial_index"": 31, ""isRepeat"": 0}"
A35P8YSNTQ7OTP:3VJ40NV2QKUQZLMFO21W78PSDDYTO7,32,1548065949216,"{""rt"": 1730, ""trial_type"": ""face-likert-amanda"", ""debug_mode"": ""live"", ""task_type"": ""face trials"", ""responses"": ""{\""Q0\"":4}"", ""task_payment"": 1, ""task_version"": 1, ""internal_node_id"": ""0.0-4.0-0.0-8.0"", ""time_elapsed"": 111882, ""imgName"": ""/static/images/modifAE_linspace/intelligent/136178_-0.40909090909090906.png"", ""questions"": ""[{\""prompt\"":\""<p>How <b>intelligent</b> does this person look to <b>most people</b>? Rate from 1-9</p>\"",\""labels\"":[\""1 <br/><b>Not intelligent at all</b>\"",\""2\"",\""3\"",\""4\"",\""5\"",\""6\"",\""7\"",\""8\"",\""9  <br/><b>Extremely intelligent</b>\""],\""required\"":true}]"", ""task_unique_trial"": 100, ""task_name"": ""intelligent-modifae-single"", ""trial_index"": 32, ""isRepeat"": 0}"
A35P8YSNTQ7OTP:3VJ40NV2QKUQZLMFO21W78PSDDYTO7,33,1548065950768,"{""rt"": 1548, ""trial_type"": ""face-likert-amanda"", ""debug_mode"": ""live"", ""task_type"": ""face trials"", ""responses"": ""{\""Q0\"":4}"", ""task_payment"": 1, ""task_version"": 1, ""internal_node_id"": ""0.0-4.0-0.0-9.0"", ""time_elapsed"": 113434, ""imgName"": ""/static/images/modifAE_linspace/intelligent/136219_0.005050505050505083.png"", ""questions"": ""[{\""prompt\"":\""<p>How <b>intelligent</b> does this person look to <b>most people</b>? Rate from 1-9</p>\"",\""labels\"":[\""1 <br/><b>Not intelligent at all</b>\"",\""2\"",\""3\"",\""4\"",\""5\"",\""6\"",\""7\"",\""8\"",\""9  <br/><b>Extremely intelligent</b>\""],\""required\"":true}]"", ""task_unique_trial"": 100, ""task_name"": ""intelligent-modifae-single"", ""trial_index"": 33, ""isRepeat"": 0}"
A35P8YSNTQ7OTP:3VJ40NV2QKUQZLMFO21W78PSDDYTO7,34,1548065952772,"{""rt"": null, ""trial_type"": ""html-keyboard-response"", ""task_unique_trial"": 100, ""stimulus"": ""<p>Good job!</p>"", ""task_version"": 1, ""internal_node_id"": ""0.0-4.0-1.0"", ""task_payment"": 1, ""time_elapsed"": 115437, ""debug_mode"": ""live"", ""key_press"": null, ""task_name"": ""intelligent-modifae-single"", ""trial_index"": 34}"
A35P8YSNTQ7OTP:3VJ40NV2QKUQZLMFO21W78PSDDYTO7,35,1548065954845,"{""rt"": 2063, ""trial_type"": ""face-likert-amanda"", ""debug_mode"": ""live"", ""task_type"": ""face trials"", ""responses"": ""{\""Q0\"":4}"", ""task_payment"": 1, ""task_version"": 1, ""internal_node_id"": ""0.0-5.0-0.0-0.0"", ""time_elapsed"": 117506, ""imgName"": ""/static/images/modifAE_linspace/intelligent/136210_-0.0858585858585858.png"", ""questions"": ""[{\""prompt\"":\""<p>How <b>intelligent</b> does this person look to <b>most people</b>? Rate from 1-9</p>\"",\""labels\"":[\""1 <br/><b>Not intelligent at all</b>\"",\""2\"",\""3\"",\""4\"",\""5\"",\""6\"",\""7\"",\""8\"",\""9  <br/><b>Extremely intelligent</b>\""],\""required\"":true}]"", ""task_unique_trial"": 100, ""task_name"": ""intelligent-modifae-single"", ""trial_index"": 35, ""isRepeat"": 0}"
A35P8YSNTQ7OTP:3VJ40NV2QKUQZLMFO21W78PSDDYTO7,36,1548065957211,"{""rt"": 2361, ""trial_type"": ""face-likert-amanda"", ""debug_mode"": ""live"", ""task_type"": ""face trials"", ""responses"": ""{\""Q0\"":4}"", ""task_payment"": 1, ""task_version"": 1, ""internal_node_id"": ""0.0-5.0-0.0-1.0"", ""time_elapsed"": 119875, ""imgName"": ""/static/images/modifAE_linspace/intelligent/136255_0.36868686868686873.png"", ""questions"": ""[{\""prompt\"":\""<p>How <b>intelligent</b> does this person look to <b>most people</b>? Rate from 1-9</p>\"",\""labels\"":[\""1 <br/><b>Not intelligent at all</b>\"",\""2\"",\""3\"",\""4\"",\""5\"",\""6\"",\""7\"",\""8\"",\""9  <br/><b>Extremely intelligent</b>\""],\""required\"":true}]"", ""task_unique_trial"": 100, ""task_name"": ""intelligent-modifae-single"", ""trial_index"": 36, ""isRepeat"": 0}"
A35P8YSNTQ7OTP:3VJ40NV2QKUQZLMFO21W78PSDDYTO7,37,1548065958548,"{""rt"": 1331, ""trial_type"": ""face-likert-amanda"", ""debug_mode"": ""live"", ""task_type"": ""face trials"", ""responses"": ""{\""Q0\"":4}"", ""task_payment"": 1, ""task_version"": 1, ""internal_node_id"": ""0.0-5.0-0.0-2.0"", ""time_elapsed"": 121214, ""imgName"": ""/static/images/modifAE_linspace/intelligent/136191_-0.2777777777777778.png"", ""questions"": ""[{\""prompt\"":\""<p>How <b>intelligent</b> does this person look to <b>most people</b>? Rate from 1-9</p>\"",\""labels\"":[\""1 <br/><b>Not intelligent at all</b>\"",\""2\"",\""3\"",\""4\"",\""5\"",\""6\"",\""7\"",\""8\"",\""9  <br/><b>Extremely intelligent</b>\""],\""required\"":true}]"", ""task_unique_trial"": 100, ""task_name"": ""intelligent-modifae-single"", ""trial_index"": 37, ""isRepeat"": 0}"
A35P8YSNTQ7OTP:3VJ40NV2QKUQZLMFO21W78PSDDYTO7,38,1548065961215,"{""rt"": 2664, ""trial_type"": ""face-likert-amanda"", ""debug_mode"": ""live"", ""task_type"": ""face trials"", ""responses"": ""{\""Q0\"":4}"", ""task_payment"": 1, ""task_version"": 1, ""internal_node_id"": ""0.0-5.0-0.0-3.0"", ""time_elapsed"": 123881, ""imgName"": ""/static/images/modifAE_linspace/intelligent/136214_-0.045454545454545414.png"", ""questions"": ""[{\""prompt\"":\""<p>How <b>intelligent</b> does this person look to <b>most people</b>? Rate from 1-9</p>\"",\""labels\"":[\""1 <br/><b>Not intelligent at all</b>\"",\""2\"",\""3\"",\""4\"",\""5\"",\""6\"",\""7\"",\""8\"",\""9  <br/><b>Extremely intelligent</b>\""],\""required\"":true}]"", ""task_unique_trial"": 100, ""task_name"": ""intelligent-modifae-single"", ""trial_index"": 38, ""isRepeat"": 0}"
A35P8YSNTQ7OTP:3VJ40NV2QKUQZLMFO21W78PSDDYTO7,39,1548065963260,"{""rt"": 2038, ""trial_type"": ""face-likert-amanda"", ""debug_mode"": ""live"", ""task_type"": ""face trials"", ""responses"": ""{\""Q0\"":4}"", ""task_payment"": 1, ""task_version"": 1, ""internal_node_id"": ""0.0-5.0-0.0-4.0"", ""time_elapsed"": 125925, ""imgName"": ""/static/images/modifAE_linspace/intelligent/136205_-0.13636363636363635.png"", ""questions"": ""[{\""prompt\"":\""<p>How <b>intelligent</b> does this person look to <b>most people</b>? Rate from 1-9</p>\"",\""labels\"":[\""1 <br/><b>Not intelligent at all</b>\"",\""2\"",\""3\"",\""4\"",\""5\"",\""6\"",\""7\"",\""8\"",\""9  <br/><b>Extremely intelligent</b>\""],\""required\"":true}]"", ""task_unique_trial"": 100, ""task_name"": ""intelligent-modifae-single"", ""trial_index"": 39, ""isRepeat"": 0}"
A35P8YSNTQ7OTP:3VJ40NV2QKUQZLMFO21W78PSDDYTO7,40,1548065965093,"{""rt"": 1828, ""trial_type"": ""face-likert-amanda"", ""debug_mode"": ""live"", ""task_type"": ""face trials"", ""responses"": ""{\""Q0\"":4}"", ""task_payment"": 1, ""task_version"": 1, ""internal_node_id"": ""0.0-5.0-0.0-5.0"", ""time_elapsed"": 127759, ""imgName"": ""/static/images/modifAE_linspace/intelligent/136179_-0.398989898989899.png"", ""questions"": ""[{\""prompt\"":\""<p>How <b>intelligent</b> does this person look to <b>most people</b>? Rate from 1-9</p>\"",\""labels\"":[\""1 <br/><b>Not intelligent at all</b>\"",\""2\"",\""3\"",\""4\"",\""5\"",\""6\"",\""7\"",\""8\"",\""9  <br/><b>Extremely intelligent</b>\""],\""required\"":true}]"", ""task_unique_trial"": 100, ""task_name"": ""intelligent-modifae-single"", ""trial_index"": 40, ""isRepeat"": 0}"
A35P8YSNTQ7OTP:3VJ40NV2QKUQZLMFO21W78PSDDYTO7,41,1548065966715,"{""rt"": 1618, ""trial_type"": ""face-likert-amanda"", ""debug_mode"": ""live"", ""task_type"": ""face trials"", ""responses"": ""{\""Q0\"":4}"", ""task_payment"": 1, ""task_version"": 1, ""internal_node_id"": ""0.0-5.0-0.0-6.0"", ""time_elapsed"": 129381, ""imgName"": ""/static/images/modifAE_linspace/intelligent/136246_0.2777777777777778.png"", ""questions"": ""[{\""prompt\"":\""<p>How <b>intelligent</b> does this person look to <b>most people</b>? Rate from 1-9</p>\"",\""labels\"":[\""1 <br/><b>Not intelligent at all</b>\"",\""2\"",\""3\"",\""4\"",\""5\"",\""6\"",\""7\"",\""8\"",\""9  <br/><b>Extremely intelligent</b>\""],\""required\"":true}]"", ""task_unique_trial"": 100, ""task_name"": ""intelligent-modifae-single"", ""trial_index"": 41, ""isRepeat"": 0}"
A35P8YSNTQ7OTP:3VJ40NV2QKUQZLMFO21W78PSDDYTO7,42,1548065968400,"{""rt"": 1679, ""trial_type"": ""face-likert-amanda"", ""debug_mode"": ""live"", ""task_type"": ""face trials"", ""responses"": ""{\""Q0\"":4}"", ""task_payment"": 1, ""task_version"": 1, ""internal_node_id"": ""0.0-5.0-0.0-7.0"", ""time_elapsed"": 131065, ""imgName"": ""/static/images/modifAE_linspace/intelligent/136200_-0.18686868686868685.png"", ""questions"": ""[{\""prompt\"":\""<p>How <b>intelligent</b> does this person look to <b>most people</b>? Rate from 1-9</p>\"",\""labels\"":[\""1 <br/><b>Not intelligent at all</b>\"",\""2\"",\""3\"",\""4\"",\""5\"",\""6\"",\""7\"",\""8\"",\""9  <br/><b>Extremely intelligent</b>\""],\""required\"":true}]"", ""task_unique_trial"": 100, ""task_name"": ""intelligent-modifae-single"", ""trial_index"": 42, ""isRepeat"": 0}"
A35P8YSNTQ7OTP:3VJ40NV2QKUQZLMFO21W78PSDDYTO7,43,1548065969996,"{""rt"": 1593, ""trial_type"": ""face-likert-amanda"", ""debug_mode"": ""live"", ""task_type"": ""face trials"", ""responses"": ""{\""Q0\"":4}"", ""task_payment"": 1, ""task_version"": 1, ""internal_node_id"": ""0.0-5.0-0.0-8.0"", ""time_elapsed"": 132661, ""imgName"": ""/static/images/modifAE_linspace/intelligent/136239_0.20707070707070718.png"", ""questions"": ""[{\""prompt\"":\""<p>How <b>intelligent</b> does this person look to <b>most people</b>? Rate from 1-9</p>\"",\""labels\"":[\""1 <br/><b>Not intelligent at all</b>\"",\""2\"",\""3\"",\""4\"",\""5\"",\""6\"",\""7\"",\""8\"",\""9  <br/><b>Extremely intelligent</b>\""],\""required\"":true}]"", ""task_unique_trial"": 100, ""task_name"": ""intelligent-modifae-single"", ""trial_index"": 43, ""isRepeat"": 0}"
A35P8YSNTQ7OTP:3VJ40NV2QKUQZLMFO21W78PSDDYTO7,44,1548065971889,"{""rt"": 1890, ""trial_type"": ""face-likert-amanda"", ""debug_mode"": ""live"", ""task_type"": ""face trials"", ""responses"": ""{\""Q0\"":4}"", ""task_payment"": 1, ""task_version"": 1, ""internal_node_id"": ""0.0-5.0-0.0-9.0"", ""time_elapsed"": 134555, ""imgName"": ""/static/images/modifAE_linspace/intelligent/136173_-0.4595959595959596.png"", ""questions"": ""[{\""prompt\"":\""<p>How <b>intelligent</b> does this person look to <b>most people</b>? Rate from 1-9</p>\"",\""labels\"":[\""1 <br/><b>Not intelligent at all</b>\"",\""2\"",\""3\"",\""4\"",\""5\"",\""6\"",\""7\"",\""8\"",\""9  <br/><b>Extremely intelligent</b>\""],\""required\"":true}]"", ""task_unique_trial"": 100, ""task_name"": ""intelligent-modifae-single"", ""trial_index"": 44, ""isRepeat"": 0}"
A35P8YSNTQ7OTP:3VJ40NV2QKUQZLMFO21W78PSDDYTO7,45,1548065972891,"{""rt"": null, ""trial_type"": ""html-keyboard-response"", ""task_unique_trial"": 100, ""stimulus"": ""<p>Good job!</p>"", ""task_version"": 1, ""internal_node_id"": ""0.0-5.0-1.0"", ""task_payment"": 1, ""time_elapsed"": 135557, ""debug_mode"": ""live"", ""key_press"": null, ""task_name"": ""intelligent-modifae-single"", ""trial_index"": 45}"
A35P8YSNTQ7OTP:3VJ40NV2QKUQZLMFO21W78PSDDYTO7,46,1548065975221,"{""rt"": 2323, ""trial_type"": ""face-likert-amanda"", ""debug_mode"": ""live"", ""task_type"": ""face trials"", ""responses"": ""{\""Q0\"":4}"", ""task_payment"": 1, ""task_version"": 1, ""internal_node_id"": ""0.0-6.0-0.0-0.0"", ""time_elapsed"": 137886, ""imgName"": ""/static/images/modifAE_linspace/intelligent/136233_0.14646464646464652.png"", ""questions"": ""[{\""prompt\"":\""<p>How <b>intelligent</b> does this person look to <b>most people</b>? Rate from 1-9</p>\"",\""labels\"":[\""1 <br/><b>Not intelligent at all</b>\"",\""2\"",\""3\"",\""4\"",\""5\"",\""6\"",\""7\"",\""8\"",\""9  <br/><b>Extremely intelligent</b>\""],\""required\"":true}]"", ""task_unique_trial"": 100, ""task_name"": ""intelligent-modifae-single"", ""trial_index"": 46, ""isRepeat"": 0}"
A35P8YSNTQ7OTP:3VJ40NV2QKUQZLMFO21W78PSDDYTO7,47,1548065976869,"{""rt"": 1640, ""trial_type"": ""face-likert-amanda"", ""debug_mode"": ""live"", ""task_type"": ""face trials"", ""responses"": ""{\""Q0\"":4}"", ""task_payment"": 1, ""task_version"": 1, ""internal_node_id"": ""0.0-6.0-0.0-1.0"", ""time_elapsed"": 139535, ""imgName"": ""/static/images/modifAE_linspace/intelligent/136237_0.18686868686868696.png"", ""questions"": ""[{\""prompt\"":\""<p>How <b>intelligent</b> does this person look to <b>most people</b>? Rate from 1-9</p>\"",\""labels\"":[\""1 <br/><b>Not intelligent at all</b>\"",\""2\"",\""3\"",\""4\"",\""5\"",\""6\"",\""7\"",\""8\"",\""9  <br/><b>Extremely intelligent</b>\""],\""required\"":true}]"", ""task_unique_trial"": 100, ""task_name"": ""intelligent-modifae-single"", ""trial_index"": 47, ""isRepeat"": 0}"
A35P8YSNTQ7OTP:3VJ40NV2QKUQZLMFO21W78PSDDYTO7,48,1548065978846,"{""rt"": 1970, ""trial_type"": ""face-likert-amanda"", ""debug_mode"": ""live"", ""task_type"": ""face trials"", ""responses"": ""{\""Q0\"":4}"", ""task_payment"": 1, ""task_version"": 1, ""internal_node_id"": ""0.0-6.0-0.0-2.0"", ""time_elapsed"": 141512, ""imgName"": ""/static/images/modifAE_linspace/intelligent/136203_-0.15656565656565652.png"", ""questions"": ""[{\""prompt\"":\""<p>How <b>intelligent</b> does this person look to <b>most people</b>? Rate from 1-9</p>\"",\""labels\"":[\""1 <br/><b>Not intelligent at all</b>\"",\""2\"",\""3\"",\""4\"",\""5\"",\""6\"",\""7\"",\""8\"",\""9  <br/><b>Extremely intelligent</b>\""],\""required\"":true}]"", ""task_unique_trial"": 100, ""task_name"": ""intelligent-modifae-single"", ""trial_index"": 48, ""isRepeat"": 0}"
A35P8YSNTQ7OTP:3VJ40NV2QKUQZLMFO21W78PSDDYTO7,49,1548065980740,"{""rt"": 1892, ""trial_type"": ""face-likert-amanda"", ""debug_mode"": ""live"", ""task_type"": ""face trials"", ""responses"": ""{\""Q0\"":4}"", ""task_payment"": 1, ""task_version"": 1, ""internal_node_id"": ""0.0-6.0-0.0-3.0"", ""time_elapsed"": 143405, ""imgName"": ""/static/images/modifAE_linspace/intelligent/136203_-0.15656565656565652.png"", ""questions"": ""[{\""prompt\"":\""<p>How <b>intelligent</b> does this person look to <b>most people</b>? Rate from 1-9</p>\"",\""labels\"":[\""1 <br/><b>Not intelligent at all</b>\"",\""2\"",\""3\"",\""4\"",\""5\"",\""6\"",\""7\"",\""8\"",\""9  <br/><b>Extremely intelligent</b>\""],\""required\"":true}]"", ""task_unique_trial"": 100, ""task_name"": ""intelligent-modifae-single"", ""trial_index"": 49, ""isRepeat"": 0}"
A35P8YSNTQ7OTP:3VJ40NV2QKUQZLMFO21W78PSDDYTO7,50,1548065982449,"{""rt"": 1707, ""trial_type"": ""face-likert-amanda"", ""debug_mode"": ""live"", ""task_type"": ""face trials"", ""responses"": ""{\""Q0\"":4}"", ""task_payment"": 1, ""task_version"": 1, ""internal_node_id"": ""0.0-6.0-0.0-4.0"", ""time_elapsed"": 145114, ""imgName"": ""/static/images/modifAE_linspace/intelligent/136176_-0.4292929292929293.png"", ""questions"": ""[{\""prompt\"":\""<p>How <b>intelligent</b> does this person look to <b>most people</b>? Rate from 1-9</p>\"",\""labels\"":[\""1 <br/><b>Not intelligent at all</b>\"",\""2\"",\""3\"",\""4\"",\""5\"",\""6\"",\""7\"",\""8\"",\""9  <br/><b>Extremely intelligent</b>\""],\""required\"":true}]"", ""task_unique_trial"": 100, ""task_name"": ""intelligent-modifae-single"", ""trial_index"": 50, ""isRepeat"": 0}"
A35P8YSNTQ7OTP:3VJ40NV2QKUQZLMFO21W78PSDDYTO7,51,1548065984095,"{""rt"": 1642, ""trial_type"": ""face-likert-amanda"", ""debug_mode"": ""live"", ""task_type"": ""face trials"", ""responses"": ""{\""Q0\"":4}"", ""task_payment"": 1, ""task_version"": 1, ""internal_node_id"": ""0.0-6.0-0.0-5.0"", ""time_elapsed"": 146761, ""imgName"": ""/static/images/modifAE_linspace/intelligent/136258_0.3989898989898991.png"", ""questions"": ""[{\""prompt\"":\""<p>How <b>intelligent</b> does this person look to <b>most people</b>? Rate from 1-9</p>\"",\""labels\"":[\""1 <br/><b>Not intelligent at all</b>\"",\""2\"",\""3\"",\""4\"",\""5\"",\""6\"",\""7\"",\""8\"",\""9  <br/><b>Extremely intelligent</b>\""],\""required\"":true}]"", ""task_unique_trial"": 100, ""task_name"": ""intelligent-modifae-single"", ""trial_index"": 51, ""isRepeat"": 0}"
A35P8YSNTQ7OTP:3VJ40NV2QKUQZLMFO21W78PSDDYTO7,52,1548065985890,"{""rt"": 1788, ""trial_type"": ""face-likert-amanda"", ""debug_mode"": ""live"", ""task_type"": ""face trials"", ""responses"": ""{\""Q0\"":4}"", ""task_payment"": 1, ""task_version"": 1, ""internal_node_id"": ""0.0-6.0-0.0-6.0"", ""time_elapsed"": 148555, ""imgName"": ""/static/images/modifAE_linspace/intelligent/136199_-0.19696969696969696.png"", ""questions"": ""[{\""prompt\"":\""<p>How <b>intelligent</b> does this person look to <b>most people</b>? Rate from 1-9</p>\"",\""labels\"":[\""1 <br/><b>Not intelligent at all</b>\"",\""2\"",\""3\"",\""4\"",\""5\"",\""6\"",\""7\"",\""8\"",\""9  <br/><b>Extremely intelligent</b>\""],\""required\"":true}]"", ""task_unique_trial"": 100, ""task_name"": ""intelligent-modifae-single"", ""trial_index"": 52, ""isRepeat"": 0}"
A35P8YSNTQ7OTP:3VJ40NV2QKUQZLMFO21W78PSDDYTO7,53,1548065987581,"{""rt"": 1685, ""trial_type"": ""face-likert-amanda"", ""debug_mode"": ""live"", ""task_type"": ""face trials"", ""responses"": ""{\""Q0\"":4}"", ""task_payment"": 1, ""task_version"": 1, ""internal_node_id"": ""0.0-6.0-0.0-7.0"", ""time_elapsed"": 150247, ""imgName"": ""/static/images/modifAE_linspace/intelligent/136208_-0.10606060606060602.png"", ""questions"": ""[{\""prompt\"":\""<p>How <b>intelligent</b> does this person look to <b>most people</b>? Rate from 1-9</p>\"",\""labels\"":[\""1 <br/><b>Not intelligent at all</b>\"",\""2\"",\""3\"",\""4\"",\""5\"",\""6\"",\""7\"",\""8\"",\""9  <br/><b>Extremely intelligent</b>\""],\""required\"":true}]"", ""task_unique_trial"": 100, ""task_name"": ""intelligent-modifae-single"", ""trial_index"": 53, ""isRepeat"": 0}"
A35P8YSNTQ7OTP:3VJ40NV2QKUQZLMFO21W78PSDDYTO7,54,1548065989398,"{""rt"": 1808, ""trial_type"": ""face-likert-amanda"", ""debug_mode"": ""live"", ""task_type"": ""face trials"", ""responses"": ""{\""Q0\"":4}"", ""task_payment"": 1, ""task_version"": 1, ""internal_node_id"": ""0.0-6.0-0.0-8.0"", ""time_elapsed"": 152060, ""imgName"": ""/static/images/modifAE_linspace/intelligent/136215_-0.035353535353535304.png"", ""questions"": ""[{\""prompt\"":\""<p>How <b>intelligent</b> does this person look to <b>most people</b>? Rate from 1-9</p>\"",\""labels\"":[\""1 <br/><b>Not intelligent at all</b>\"",\""2\"",\""3\"",\""4\"",\""5\"",\""6\"",\""7\"",\""8\"",\""9  <br/><b>Extremely intelligent</b>\""],\""required\"":true}]"", ""task_unique_trial"": 100, ""task_name"": ""intelligent-modifae-single"", ""trial_index"": 54, ""isRepeat"": 0}"
A35P8YSNTQ7OTP:3VJ40NV2QKUQZLMFO21W78PSDDYTO7,55,1548065993390,"{""rt"": 3984, ""trial_type"": ""face-likert-amanda"", ""debug_mode"": ""live"", ""task_type"": ""face trials"", ""responses"": ""{\""Q0\"":4}"", ""task_payment"": 1, ""task_version"": 1, ""internal_node_id"": ""0.0-6.0-0.0-9.0"", ""time_elapsed"": 156053, ""imgName"": ""/static/images/modifAE_linspace/intelligent/136211_-0.07575757575757575.png"", ""questions"": ""[{\""prompt\"":\""<p>How <b>intelligent</b> does this person look to <b>most people</b>? Rate from 1-9</p>\"",\""labels\"":[\""1 <br/><b>Not intelligent at all</b>\"",\""2\"",\""3\"",\""4\"",\""5\"",\""6\"",\""7\"",\""8\"",\""9  <br/><b>Extremely intelligent</b>\""],\""required\"":true}]"", ""task_unique_trial"": 100, ""task_name"": ""intelligent-modifae-single"", ""trial_index"": 55, ""isRepeat"": 0}"
A35P8YSNTQ7OTP:3VJ40NV2QKUQZLMFO21W78PSDDYTO7,56,1548065994895,"{""rt"": null, ""trial_type"": ""html-keyboard-response"", ""task_unique_trial"": 100, ""stimulus"": ""<p>Good job!</p>"", ""task_version"": 1, ""internal_node_id"": ""0.0-6.0-1.0"", ""task_payment"": 1, ""time_elapsed"": 157561, ""debug_mode"": ""live"", ""key_press"": null, ""task_name"": ""intelligent-modifae-single"", ""trial_index"": 56}"
A35P8YSNTQ7OTP:3VJ40NV2QKUQZLMFO21W78PSDDYTO7,57,1548065996699,"{""rt"": 1799, ""trial_type"": ""face-likert-amanda"", ""debug_mode"": ""live"", ""task_type"": ""face trials"", ""responses"": ""{\""Q0\"":4}"", ""task_payment"": 1, ""task_version"": 1, ""internal_node_id"": ""0.0-7.0-0.0-0.0"", ""time_elapsed"": 159364, ""imgName"": ""/static/images/modifAE_linspace/intelligent/136213_-0.055555555555555525.png"", ""questions"": ""[{\""prompt\"":\""<p>How <b>intelligent</b> does this person look to <b>most people</b>? Rate from 1-9</p>\"",\""labels\"":[\""1 <br/><b>Not intelligent at all</b>\"",\""2\"",\""3\"",\""4\"",\""5\"",\""6\"",\""7\"",\""8\"",\""9  <br/><b>Extremely intelligent</b>\""],\""required\"":true}]"", ""task_unique_trial"": 100, ""task_name"": ""intelligent-modifae-single"", ""trial_index"": 57, ""isRepeat"": 0}"
A35P8YSNTQ7OTP:3VJ40NV2QKUQZLMFO21W78PSDDYTO7,58,1548065998403,"{""rt"": 1700, ""trial_type"": ""face-likert-amanda"", ""debug_mode"": ""live"", ""task_type"": ""face trials"", ""responses"": ""{\""Q0\"":4}"", ""task_payment"": 1, ""task_version"": 1, ""internal_node_id"": ""0.0-7.0-0.0-1.0"", ""time_elapsed"": 161068, ""imgName"": ""/static/images/modifAE_linspace/intelligent/136238_0.19696969696969702.png"", ""questions"": ""[{\""prompt\"":\""<p>How <b>intelligent</b> does this person look to <b>most people</b>? Rate from 1-9</p>\"",\""labels\"":[\""1 <br/><b>Not intelligent at all</b>\"",\""2\"",\""3\"",\""4\"",\""5\"",\""6\"",\""7\"",\""8\"",\""9  <br/><b>Extremely intelligent</b>\""],\""required\"":true}]"", ""task_unique_trial"": 100, ""task_name"": ""intelligent-modifae-single"", ""trial_index"": 58, ""isRepeat"": 0}"
A35P8YSNTQ7OTP:3VJ40NV2QKUQZLMFO21W78PSDDYTO7,59,1548066000125,"{""rt"": 1716, ""trial_type"": ""face-likert-amanda"", ""debug_mode"": ""live"", ""task_type"": ""face trials"", ""responses"": ""{\""Q0\"":4}"", ""task_payment"": 1, ""task_version"": 1, ""internal_node_id"": ""0.0-7.0-0.0-2.0"", ""time_elapsed"": 162788, ""imgName"": ""/static/images/modifAE_linspace/intelligent/136212_-0.06565656565656564.png"", ""questions"": ""[{\""prompt\"":\""<p>How <b>intelligent</b> does this person look to <b>most people</b>? Rate from 1-9</p>\"",\""labels\"":[\""1 <br/><b>Not intelligent at all</b>\"",\""2\"",\""3\"",\""4\"",\""5\"",\""6\"",\""7\"",\""8\"",\""9  <br/><b>Extremely intelligent</b>\""],\""required\"":true}]"", ""task_unique_trial"": 100, ""task_name"": ""intelligent-modifae-single"", ""trial_index"": 59, ""isRepeat"": 0}"
A35P8YSNTQ7OTP:3VJ40NV2QKUQZLMFO21W78PSDDYTO7,60,1548066001970,"{""rt"": 1837, ""trial_type"": ""face-likert-amanda"", ""debug_mode"": ""live"", ""task_type"": ""face trials"", ""responses"": ""{\""Q0\"":4}"", ""task_payment"": 1, ""task_version"": 1, ""internal_node_id"": ""0.0-7.0-0.0-3.0"", ""time_elapsed"": 164632, ""imgName"": ""/static/images/modifAE_linspace/intelligent/136189_-0.29797979797979796.png"", ""questions"": ""[{\""prompt\"":\""<p>How <b>intelligent</b> does this person look to <b>most people</b>? Rate from 1-9</p>\"",\""labels\"":[\""1 <br/><b>Not intelligent at all</b>\"",\""2\"",\""3\"",\""4\"",\""5\"",\""6\"",\""7\"",\""8\"",\""9  <br/><b>Extremely intelligent</b>\""],\""required\"":true}]"", ""task_unique_trial"": 100, ""task_name"": ""intelligent-modifae-single"", ""trial_index"": 60, ""isRepeat"": 0}"
A35P8YSNTQ7OTP:3VJ40NV2QKUQZLMFO21W78PSDDYTO7,61,1548066003765,"{""rt"": 1788, ""trial_type"": ""face-likert-amanda"", ""debug_mode"": ""live"", ""task_type"": ""face trials"", ""responses"": ""{\""Q0\"":4}"", ""task_payment"": 1, ""task_version"": 1, ""internal_node_id"": ""0.0-7.0-0.0-4.0"", ""time_elapsed"": 166430, ""imgName"": ""/static/images/modifAE_linspace/intelligent/136238_0.19696969696969702.png"", ""questions"": ""[{\""prompt\"":\""<p>How <b>intelligent</b> does this person look to <b>most people</b>? Rate from 1-9</p>\"",\""labels\"":[\""1 <br/><b>Not intelligent at all</b>\"",\""2\"",\""3\"",\""4\"",\""5\"",\""6\"",\""7\"",\""8\"",\""9  <br/><b>Extremely intelligent</b>\""],\""required\"":true}]"", ""task_unique_trial"": 100, ""task_name"": ""intelligent-modifae-single"", ""trial_index"": 61, ""isRepeat"": 0}"
A35P8YSNTQ7OTP:3VJ40NV2QKUQZLMFO21W78PSDDYTO7,62,1548066005509,"{""rt"": 1736, ""trial_type"": ""face-likert-amanda"", ""debug_mode"": ""live"", ""task_type"": ""face trials"", ""responses"": ""{\""Q0\"":4}"", ""task_payment"": 1, ""task_version"": 1, ""internal_node_id"": ""0.0-7.0-0.0-5.0"", ""time_elapsed"": 168175, ""imgName"": ""/static/images/modifAE_linspace/intelligent/136222_0.03535353535353536.png"", ""questions"": ""[{\""prompt\"":\""<p>How <b>intelligent</b> does this person look to <b>most people</b>? Rate from 1-9</p>\"",\""labels\"":[\""1 <br/><b>Not intelligent at all</b>\"",\""2\"",\""3\"",\""4\"",\""5\"",\""6\"",\""7\"",\""8\"",\""9  <br/><b>Extremely intelligent</b>\""],\""required\"":true}]"", ""task_unique_trial"": 100, ""task_name"": ""intelligent-modifae-single"", ""trial_index"": 62, ""isRepeat"": 0}"
A35P8YSNTQ7OTP:3VJ40NV2QKUQZLMFO21W78PSDDYTO7,63,1548066007447,"{""rt"": 1929, ""trial_type"": ""face-likert-amanda"", ""debug_mode"": ""live"", ""task_type"": ""face trials"", ""responses"": ""{\""Q0\"":4}"", ""task_payment"": 1, ""task_version"": 1, ""internal_node_id"": ""0.0-7.0-0.0-6.0"", ""time_elapsed"": 170112, ""imgName"": ""/static/images/modifAE_linspace/intelligent/136187_-0.3181818181818182.png"", ""questions"": ""[{\""prompt\"":\""<p>How <b>intelligent</b> does this person look to <b>most people</b>? Rate from 1-9</p>\"",\""labels\"":[\""1 <br/><b>Not intelligent at all</b>\"",\""2\"",\""3\"",\""4\"",\""5\"",\""6\"",\""7\"",\""8\"",\""9  <br/><b>Extremely intelligent</b>\""],\""required\"":true}]"", ""task_unique_trial"": 100, ""task_name"": ""intelligent-modifae-single"", ""trial_index"": 63, ""isRepeat"": 0}"
A35P8YSNTQ7OTP:3VJ40NV2QKUQZLMFO21W78PSDDYTO7,64,1548066009089,"{""rt"": 1634, ""trial_type"": ""face-likert-amanda"", ""debug_mode"": ""live"", ""task_type"": ""face trials"", ""responses"": ""{\""Q0\"":4}"", ""task_payment"": 1, ""task_version"": 1, ""internal_node_id"": ""0.0-7.0-0.0-7.0"", ""time_elapsed"": 171753, ""imgName"": ""/static/images/modifAE_linspace/intelligent/136191_-0.2777777777777778.png"", ""questions"": ""[{\""prompt\"":\""<p>How <b>intelligent</b> does this person look to <b>most people</b>? Rate from 1-9</p>\"",\""labels\"":[\""1 <br/><b>Not intelligent at all</b>\"",\""2\"",\""3\"",\""4\"",\""5\"",\""6\"",\""7\"",\""8\"",\""9  <br/><b>Extremely intelligent</b>\""],\""required\"":true}]"", ""task_unique_trial"": 100, ""task_name"": ""intelligent-modifae-single"", ""trial_index"": 64, ""isRepeat"": 0}"
A35P8YSNTQ7OTP:3VJ40NV2QKUQZLMFO21W78PSDDYTO7,65,1548066010680,"{""rt"": 1587, ""trial_type"": ""face-likert-amanda"", ""debug_mode"": ""live"", ""task_type"": ""face trials"", ""responses"": ""{\""Q0\"":4}"", ""task_payment"": 1, ""task_version"": 1, ""internal_node_id"": ""0.0-7.0-0.0-8.0"", ""time_elapsed"": 173345, ""imgName"": ""/static/images/modifAE_linspace/intelligent/136188_-0.30808080808080807.png"", ""questions"": ""[{\""prompt\"":\""<p>How <b>intelligent</b> does this person look to <b>most people</b>? Rate from 1-9</p>\"",\""labels\"":[\""1 <br/><b>Not intelligent at all</b>\"",\""2\"",\""3\"",\""4\"",\""5\"",\""6\"",\""7\"",\""8\"",\""9  <br/><b>Extremely intelligent</b>\""],\""required\"":true}]"", ""task_unique_trial"": 100, ""task_name"": ""intelligent-modifae-single"", ""trial_index"": 65, ""isRepeat"": 0}"
A35P8YSNTQ7OTP:3VJ40NV2QKUQZLMFO21W78PSDDYTO7,66,1548066012630,"{""rt"": 1943, ""trial_type"": ""face-likert-amanda"", ""debug_mode"": ""live"", ""task_type"": ""face trials"", ""responses"": ""{\""Q0\"":4}"", ""task_payment"": 1, ""task_version"": 1, ""internal_node_id"": ""0.0-7.0-0.0-9.0"", ""time_elapsed"": 175295, ""imgName"": ""/static/images/modifAE_linspace/intelligent/136177_-0.41919191919191917.png"", ""questions"": ""[{\""prompt\"":\""<p>How <b>intelligent</b> does this person look to <b>most people</b>? Rate from 1-9</p>\"",\""labels\"":[\""1 <br/><b>Not intelligent at all</b>\"",\""2\"",\""3\"",\""4\"",\""5\"",\""6\"",\""7\"",\""8\"",\""9  <br/><b>Extremely intelligent</b>\""],\""required\"":true}]"", ""task_unique_trial"": 100, ""task_name"": ""intelligent-modifae-single"", ""trial_index"": 66, ""isRepeat"": 0}"
A35P8YSNTQ7OTP:3VJ40NV2QKUQZLMFO21W78PSDDYTO7,67,1548066014636,"{""rt"": null, ""trial_type"": ""html-keyboard-response"", ""task_unique_trial"": 100, ""stimulus"": ""<p>Good job!</p>"", ""task_version"": 1, ""internal_node_id"": ""0.0-7.0-1.0"", ""task_payment"": 1, ""time_elapsed"": 177301, ""debug_mode"": ""live"", ""key_press"": null, ""task_name"": ""intelligent-modifae-single"", ""trial_index"": 67}"
A35P8YSNTQ7OTP:3VJ40NV2QKUQZLMFO21W78PSDDYTO7,68,1548066016215,"{""rt"": 1570, ""trial_type"": ""face-likert-amanda"", ""debug_mode"": ""live"", ""task_type"": ""face trials"", ""responses"": ""{\""Q0\"":4}"", ""task_payment"": 1, ""task_version"": 1, ""internal_node_id"": ""0.0-8.0-0.0-0.0"", ""time_elapsed"": 178881, ""imgName"": ""/static/images/modifAE_linspace/intelligent/136204_-0.1464646464646464.png"", ""questions"": ""[{\""prompt\"":\""<p>How <b>intelligent</b> does this person look to <b>most people</b>? Rate from 1-9</p>\"",\""labels\"":[\""1 <br/><b>Not intelligent at all</b>\"",\""2\"",\""3\"",\""4\"",\""5\"",\""6\"",\""7\"",\""8\"",\""9  <br/><b>Extremely intelligent</b>\""],\""required\"":true}]"", ""task_unique_trial"": 100, ""task_name"": ""intelligent-modifae-single"", ""trial_index"": 68, ""isRepeat"": 0}"
A35P8YSNTQ7OTP:3VJ40NV2QKUQZLMFO21W78PSDDYTO7,69,1548066017917,"{""rt"": 1694, ""trial_type"": ""face-likert-amanda"", ""debug_mode"": ""live"", ""task_type"": ""face trials"", ""responses"": ""{\""Q0\"":4}"", ""task_payment"": 1, ""task_version"": 1, ""internal_node_id"": ""0.0-8.0-0.0-1.0"", ""time_elapsed"": 180582, ""imgName"": ""/static/images/modifAE_linspace/intelligent/136175_-0.4393939393939394.png"", ""questions"": ""[{\""prompt\"":\""<p>How <b>intelligent</b> does this person look to <b>most people</b>? Rate from 1-9</p>\"",\""labels\"":[\""1 <br/><b>Not intelligent at all</b>\"",\""2\"",\""3\"",\""4\"",\""5\"",\""6\"",\""7\"",\""8\"",\""9  <br/><b>Extremely intelligent</b>\""],\""required\"":true}]"", ""task_unique_trial"": 100, ""task_name"": ""intelligent-modifae-single"", ""trial_index"": 69, ""isRepeat"": 0}"
A35P8YSNTQ7OTP:3VJ40NV2QKUQZLMFO21W78PSDDYTO7,70,1548066019655,"{""rt"": 1728, ""trial_type"": ""face-likert-amanda"", ""debug_mode"": ""live"", ""task_type"": ""face trials"", ""responses"": ""{\""Q0\"":4}"", ""task_payment"": 1, ""task_version"": 1, ""internal_node_id"": ""0.0-8.0-0.0-2.0"", ""time_elapsed"": 182319, ""imgName"": ""/static/images/modifAE_linspace/intelligent/136220_0.015151515151515249.png"", ""questions"": ""[{\""prompt\"":\""<p>How <b>intelligent</b> does this person look to <b>most people</b>? Rate from 1-9</p>\"",\""labels\"":[\""1 <br/><b>Not intelligent at all</b>\"",\""2\"",\""3\"",\""4\"",\""5\"",\""6\"",\""7\"",\""8\"",\""9  <br/><b>Extremely intelligent</b>\""],\""required\"":true}]"", ""task_unique_trial"": 100, ""task_name"": ""intelligent-modifae-single"", ""trial_index"": 70, ""isRepeat"": 0}"
A35P8YSNTQ7OTP:3VJ40NV2QKUQZLMFO21W78PSDDYTO7,71,1548066021176,"{""rt"": 1517, ""trial_type"": ""face-likert-amanda"", ""debug_mode"": ""live"", ""task_type"": ""face trials"", ""responses"": ""{\""Q0\"":4}"", ""task_payment"": 1, ""task_version"": 1, ""internal_node_id"": ""0.0-8.0-0.0-3.0"", ""time_elapsed"": 183842, ""imgName"": ""/static/images/modifAE_linspace/intelligent/136257_0.38888888888888895.png"", ""questions"": ""[{\""prompt\"":\""<p>How <b>intelligent</b> does this person look to <b>most people</b>? Rate from 1-9</p>\"",\""labels\"":[\""1 <br/><b>Not intelligent at all</b>\"",\""2\"",\""3\"",\""4\"",\""5\"",\""6\"",\""7\"",\""8\"",\""9  <br/><b>Extremely intelligent</b>\""],\""required\"":true}]"", ""task_unique_trial"": 100, ""task_name"": ""intelligent-modifae-single"", ""trial_index"": 71, ""isRepeat"": 0}"
A35P8YSNTQ7OTP:3VJ40NV2QKUQZLMFO21W78PSDDYTO7,72,1548066023069,"{""rt"": 1888, ""trial_type"": ""face-likert-amanda"", ""debug_mode"": ""live"", ""task_type"": ""face trials"", ""responses"": ""{\""Q0\"":4}"", ""task_payment"": 1, ""task_version"": 1, ""internal_node_id"": ""0.0-8.0-0.0-4.0"", ""time_elapsed"": 185735, ""imgName"": ""/static/images/modifAE_linspace/intelligent/136221_0.025252525252525304.png"", ""questions"": ""[{\""prompt\"":\""<p>How <b>intelligent</b> does this person look to <b>most people</b>? Rate from 1-9</p>\"",\""labels\"":[\""1 <br/><b>Not intelligent at all</b>\"",\""2\"",\""3\"",\""4\"",\""5\"",\""6\"",\""7\"",\""8\"",\""9  <br/><b>Extremely intelligent</b>\""],\""required\"":true}]"", ""task_unique_trial"": 100, ""task_name"": ""intelligent-modifae-single"", ""trial_index"": 72, ""isRepeat"": 0}"
A35P8YSNTQ7OTP:3VJ40NV2QKUQZLMFO21W78PSDDYTO7,73,1548066025124,"{""rt"": 2051, ""trial_type"": ""face-likert-amanda"", ""debug_mode"": ""live"", ""task_type"": ""face trials"", ""responses"": ""{\""Q0\"":4}"", ""task_payment"": 1, ""task_version"": 1, ""internal_node_id"": ""0.0-8.0-0.0-5.0"", ""time_elapsed"": 187790, ""imgName"": ""/static/images/modifAE_linspace/intelligent/136229_0.10606060606060608.png"", ""questions"": ""[{\""prompt\"":\""<p>How <b>intelligent</b> does this person look to <b>most people</b>? Rate from 1-9</p>\"",\""labels\"":[\""1 <br/><b>Not intelligent at all</b>\"",\""2\"",\""3\"",\""4\"",\""5\"",\""6\"",\""7\"",\""8\"",\""9  <br/><b>Extremely intelligent</b>\""],\""required\"":true}]"", ""task_unique_trial"": 100, ""task_name"": ""intelligent-modifae-single"", ""trial_index"": 73, ""isRepeat"": 0}"
A35P8YSNTQ7OTP:3VJ40NV2QKUQZLMFO21W78PSDDYTO7,74,1548066027853,"{""rt"": 2724, ""trial_type"": ""face-likert-amanda"", ""debug_mode"": ""live"", ""task_type"": ""face trials"", ""responses"": ""{\""Q0\"":4}"", ""task_payment"": 1, ""task_version"": 1, ""internal_node_id"": ""0.0-8.0-0.0-6.0"", ""time_elapsed"": 190518, ""imgName"": ""/static/images/modifAE_linspace/intelligent/136254_0.3585858585858587.png"", ""questions"": ""[{\""prompt\"":\""<p>How <b>intelligent</b> does this person look to <b>most people</b>? Rate from 1-9</p>\"",\""labels\"":[\""1 <br/><b>Not intelligent at all</b>\"",\""2\"",\""3\"",\""4\"",\""5\"",\""6\"",\""7\"",\""8\"",\""9  <br/><b>Extremely intelligent</b>\""],\""required\"":true}]"", ""task_unique_trial"": 100, ""task_name"": ""intelligent-modifae-single"", ""trial_index"": 74, ""isRepeat"": 0}"
A35P8YSNTQ7OTP:3VJ40NV2QKUQZLMFO21W78PSDDYTO7,75,1548066029473,"{""rt"": 1617, ""trial_type"": ""face-likert-amanda"", ""debug_mode"": ""live"", ""task_type"": ""face trials"", ""responses"": ""{\""Q0\"":4}"", ""task_payment"": 1, ""task_version"": 1, ""internal_node_id"": ""0.0-8.0-0.0-7.0"", ""time_elapsed"": 192139, ""imgName"": ""/static/images/modifAE_linspace/intelligent/136196_-0.22727272727272724.png"", ""questions"": ""[{\""prompt\"":\""<p>How <b>intelligent</b> does this person look to <b>most people</b>? Rate from 1-9</p>\"",\""labels\"":[\""1 <br/><b>Not intelligent at all</b>\"",\""2\"",\""3\"",\""4\"",\""5\"",\""6\"",\""7\"",\""8\"",\""9  <br/><b>Extremely intelligent</b>\""],\""required\"":true}]"", ""task_unique_trial"": 100, ""task_name"": ""intelligent-modifae-single"", ""trial_index"": 75, ""isRepeat"": 0}"
A35P8YSNTQ7OTP:3VJ40NV2QKUQZLMFO21W78PSDDYTO7,76,1548066031157,"{""rt"": 1676, ""trial_type"": ""face-likert-amanda"", ""debug_mode"": ""live"", ""task_type"": ""face trials"", ""responses"": ""{\""Q0\"":4}"", ""task_payment"": 1, ""task_version"": 1, ""internal_node_id"": ""0.0-8.0-0.0-8.0"", ""time_elapsed"": 193821, ""imgName"": ""/static/images/modifAE_linspace/intelligent/136171_-0.4797979797979798.png"", ""questions"": ""[{\""prompt\"":\""<p>How <b>intelligent</b> does this person look to <b>most people</b>? Rate from 1-9</p>\"",\""labels\"":[\""1 <br/><b>Not intelligent at all</b>\"",\""2\"",\""3\"",\""4\"",\""5\"",\""6\"",\""7\"",\""8\"",\""9  <br/><b>Extremely intelligent</b>\""],\""required\"":true}]"", ""task_unique_trial"": 100, ""task_name"": ""intelligent-modifae-single"", ""trial_index"": 76, ""isRepeat"": 0}"
A35P8YSNTQ7OTP:3VJ40NV2QKUQZLMFO21W78PSDDYTO7,77,1548066033060,"{""rt"": 1897, ""trial_type"": ""face-likert-amanda"", ""debug_mode"": ""live"", ""task_type"": ""face trials"", ""responses"": ""{\""Q0\"":4}"", ""task_payment"": 1, ""task_version"": 1, ""internal_node_id"": ""0.0-8.0-0.0-9.0"", ""time_elapsed"": 195725, ""imgName"": ""/static/images/modifAE_linspace/intelligent/136185_-0.33838383838383834.png"", ""questions"": ""[{\""prompt\"":\""<p>How <b>intelligent</b> does this person look to <b>most people</b>? Rate from 1-9</p>\"",\""labels\"":[\""1 <br/><b>Not intelligent at all</b>\"",\""2\"",\""3\"",\""4\"",\""5\"",\""6\"",\""7\"",\""8\"",\""9  <br/><b>Extremely intelligent</b>\""],\""required\"":true}]"", ""task_unique_trial"": 100, ""task_name"": ""intelligent-modifae-single"", ""trial_index"": 77, ""isRepeat"": 0}"
A35P8YSNTQ7OTP:3VJ40NV2QKUQZLMFO21W78PSDDYTO7,78,1548066034567,"{""rt"": null, ""trial_type"": ""html-keyboard-response"", ""task_unique_trial"": 100, ""stimulus"": ""<p>Good job!</p>"", ""task_version"": 1, ""internal_node_id"": ""0.0-8.0-1.0"", ""task_payment"": 1, ""time_elapsed"": 197232, ""debug_mode"": ""live"", ""key_press"": null, ""task_name"": ""intelligent-modifae-single"", ""trial_index"": 78}"
A35P8YSNTQ7OTP:3VJ40NV2QKUQZLMFO21W78PSDDYTO7,79,1548066036765,"{""rt"": 2187, ""trial_type"": ""face-likert-amanda"", ""debug_mode"": ""live"", ""task_type"": ""face trials"", ""responses"": ""{\""Q0\"":4}"", ""task_payment"": 1, ""task_version"": 1, ""internal_node_id"": ""0.0-9.0-0.0-0.0"", ""time_elapsed"": 199428, ""imgName"": ""/static/images/modifAE_linspace/intelligent/136251_0.3282828282828284.png"", ""questions"": ""[{\""prompt\"":\""<p>How <b>intelligent</b> does this person look to <b>most people</b>? Rate from 1-9</p>\"",\""labels\"":[\""1 <br/><b>Not intelligent at all</b>\"",\""2\"",\""3\"",\""4\"",\""5\"",\""6\"",\""7\"",\""8\"",\""9  <br/><b>Extremely intelligent</b>\""],\""required\"":true}]"", ""task_unique_trial"": 100, ""task_name"": ""intelligent-modifae-single"", ""trial_index"": 79, ""isRepeat"": 0}"
A35P8YSNTQ7OTP:3VJ40NV2QKUQZLMFO21W78PSDDYTO7,80,1548066039770,"{""rt"": 2996, ""trial_type"": ""face-likert-amanda"", ""debug_mode"": ""live"", ""task_type"": ""face trials"", ""responses"": ""{\""Q0\"":4}"", ""task_payment"": 1, ""task_version"": 1, ""internal_node_id"": ""0.0-9.0-0.0-1.0"", ""time_elapsed"": 202435, ""imgName"": ""/static/images/modifAE_linspace/intelligent/136264_0.45959595959595967.png"", ""questions"": ""[{\""prompt\"":\""<p>How <b>intelligent</b> does this person look to <b>most people</b>? Rate from 1-9</p>\"",\""labels\"":[\""1 <br/><b>Not intelligent at all</b>\"",\""2\"",\""3\"",\""4\"",\""5\"",\""6\"",\""7\"",\""8\"",\""9  <br/><b>Extremely intelligent</b>\""],\""required\"":true}]"", ""task_unique_trial"": 100, ""task_name"": ""intelligent-modifae-single"", ""trial_index"": 80, ""isRepeat"": 0}"
A35P8YSNTQ7OTP:3VJ40NV2QKUQZLMFO21W78PSDDYTO7,81,1548066042789,"{""rt"": 3009, ""trial_type"": ""face-likert-amanda"", ""debug_mode"": ""live"", ""task_type"": ""face trials"", ""responses"": ""{\""Q0\"":4}"", ""task_payment"": 1, ""task_version"": 1, ""internal_node_id"": ""0.0-9.0-0.0-2.0"", ""time_elapsed"": 205454, ""imgName"": ""/static/images/modifAE_linspace/intelligent/136225_0.06565656565656575.png"", ""questions"": ""[{\""prompt\"":\""<p>How <b>intelligent</b> does this person look to <b>most people</b>? Rate from 1-9</p>\"",\""labels\"":[\""1 <br/><b>Not intelligent at all</b>\"",\""2\"",\""3\"",\""4\"",\""5\"",\""6\"",\""7\"",\""8\"",\""9  <br/><b>Extremely intelligent</b>\""],\""required\"":true}]"", ""task_unique_trial"": 100, ""task_name"": ""intelligent-modifae-single"", ""trial_index"": 81, ""isRepeat"": 0}"
A35P8YSNTQ7OTP:3VJ40NV2QKUQZLMFO21W78PSDDYTO7,82,1548066044497,"{""rt"": 1700, ""trial_type"": ""face-likert-amanda"", ""debug_mode"": ""live"", ""task_type"": ""face trials"", ""responses"": ""{\""Q0\"":4}"", ""task_payment"": 1, ""task_version"": 1, ""internal_node_id"": ""0.0-9.0-0.0-3.0"", ""time_elapsed"": 207161, ""imgName"": ""/static/images/modifAE_linspace/intelligent/136171_-0.4797979797979798.png"", ""questions"": ""[{\""prompt\"":\""<p>How <b>intelligent</b> does this person look to <b>most people</b>? Rate from 1-9</p>\"",\""labels\"":[\""1 <br/><b>Not intelligent at all</b>\"",\""2\"",\""3\"",\""4\"",\""5\"",\""6\"",\""7\"",\""8\"",\""9  <br/><b>Extremely intelligent</b>\""],\""required\"":true}]"", ""task_unique_trial"": 100, ""task_name"": ""intelligent-modifae-single"", ""trial_index"": 82, ""isRepeat"": 0}"
A35P8YSNTQ7OTP:3VJ40NV2QKUQZLMFO21W78PSDDYTO7,83,1548066046574,"{""rt"": 2069, ""trial_type"": ""face-likert-amanda"", ""debug_mode"": ""live"", ""task_type"": ""face trials"", ""responses"": ""{\""Q0\"":4}"", ""task_payment"": 1, ""task_version"": 1, ""internal_node_id"": ""0.0-9.0-0.0-4.0"", ""time_elapsed"": 209238, ""imgName"": ""/static/images/modifAE_linspace/intelligent/136209_-0.09595959595959591.png"", ""questions"": ""[{\""prompt\"":\""<p>How <b>intelligent</b> does this person look to <b>most people</b>? Rate from 1-9</p>\"",\""labels\"":[\""1 <br/><b>Not intelligent at all</b>\"",\""2\"",\""3\"",\""4\"",\""5\"",\""6\"",\""7\"",\""8\"",\""9  <br/><b>Extremely intelligent</b>\""],\""required\"":true}]"", ""task_unique_trial"": 100, ""task_name"": ""intelligent-modifae-single"", ""trial_index"": 83, ""isRepeat"": 0}"
A35P8YSNTQ7OTP:3VJ40NV2QKUQZLMFO21W78PSDDYTO7,84,1548066048106,"{""rt"": 1527, ""trial_type"": ""face-likert-amanda"", ""debug_mode"": ""live"", ""task_type"": ""face trials"", ""responses"": ""{\""Q0\"":4}"", ""task_payment"": 1, ""task_version"": 1, ""internal_node_id"": ""0.0-9.0-0.0-5.0"", ""time_elapsed"": 210772, ""imgName"": ""/static/images/modifAE_linspace/intelligent/136266_0.4797979797979799.png"", ""questions"": ""[{\""prompt\"":\""<p>How <b>intelligent</b> does this person look to <b>most people</b>? Rate from 1-9</p>\"",\""labels\"":[\""1 <br/><b>Not intelligent at all</b>\"",\""2\"",\""3\"",\""4\"",\""5\"",\""6\"",\""7\"",\""8\"",\""9  <br/><b>Extremely intelligent</b>\""],\""required\"":true}]"", ""task_unique_trial"": 100, ""task_name"": ""intelligent-modifae-single"", ""trial_index"": 84, ""isRepeat"": 0}"
A35P8YSNTQ7OTP:3VJ40NV2QKUQZLMFO21W78PSDDYTO7,85,1548066051778,"{""rt"": 3665, ""trial_type"": ""face-likert-amanda"", ""debug_mode"": ""live"", ""task_type"": ""face trials"", ""responses"": ""{\""Q0\"":4}"", ""task_payment"": 1, ""task_version"": 1, ""internal_node_id"": ""0.0-9.0-0.0-6.0"", ""time_elapsed"": 214443, ""imgName"": ""/static/images/modifAE_linspace/intelligent/136227_0.08585858585858586.png"", ""questions"": ""[{\""prompt\"":\""<p>How <b>intelligent</b> does this person look to <b>most people</b>? Rate from 1-9</p>\"",\""labels\"":[\""1 <br/><b>Not intelligent at all</b>\"",\""2\"",\""3\"",\""4\"",\""5\"",\""6\"",\""7\"",\""8\"",\""9  <br/><b>Extremely intelligent</b>\""],\""required\"":true}]"", ""task_unique_trial"": 100, ""task_name"": ""intelligent-modifae-single"", ""trial_index"": 85, ""isRepeat"": 0}"
A35P8YSNTQ7OTP:3VJ40NV2QKUQZLMFO21W78PSDDYTO7,86,1548066053741,"{""rt"": 1958, ""trial_type"": ""face-likert-amanda"", ""debug_mode"": ""live"", ""task_type"": ""face trials"", ""responses"": ""{\""Q0\"":4}"", ""task_payment"": 1, ""task_version"": 1, ""internal_node_id"": ""0.0-9.0-0.0-7.0"", ""time_elapsed"": 216407, ""imgName"": ""/static/images/modifAE_linspace/intelligent/136250_0.31818181818181823.png"", ""questions"": ""[{\""prompt\"":\""<p>How <b>intelligent</b> does this person look to <b>most people</b>? Rate from 1-9</p>\"",\""labels\"":[\""1 <br/><b>Not intelligent at all</b>\"",\""2\"",\""3\"",\""4\"",\""5\"",\""6\"",\""7\"",\""8\"",\""9  <br/><b>Extremely intelligent</b>\""],\""required\"":true}]"", ""task_unique_trial"": 100, ""task_name"": ""intelligent-modifae-single"", ""trial_index"": 86, ""isRepeat"": 0}"
A35P8YSNTQ7OTP:3VJ40NV2QKUQZLMFO21W78PSDDYTO7,87,1548066055741,"{""rt"": 1996, ""trial_type"": ""face-likert-amanda"", ""debug_mode"": ""live"", ""task_type"": ""face trials"", ""responses"": ""{\""Q0\"":4}"", ""task_payment"": 1, ""task_version"": 1, ""internal_node_id"": ""0.0-9.0-0.0-8.0"", ""time_elapsed"": 218407, ""imgName"": ""/static/images/modifAE_linspace/intelligent/136227_0.08585858585858586.png"", ""questions"": ""[{\""prompt\"":\""<p>How <b>intelligent</b> does this person look to <b>most people</b>? Rate from 1-9</p>\"",\""labels\"":[\""1 <br/><b>Not intelligent at all</b>\"",\""2\"",\""3\"",\""4\"",\""5\"",\""6\"",\""7\"",\""8\"",\""9  <br/><b>Extremely intelligent</b>\""],\""required\"":true}]"", ""task_unique_trial"": 100, ""task_name"": ""intelligent-modifae-single"", ""trial_index"": 87, ""isRepeat"": 0}"
A35P8YSNTQ7OTP:3VJ40NV2QKUQZLMFO21W78PSDDYTO7,88,1548066057927,"{""rt"": 2180, ""trial_type"": ""face-likert-amanda"", ""debug_mode"": ""live"", ""task_type"": ""face trials"", ""responses"": ""{\""Q0\"":4}"", ""task_payment"": 1, ""task_version"": 1, ""internal_node_id"": ""0.0-9.0-0.0-9.0"", ""time_elapsed"": 220593, ""imgName"": ""/static/images/modifAE_linspace/intelligent/136202_-0.16666666666666663.png"", ""questions"": ""[{\""prompt\"":\""<p>How <b>intelligent</b> does this person look to <b>most people</b>? Rate from 1-9</p>\"",\""labels\"":[\""1 <br/><b>Not intelligent at all</b>\"",\""2\"",\""3\"",\""4\"",\""5\"",\""6\"",\""7\"",\""8\"",\""9  <br/><b>Extremely intelligent</b>\""],\""required\"":true}]"", ""task_unique_trial"": 100, ""task_name"": ""intelligent-modifae-single"", ""trial_index"": 88, ""isRepeat"": 0}"
A35P8YSNTQ7OTP:3VJ40NV2QKUQZLMFO21W78PSDDYTO7,89,1548066059932,"{""rt"": null, ""trial_type"": ""html-keyboard-response"", ""task_unique_trial"": 100, ""stimulus"": ""<p>Good job!</p>"", ""task_version"": 1, ""internal_node_id"": ""0.0-9.0-1.0"", ""task_payment"": 1, ""time_elapsed"": 222598, ""debug_mode"": ""live"", ""key_press"": null, ""task_name"": ""intelligent-modifae-single"", ""trial_index"": 89}"
A35P8YSNTQ7OTP:3VJ40NV2QKUQZLMFO21W78PSDDYTO7,90,1548066061577,"{""rt"": 1639, ""trial_type"": ""face-likert-amanda"", ""debug_mode"": ""live"", ""task_type"": ""face trials"", ""responses"": ""{\""Q0\"":4}"", ""task_payment"": 1, ""task_version"": 1, ""internal_node_id"": ""0.0-10.0-0.0-0.0"", ""time_elapsed"": 224241, ""imgName"": ""/static/images/modifAE_linspace/intelligent/136223_0.045454545454545525.png"", ""questions"": ""[{\""prompt\"":\""<p>How <b>intelligent</b> does this person look to <b>most people</b>? Rate from 1-9</p>\"",\""labels\"":[\""1 <br/><b>Not intelligent at all</b>\"",\""2\"",\""3\"",\""4\"",\""5\"",\""6\"",\""7\"",\""8\"",\""9  <br/><b>Extremely intelligent</b>\""],\""required\"":true}]"", ""task_unique_trial"": 100, ""task_name"": ""intelligent-modifae-single"", ""trial_index"": 90, ""isRepeat"": 0}"
A35P8YSNTQ7OTP:3VJ40NV2QKUQZLMFO21W78PSDDYTO7,91,1548066063330,"{""rt"": 1747, ""trial_type"": ""face-likert-amanda"", ""debug_mode"": ""live"", ""task_type"": ""face trials"", ""responses"": ""{\""Q0\"":4}"", ""task_payment"": 1, ""task_version"": 1, ""internal_node_id"": ""0.0-10.0-0.0-1.0"", ""time_elapsed"": 225996, ""imgName"": ""/static/images/modifAE_linspace/intelligent/136192_-0.2676767676767676.png"", ""questions"": ""[{\""prompt\"":\""<p>How <b>intelligent</b> does this person look to <b>most people</b>? Rate from 1-9</p>\"",\""labels\"":[\""1 <br/><b>Not intelligent at all</b>\"",\""2\"",\""3\"",\""4\"",\""5\"",\""6\"",\""7\"",\""8\"",\""9  <br/><b>Extremely intelligent</b>\""],\""required\"":true}]"", ""task_unique_trial"": 100, ""task_name"": ""intelligent-modifae-single"", ""trial_index"": 91, ""isRepeat"": 0}"
A35P8YSNTQ7OTP:3VJ40NV2QKUQZLMFO21W78PSDDYTO7,92,1548066065240,"{""rt"": 1903, ""trial_type"": ""face-likert-amanda"", ""debug_mode"": ""live"", ""task_type"": ""face trials"", ""responses"": ""{\""Q0\"":4}"", ""task_payment"": 1, ""task_version"": 1, ""internal_node_id"": ""0.0-10.0-0.0-2.0"", ""time_elapsed"": 227903, ""imgName"": ""/static/images/modifAE_linspace/intelligent/136170_-0.4898989898989899.png"", ""questions"": ""[{\""prompt\"":\""<p>How <b>intelligent</b> does this person look to <b>most people</b>? Rate from 1-9</p>\"",\""labels\"":[\""1 <br/><b>Not intelligent at all</b>\"",\""2\"",\""3\"",\""4\"",\""5\"",\""6\"",\""7\"",\""8\"",\""9  <br/><b>Extremely intelligent</b>\""],\""required\"":true}]"", ""task_unique_trial"": 100, ""task_name"": ""intelligent-modifae-single"", ""trial_index"": 92, ""isRepeat"": 0}"
A35P8YSNTQ7OTP:3VJ40NV2QKUQZLMFO21W78PSDDYTO7,93,1548066067109,"{""rt"": 1861, ""trial_type"": ""face-likert-amanda"", ""debug_mode"": ""live"", ""task_type"": ""face trials"", ""responses"": ""{\""Q0\"":4}"", ""task_payment"": 1, ""task_version"": 1, ""internal_node_id"": ""0.0-10.0-0.0-3.0"", ""time_elapsed"": 229773, ""imgName"": ""/static/images/modifAE_linspace/intelligent/136197_-0.21717171717171713.png"", ""questions"": ""[{\""prompt\"":\""<p>How <b>intelligent</b> does this person look to <b>most people</b>? Rate from 1-9</p>\"",\""labels\"":[\""1 <br/><b>Not intelligent at all</b>\"",\""2\"",\""3\"",\""4\"",\""5\"",\""6\"",\""7\"",\""8\"",\""9  <br/><b>Extremely intelligent</b>\""],\""required\"":true}]"", ""task_unique_trial"": 100, ""task_name"": ""intelligent-modifae-single"", ""trial_index"": 93, ""isRepeat"": 0}"
A35P8YSNTQ7OTP:3VJ40NV2QKUQZLMFO21W78PSDDYTO7,94,1548066068984,"{""rt"": 1871, ""trial_type"": ""face-likert-amanda"", ""debug_mode"": ""live"", ""task_type"": ""face trials"", ""responses"": ""{\""Q0\"":4}"", ""task_payment"": 1, ""task_version"": 1, ""internal_node_id"": ""0.0-10.0-0.0-4.0"", ""time_elapsed"": 231650, ""imgName"": ""/static/images/modifAE_linspace/intelligent/136222_0.03535353535353536.png"", ""questions"": ""[{\""prompt\"":\""<p>How <b>intelligent</b> does this person look to <b>most people</b>? Rate from 1-9</p>\"",\""labels\"":[\""1 <br/><b>Not intelligent at all</b>\"",\""2\"",\""3\"",\""4\"",\""5\"",\""6\"",\""7\"",\""8\"",\""9  <br/><b>Extremely intelligent</b>\""],\""required\"":true}]"", ""task_unique_trial"": 100, ""task_name"": ""intelligent-modifae-single"", ""trial_index"": 94, ""isRepeat"": 0}"
A35P8YSNTQ7OTP:3VJ40NV2QKUQZLMFO21W78PSDDYTO7,95,1548066071504,"{""rt"": 2516, ""trial_type"": ""face-likert-amanda"", ""debug_mode"": ""live"", ""task_type"": ""face trials"", ""responses"": ""{\""Q0\"":4}"", ""task_payment"": 1, ""task_version"": 1, ""internal_node_id"": ""0.0-10.0-0.0-5.0"", ""time_elapsed"": 234170, ""imgName"": ""/static/images/modifAE_linspace/intelligent/136243_0.24747474747474751.png"", ""questions"": ""[{\""prompt\"":\""<p>How <b>intelligent</b> does this person look to <b>most people</b>? Rate from 1-9</p>\"",\""labels\"":[\""1 <br/><b>Not intelligent at all</b>\"",\""2\"",\""3\"",\""4\"",\""5\"",\""6\"",\""7\"",\""8\"",\""9  <br/><b>Extremely intelligent</b>\""],\""required\"":true}]"", ""task_unique_trial"": 100, ""task_name"": ""intelligent-modifae-single"", ""trial_index"": 95, ""isRepeat"": 0}"
A35P8YSNTQ7OTP:3VJ40NV2QKUQZLMFO21W78PSDDYTO7,96,1548066073653,"{""rt"": 2144, ""trial_type"": ""face-likert-amanda"", ""debug_mode"": ""live"", ""task_type"": ""face trials"", ""responses"": ""{\""Q0\"":4}"", ""task_payment"": 1, ""task_version"": 1, ""internal_node_id"": ""0.0-10.0-0.0-6.0"", ""time_elapsed"": 236318, ""imgName"": ""/static/images/modifAE_linspace/intelligent/136190_-0.28787878787878785.png"", ""questions"": ""[{\""prompt\"":\""<p>How <b>intelligent</b> does this person look to <b>most people</b>? Rate from 1-9</p>\"",\""labels\"":[\""1 <br/><b>Not intelligent at all</b>\"",\""2\"",\""3\"",\""4\"",\""5\"",\""6\"",\""7\"",\""8\"",\""9  <br/><b>Extremely intelligent</b>\""],\""required\"":true}]"", ""task_unique_trial"": 100, ""task_name"": ""intelligent-modifae-single"", ""trial_index"": 96, ""isRepeat"": 0}"
A35P8YSNTQ7OTP:3VJ40NV2QKUQZLMFO21W78PSDDYTO7,97,1548066075305,"{""rt"": 1644, ""trial_type"": ""face-likert-amanda"", ""debug_mode"": ""live"", ""task_type"": ""face trials"", ""responses"": ""{\""Q0\"":4}"", ""task_payment"": 1, ""task_version"": 1, ""internal_node_id"": ""0.0-10.0-0.0-7.0"", ""time_elapsed"": 237969, ""imgName"": ""/static/images/modifAE_linspace/intelligent/136225_0.06565656565656575.png"", ""questions"": ""[{\""prompt\"":\""<p>How <b>intelligent</b> does this person look to <b>most people</b>? Rate from 1-9</p>\"",\""labels\"":[\""1 <br/><b>Not intelligent at all</b>\"",\""2\"",\""3\"",\""4\"",\""5\"",\""6\"",\""7\"",\""8\"",\""9  <br/><b>Extremely intelligent</b>\""],\""required\"":true}]"", ""task_unique_trial"": 100, ""task_name"": ""intelligent-modifae-single"", ""trial_index"": 97, ""isRepeat"": 0}"
A35P8YSNTQ7OTP:3VJ40NV2QKUQZLMFO21W78PSDDYTO7,98,1548066077387,"{""rt"": 2073, ""trial_type"": ""face-likert-amanda"", ""debug_mode"": ""live"", ""task_type"": ""face trials"", ""responses"": ""{\""Q0\"":4}"", ""task_payment"": 1, ""task_version"": 1, ""internal_node_id"": ""0.0-10.0-0.0-8.0"", ""time_elapsed"": 240052, ""imgName"": ""/static/images/modifAE_linspace/intelligent/136186_-0.3282828282828283.png"", ""questions"": ""[{\""prompt\"":\""<p>How <b>intelligent</b> does this person look to <b>most people</b>? Rate from 1-9</p>\"",\""labels\"":[\""1 <br/><b>Not intelligent at all</b>\"",\""2\"",\""3\"",\""4\"",\""5\"",\""6\"",\""7\"",\""8\"",\""9  <br/><b>Extremely intelligent</b>\""],\""required\"":true}]"", ""task_unique_trial"": 100, ""task_name"": ""intelligent-modifae-single"", ""trial_index"": 98, ""isRepeat"": 0}"
A35P8YSNTQ7OTP:3VJ40NV2QKUQZLMFO21W78PSDDYTO7,99,1548066078922,"{""rt"": 1528, ""trial_type"": ""face-likert-amanda"", ""debug_mode"": ""live"", ""task_type"": ""face trials"", ""responses"": ""{\""Q0\"":4}"", ""task_payment"": 1, ""task_version"": 1, ""internal_node_id"": ""0.0-10.0-0.0-9.0"", ""time_elapsed"": 241588, ""imgName"": ""/static/images/modifAE_linspace/intelligent/136262_0.43939393939393945.png"", ""questions"": ""[{\""prompt\"":\""<p>How <b>intelligent</b> does this person look to <b>most people</b>? Rate from 1-9</p>\"",\""labels\"":[\""1 <br/><b>Not intelligent at all</b>\"",\""2\"",\""3\"",\""4\"",\""5\"",\""6\"",\""7\"",\""8\"",\""9  <br/><b>Extremely intelligent</b>\""],\""required\"":true}]"", ""task_unique_trial"": 100, ""task_name"": ""intelligent-modifae-single"", ""trial_index"": 99, ""isRepeat"": 0}"
A35P8YSNTQ7OTP:3VJ40NV2QKUQZLMFO21W78PSDDYTO7,100,1548066080431,"{""rt"": null, ""trial_type"": ""html-keyboard-response"", ""task_unique_trial"": 100, ""stimulus"": ""<p>Good job!</p>"", ""task_version"": 1, ""internal_node_id"": ""0.0-10.0-1.0"", ""task_payment"": 1, ""time_elapsed"": 243095, ""debug_mode"": ""live"", ""key_press"": null, ""task_name"": ""intelligent-modifae-single"", ""trial_index"": 100}"
A35P8YSNTQ7OTP:3VJ40NV2QKUQZLMFO21W78PSDDYTO7,101,1548066082084,"{""rt"": 1644, ""trial_type"": ""face-likert-amanda"", ""debug_mode"": ""live"", ""task_type"": ""face trials"", ""responses"": ""{\""Q0\"":4}"", ""task_payment"": 1, ""task_version"": 1, ""internal_node_id"": ""0.0-11.0-0.0-0.0"", ""time_elapsed"": 244748, ""imgName"": ""/static/images/modifAE_linspace/intelligent/136249_0.3080808080808082.png"", ""questions"": ""[{\""prompt\"":\""<p>How <b>intelligent</b> does this person look to <b>most people</b>? Rate from 1-9</p>\"",\""labels\"":[\""1 <br/><b>Not intelligent at all</b>\"",\""2\"",\""3\"",\""4\"",\""5\"",\""6\"",\""7\"",\""8\"",\""9  <br/><b>Extremely intelligent</b>\""],\""required\"":true}]"", ""task_unique_trial"": 100, ""task_name"": ""intelligent-modifae-single"", ""trial_index"": 101, ""isRepeat"": 0}"
A35P8YSNTQ7OTP:3VJ40NV2QKUQZLMFO21W78PSDDYTO7,102,1548066083620,"{""rt"": 1530, ""trial_type"": ""face-likert-amanda"", ""debug_mode"": ""live"", ""task_type"": ""face trials"", ""responses"": ""{\""Q0\"":4}"", ""task_payment"": 1, ""task_version"": 1, ""internal_node_id"": ""0.0-11.0-0.0-1.0"", ""time_elapsed"": 246286, ""imgName"": ""/static/images/modifAE_linspace/intelligent/136216_-0.025252525252525193.png"", ""questions"": ""[{\""prompt\"":\""<p>How <b>intelligent</b> does this person look to <b>most people</b>? Rate from 1-9</p>\"",\""labels\"":[\""1 <br/><b>Not intelligent at all</b>\"",\""2\"",\""3\"",\""4\"",\""5\"",\""6\"",\""7\"",\""8\"",\""9  <br/><b>Extremely intelligent</b>\""],\""required\"":true}]"", ""task_unique_trial"": 100, ""task_name"": ""intelligent-modifae-single"", ""trial_index"": 102, ""isRepeat"": 0}"
A35P8YSNTQ7OTP:3VJ40NV2QKUQZLMFO21W78PSDDYTO7,103,1548066085576,"{""rt"": 1952, ""trial_type"": ""face-likert-amanda"", ""debug_mode"": ""live"", ""task_type"": ""face trials"", ""responses"": ""{\""Q0\"":4}"", ""task_payment"": 1, ""task_version"": 1, ""internal_node_id"": ""0.0-11.0-0.0-2.0"", ""time_elapsed"": 248241, ""imgName"": ""/static/images/modifAE_linspace/intelligent/136181_-0.3787878787878788.png"", ""questions"": ""[{\""prompt\"":\""<p>How <b>intelligent</b> does this person look to <b>most people</b>? Rate from 1-9</p>\"",\""labels\"":[\""1 <br/><b>Not intelligent at all</b>\"",\""2\"",\""3\"",\""4\"",\""5\"",\""6\"",\""7\"",\""8\"",\""9  <br/><b>Extremely intelligent</b>\""],\""required\"":true}]"", ""task_unique_trial"": 100, ""task_name"": ""intelligent-modifae-single"", ""trial_index"": 103, ""isRepeat"": 0}"
A35P8YSNTQ7OTP:3VJ40NV2QKUQZLMFO21W78PSDDYTO7,104,1548066088690,"{""rt"": 3108, ""trial_type"": ""face-likert-amanda"", ""debug_mode"": ""live"", ""task_type"": ""face trials"", ""responses"": ""{\""Q0\"":4}"", ""task_payment"": 1, ""task_version"": 1, ""internal_node_id"": ""0.0-11.0-0.0-3.0"", ""time_elapsed"": 251356, ""imgName"": ""/static/images/modifAE_linspace/intelligent/136206_-0.12626262626262624.png"", ""questions"": ""[{\""prompt\"":\""<p>How <b>intelligent</b> does this person look to <b>most people</b>? Rate from 1-9</p>\"",\""labels\"":[\""1 <br/><b>Not intelligent at all</b>\"",\""2\"",\""3\"",\""4\"",\""5\"",\""6\"",\""7\"",\""8\"",\""9  <br/><b>Extremely intelligent</b>\""],\""required\"":true}]"", ""task_unique_trial"": 100, ""task_name"": ""intelligent-modifae-single"", ""trial_index"": 104, ""isRepeat"": 0}"
A35P8YSNTQ7OTP:3VJ40NV2QKUQZLMFO21W78PSDDYTO7,105,1548066090379,"{""rt"": 1684, ""trial_type"": ""face-likert-amanda"", ""debug_mode"": ""live"", ""task_type"": ""face trials"", ""responses"": ""{\""Q0\"":4}"", ""task_payment"": 1, ""task_version"": 1, ""internal_node_id"": ""0.0-11.0-0.0-4.0"", ""time_elapsed"": 253045, ""imgName"": ""/static/images/modifAE_linspace/intelligent/136263_0.4494949494949496.png"", ""questions"": ""[{\""prompt\"":\""<p>How <b>intelligent</b> does this person look to <b>most people</b>? Rate from 1-9</p>\"",\""labels\"":[\""1 <br/><b>Not intelligent at all</b>\"",\""2\"",\""3\"",\""4\"",\""5\"",\""6\"",\""7\"",\""8\"",\""9  <br/><b>Extremely intelligent</b>\""],\""required\"":true}]"", ""task_unique_trial"": 100, ""task_name"": ""intelligent-modifae-single"", ""trial_index"": 105, ""isRepeat"": 0}"
A35P8YSNTQ7OTP:3VJ40NV2QKUQZLMFO21W78PSDDYTO7,106,1548066092451,"{""rt"": 2067, ""trial_type"": ""face-likert-amanda"", ""debug_mode"": ""live"", ""task_type"": ""face trials"", ""responses"": ""{\""Q0\"":4}"", ""task_payment"": 1, ""task_version"": 1, ""internal_node_id"": ""0.0-11.0-0.0-5.0"", ""time_elapsed"": 255117, ""imgName"": ""/static/images/modifAE_linspace/intelligent/136177_-0.41919191919191917.png"", ""questions"": ""[{\""prompt\"":\""<p>How <b>intelligent</b> does this person look to <b>most people</b>? Rate from 1-9</p>\"",\""labels\"":[\""1 <br/><b>Not intelligent at all</b>\"",\""2\"",\""3\"",\""4\"",\""5\"",\""6\"",\""7\"",\""8\"",\""9  <br/><b>Extremely intelligent</b>\""],\""required\"":true}]"", ""task_unique_trial"": 100, ""task_name"": ""intelligent-modifae-single"", ""trial_index"": 106, ""isRepeat"": 0}"
A35P8YSNTQ7OTP:3VJ40NV2QKUQZLMFO21W78PSDDYTO7,107,1548066094434,"{""rt"": 1976, ""trial_type"": ""face-likert-amanda"", ""debug_mode"": ""live"", ""task_type"": ""face trials"", ""responses"": ""{\""Q0\"":4}"", ""task_payment"": 1, ""task_version"": 1, ""internal_node_id"": ""0.0-11.0-0.0-6.0"", ""time_elapsed"": 257099, ""imgName"": ""/static/images/modifAE_linspace/intelligent/136208_-0.10606060606060602.png"", ""questions"": ""[{\""prompt\"":\""<p>How <b>intelligent</b> does this person look to <b>most people</b>? Rate from 1-9</p>\"",\""labels\"":[\""1 <br/><b>Not intelligent at all</b>\"",\""2\"",\""3\"",\""4\"",\""5\"",\""6\"",\""7\"",\""8\"",\""9  <br/><b>Extremely intelligent</b>\""],\""required\"":true}]"", ""task_unique_trial"": 100, ""task_name"": ""intelligent-modifae-single"", ""trial_index"": 107, ""isRepeat"": 0}"
A35P8YSNTQ7OTP:3VJ40NV2QKUQZLMFO21W78PSDDYTO7,108,1548066096321,"{""rt"": 1881, ""trial_type"": ""face-likert-amanda"", ""debug_mode"": ""live"", ""task_type"": ""face trials"", ""responses"": ""{\""Q0\"":4}"", ""task_payment"": 1, ""task_version"": 1, ""internal_node_id"": ""0.0-11.0-0.0-7.0"", ""time_elapsed"": 258986, ""imgName"": ""/static/images/modifAE_linspace/intelligent/136241_0.2272727272727273.png"", ""questions"": ""[{\""prompt\"":\""<p>How <b>intelligent</b> does this person look to <b>most people</b>? Rate from 1-9</p>\"",\""labels\"":[\""1 <br/><b>Not intelligent at all</b>\"",\""2\"",\""3\"",\""4\"",\""5\"",\""6\"",\""7\"",\""8\"",\""9  <br/><b>Extremely intelligent</b>\""],\""required\"":true}]"", ""task_unique_trial"": 100, ""task_name"": ""intelligent-modifae-single"", ""trial_index"": 108, ""isRepeat"": 0}"
A35P8YSNTQ7OTP:3VJ40NV2QKUQZLMFO21W78PSDDYTO7,109,1548066098016,"{""rt"": 1690, ""trial_type"": ""face-likert-amanda"", ""debug_mode"": ""live"", ""task_type"": ""face trials"", ""responses"": ""{\""Q0\"":4}"", ""task_payment"": 1, ""task_version"": 1, ""internal_node_id"": ""0.0-11.0-0.0-8.0"", ""time_elapsed"": 260681, ""imgName"": ""/static/images/modifAE_linspace/intelligent/136226_0.0757575757575758.png"", ""questions"": ""[{\""prompt\"":\""<p>How <b>intelligent</b> does this person look to <b>most people</b>? Rate from 1-9</p>\"",\""labels\"":[\""1 <br/><b>Not intelligent at all</b>\"",\""2\"",\""3\"",\""4\"",\""5\"",\""6\"",\""7\"",\""8\"",\""9  <br/><b>Extremely intelligent</b>\""],\""required\"":true}]"", ""task_unique_trial"": 100, ""task_name"": ""intelligent-modifae-single"", ""trial_index"": 109, ""isRepeat"": 0}"
A35P8YSNTQ7OTP:3VJ40NV2QKUQZLMFO21W78PSDDYTO7,110,1548066099742,"{""rt"": 1719, ""trial_type"": ""face-likert-amanda"", ""debug_mode"": ""live"", ""task_type"": ""face trials"", ""responses"": ""{\""Q0\"":4}"", ""task_payment"": 1, ""task_version"": 1, ""internal_node_id"": ""0.0-11.0-0.0-9.0"", ""time_elapsed"": 262405, ""imgName"": ""/static/images/modifAE_linspace/intelligent/136198_-0.20707070707070707.png"", ""questions"": ""[{\""prompt\"":\""<p>How <b>intelligent</b> does this person look to <b>most people</b>? Rate from 1-9</p>\"",\""labels\"":[\""1 <br/><b>Not intelligent at all</b>\"",\""2\"",\""3\"",\""4\"",\""5\"",\""6\"",\""7\"",\""8\"",\""9  <br/><b>Extremely intelligent</b>\""],\""required\"":true}]"", ""task_unique_trial"": 100, ""task_name"": ""intelligent-modifae-single"", ""trial_index"": 110, ""isRepeat"": 0}"
A35P8YSNTQ7OTP:3VJ40NV2QKUQZLMFO21W78PSDDYTO7,111,1548066101749,"{""rt"": null, ""trial_type"": ""html-keyboard-response"", ""task_unique_trial"": 100, ""stimulus"": ""<p>Good job!</p>"", ""task_version"": 1, ""internal_node_id"": ""0.0-11.0-1.0"", ""task_payment"": 1, ""time_elapsed"": 264412, ""debug_mode"": ""live"", ""key_press"": null, ""task_name"": ""intelligent-modifae-single"", ""trial_index"": 111}"
A35P8YSNTQ7OTP:3VJ40NV2QKUQZLMFO21W78PSDDYTO7,112,1548066117565,"{""rt"": 15812, ""trial_type"": ""survey-text-req"", ""task_type"": ""feedback for HIT"", ""responses"": ""{\""Q0\"":\""its piontless crap.\""}"", ""task_payment"": 1, ""task_version"": 1, ""internal_node_id"": ""0.0-12.0"", ""time_elapsed"": 280231, ""debug_mode"": ""live"", ""task_name"": ""intelligent-modifae-single"", ""task_unique_trial"": 100, ""trial_index"": 112}"
A1P0M5D9IGZIDK:34PGFRQONQI4QRZC3UE2MWF5ID6WJH,0,1548065857103,"{""rt"": 30210, ""trial_type"": ""instructions"", ""view_history"": ""[{\""page_index\"":0,\""viewing_time\"":7708},{\""page_index\"":1,\""viewing_time\"":15301},{\""page_index\"":2,\""viewing_time\"":7200}]"", ""task_type"": ""instruction"", ""task_payment"": 1, ""task_version"": 1, ""internal_node_id"": ""0.0-0.0"", ""time_elapsed"": 30214, ""debug_mode"": ""live"", ""task_name"": ""intelligent-modifae-single"", ""task_unique_trial"": 100, ""trial_index"": 0}"
A1P0M5D9IGZIDK:34PGFRQONQI4QRZC3UE2MWF5ID6WJH,1,1548065883247,"{""rt"": 26116, ""trial_type"": ""survey-multi-choice"", ""task_type"": ""demographic-multichoice"", ""responses"": ""{\""Q0\"":\""18-25\"",\""Q1\"":\""Male\"",\""Q2\"":\""No\"",\""Q3\"":\""2\"",\""Q4\"":\""White\"",\""Q5\"":\""Some college, no degree\"",\""Q6\"":\""$50,000 - $74,999\""}"", ""task_payment"": 1, ""task_version"": 1, ""time_elapsed"": 56359, ""sanity_check_1_continue"": true, ""random_num"": 2, ""debug_mode"": ""live"", ""questions"": ""[{\""prompt\"":\""What is your age?\"",\""options\"":[\""Under 18\"",\""18-25\"",\""26-35\"",\""36-45\"",\""46-55\"",\""56+\""],\""required\"":true},{\""prompt\"":\""What is your gender?\"",\""options\"":[\""Male\"",\""Female\"",\""Other/Prefer not to say\""],\""required\"":true},{\""prompt\"":\""Are you of Hispanic, Latino, or Spanish origin?\"",\""options\"":[\""Yes\"",\""No\""],\""required\"":true},{\""prompt\"":\""Please choose the option that matches the number here: 2\"",\""options\"":[\""1\"",\""2\"",\""3\"",\""4\""],\""required\"":true},{\""prompt\"":\""How would you describe yourself?\"",\""options\"":[\""American Indian or Alaskan Native\"",\""Asian\"",\""Black or African-American\"",\""Native Hawaiian or Other Pacific Islander\"",\""White\""],\""required\"":true},{\""prompt\"":\""What is the highest degree or level of school you have completed? (If you&#8217;re currently enrolled in school, please indicate the highest degree you have received)\"",\""options\"":[\""Less than a high school diploma\"",\""High school degree or equivalent (e.g. GED)\"",\""Some college, no degree\"",\""Associate degree (e.g. AA, AS)\"",\""Bachelor&#8217;s degree (e.g. BA, BS) or above\""],\""required\"":true},{\""prompt\"":\""What is the total income of all members of your household?\"",\""options\"":[\""Less than $20,000\"",\""$20,000  - $49,999\"",\""$50,000 - $74,999\"",\""$75,000 and above\""],\""required\"":true}]"", ""internal_node_id"": ""0.0-1.0-0.0"", ""task_unique_trial"": 100, ""task_name"": ""intelligent-modifae-single"", ""trial_index"": 1}"
A1P0M5D9IGZIDK:34PGFRQONQI4QRZC3UE2MWF5ID6WJH,2,1548065890613,"{""rt"": 7363, ""trial_type"": ""face-likert-amanda"", ""debug_mode"": ""live"", ""task_type"": ""face trials"", ""responses"": ""{\""Q0\"":1}"", ""task_payment"": 1, ""task_version"": 1, ""internal_node_id"": ""0.0-2.0-0.0-0.0"", ""time_elapsed"": 63725, ""imgName"": ""/static/images/modifAE_linspace/intelligent/136223_0.045454545454545525.png"", ""questions"": ""[{\""prompt\"":\""<p>How <b>intelligent</b> does this person look to <b>most people</b>? Rate from 1-9</p>\"",\""labels\"":[\""1 <br/><b>Not intelligent at all</b>\"",\""2\"",\""3\"",\""4\"",\""5\"",\""6\"",\""7\"",\""8\"",\""9  <br/><b>Extremely intelligent</b>\""],\""required\"":true}]"", ""task_unique_trial"": 100, ""task_name"": ""intelligent-modifae-single"", ""trial_index"": 2, ""isRepeat"": 0}"
A1P0M5D9IGZIDK:34PGFRQONQI4QRZC3UE2MWF5ID6WJH,3,1548065895732,"{""rt"": 5115, ""trial_type"": ""face-likert-amanda"", ""debug_mode"": ""live"", ""task_type"": ""face trials"", ""responses"": ""{\""Q0\"":4}"", ""task_payment"": 1, ""task_version"": 1, ""internal_node_id"": ""0.0-2.0-0.0-1.0"", ""time_elapsed"": 68844, ""imgName"": ""/static/images/modifAE_linspace/intelligent/136264_0.45959595959595967.png"", ""questions"": ""[{\""prompt\"":\""<p>How <b>intelligent</b> does this person look to <b>most people</b>? Rate from 1-9</p>\"",\""labels\"":[\""1 <br/><b>Not intelligent at all</b>\"",\""2\"",\""3\"",\""4\"",\""5\"",\""6\"",\""7\"",\""8\"",\""9  <br/><b>Extremely intelligent</b>\""],\""required\"":true}]"", ""task_unique_trial"": 100, ""task_name"": ""intelligent-modifae-single"", ""trial_index"": 3, ""isRepeat"": 0}"
A1P0M5D9IGZIDK:34PGFRQONQI4QRZC3UE2MWF5ID6WJH,4,1548065900019,"{""rt"": 4283, ""trial_type"": ""face-likert-amanda"", ""debug_mode"": ""live"", ""task_type"": ""face trials"", ""responses"": ""{\""Q0\"":7}"", ""task_payment"": 1, ""task_version"": 1, ""internal_node_id"": ""0.0-2.0-0.0-2.0"", ""time_elapsed"": 73131, ""imgName"": ""/static/images/modifAE_linspace/intelligent/136181_-0.3787878787878788.png"", ""questions"": ""[{\""prompt\"":\""<p>How <b>intelligent</b> does this person look to <b>most people</b>? Rate from 1-9</p>\"",\""labels\"":[\""1 <br/><b>Not intelligent at all</b>\"",\""2\"",\""3\"",\""4\"",\""5\"",\""6\"",\""7\"",\""8\"",\""9  <br/><b>Extremely intelligent</b>\""],\""required\"":true}]"", ""task_unique_trial"": 100, ""task_name"": ""intelligent-modifae-single"", ""trial_index"": 4, ""isRepeat"": 0}"
A1P0M5D9IGZIDK:34PGFRQONQI4QRZC3UE2MWF5ID6WJH,5,1548065904706,"{""rt"": 4684, ""trial_type"": ""face-likert-amanda"", ""debug_mode"": ""live"", ""task_type"": ""face trials"", ""responses"": ""{\""Q0\"":1}"", ""task_payment"": 1, ""task_version"": 1, ""internal_node_id"": ""0.0-2.0-0.0-3.0"", ""time_elapsed"": 77818, ""imgName"": ""/static/images/modifAE_linspace/intelligent/136227_0.08585858585858586.png"", ""questions"": ""[{\""prompt\"":\""<p>How <b>intelligent</b> does this person look to <b>most people</b>? Rate from 1-9</p>\"",\""labels\"":[\""1 <br/><b>Not intelligent at all</b>\"",\""2\"",\""3\"",\""4\"",\""5\"",\""6\"",\""7\"",\""8\"",\""9  <br/><b>Extremely intelligent</b>\""],\""required\"":true}]"", ""task_unique_trial"": 100, ""task_name"": ""intelligent-modifae-single"", ""trial_index"": 5, ""isRepeat"": 0}"
A1P0M5D9IGZIDK:34PGFRQONQI4QRZC3UE2MWF5ID6WJH,6,1548065908827,"{""rt"": 4119, ""trial_type"": ""face-likert-amanda"", ""debug_mode"": ""live"", ""task_type"": ""face trials"", ""responses"": ""{\""Q0\"":4}"", ""task_payment"": 1, ""task_version"": 1, ""internal_node_id"": ""0.0-2.0-0.0-4.0"", ""time_elapsed"": 81939, ""imgName"": ""/static/images/modifAE_linspace/intelligent/136203_-0.15656565656565652.png"", ""questions"": ""[{\""prompt\"":\""<p>How <b>intelligent</b> does this person look to <b>most people</b>? Rate from 1-9</p>\"",\""labels\"":[\""1 <br/><b>Not intelligent at all</b>\"",\""2\"",\""3\"",\""4\"",\""5\"",\""6\"",\""7\"",\""8\"",\""9  <br/><b>Extremely intelligent</b>\""],\""required\"":true}]"", ""task_unique_trial"": 100, ""task_name"": ""intelligent-modifae-single"", ""trial_index"": 6, ""isRepeat"": 0}"
A1P0M5D9IGZIDK:34PGFRQONQI4QRZC3UE2MWF5ID6WJH,7,1548065912085,"{""rt"": 3255, ""trial_type"": ""face-likert-amanda"", ""debug_mode"": ""live"", ""task_type"": ""face trials"", ""responses"": ""{\""Q0\"":4}"", ""task_payment"": 1, ""task_version"": 1, ""internal_node_id"": ""0.0-2.0-0.0-5.0"", ""time_elapsed"": 85197, ""imgName"": ""/static/images/modifAE_linspace/intelligent/136263_0.4494949494949496.png"", ""questions"": ""[{\""prompt\"":\""<p>How <b>intelligent</b> does this person look to <b>most people</b>? Rate from 1-9</p>\"",\""labels\"":[\""1 <br/><b>Not intelligent at all</b>\"",\""2\"",\""3\"",\""4\"",\""5\"",\""6\"",\""7\"",\""8\"",\""9  <br/><b>Extremely intelligent</b>\""],\""required\"":true}]"", ""task_unique_trial"": 100, ""task_name"": ""intelligent-modifae-single"", ""trial_index"": 7, ""isRepeat"": 0}"
A1P0M5D9IGZIDK:34PGFRQONQI4QRZC3UE2MWF5ID6WJH,8,1548065915807,"{""rt"": 3718, ""trial_type"": ""face-likert-amanda"", ""debug_mode"": ""live"", ""task_type"": ""face trials"", ""responses"": ""{\""Q0\"":4}"", ""task_payment"": 1, ""task_version"": 1, ""internal_node_id"": ""0.0-2.0-0.0-6.0"", ""time_elapsed"": 88918, ""imgName"": ""/static/images/modifAE_linspace/intelligent/136201_-0.17676767676767674.png"", ""questions"": ""[{\""prompt\"":\""<p>How <b>intelligent</b> does this person look to <b>most people</b>? Rate from 1-9</p>\"",\""labels\"":[\""1 <br/><b>Not intelligent at all</b>\"",\""2\"",\""3\"",\""4\"",\""5\"",\""6\"",\""7\"",\""8\"",\""9  <br/><b>Extremely intelligent</b>\""],\""required\"":true}]"", ""task_unique_trial"": 100, ""task_name"": ""intelligent-modifae-single"", ""trial_index"": 8, ""isRepeat"": 0}"
