,subId,rt,imgName,isRepeat,rating,trial_index,debug_mode
0,A2FLZP3C6U67JY:3JZQSN0I3SHSO3NG5ZJZLV1OI47GF0,4758,/static/images/2kfaces/Google_1_Valerie Noble_9_oval.jpg,0,5,6,live
1,A2FLZP3C6U67JY:3JZQSN0I3SHSO3NG5ZJZLV1OI47GF0,3110,/static/images/2kfaces/Bryan_Shanklin_9_oval.jpg,0,3,7,live
2,A2FLZP3C6U67JY:3JZQSN0I3SHSO3NG5ZJZLV1OI47GF0,4487,/static/images/2kfaces/Google_1_Russell Gillam_17_oval.jpg,0,7,8,live
3,A2FLZP3C6U67JY:3JZQSN0I3SHSO3NG5ZJZLV1OI47GF0,3646,/static/images/2kfaces/Google_1_Samuel Goff_1_oval.jpg,0,2,9,live
4,A2FLZP3C6U67JY:3JZQSN0I3SHSO3NG5ZJZLV1OI47GF0,3910,/static/images/2kfaces/Alice_Mckellar_11_oval.jpg,0,7,10,live
5,A2FLZP3C6U67JY:3JZQSN0I3SHSO3NG5ZJZLV1OI47GF0,3782,/static/images/2kfaces/Google_1_Ronald Driver_19_oval.jpg,0,6,11,live
6,A2FLZP3C6U67JY:3JZQSN0I3SHSO3NG5ZJZLV1OI47GF0,2477,/static/images/2kfaces/Google_1_Frank Luke_9_oval.jpg,0,3,12,live
7,A2FLZP3C6U67JY:3JZQSN0I3SHSO3NG5ZJZLV1OI47GF0,2678,/static/images/2kfaces/Google_1_Gary Nance_3_oval.jpg,0,6,13,live
8,A2FLZP3C6U67JY:3JZQSN0I3SHSO3NG5ZJZLV1OI47GF0,2967,/static/images/2kfaces/Google_1_Shelley Lund_5_oval.jpg,0,5,14,live
9,A2FLZP3C6U67JY:3JZQSN0I3SHSO3NG5ZJZLV1OI47GF0,3087,/static/images/2kfaces/Google_1_Alma Poor_7_oval.jpg,0,8,15,live
10,A2FLZP3C6U67JY:3JZQSN0I3SHSO3NG5ZJZLV1OI47GF0,4842,/static/images/2kfaces/Google_1_Henry Gumm_19_oval.jpg,0,7,17,live
11,A2FLZP3C6U67JY:3JZQSN0I3SHSO3NG5ZJZLV1OI47GF0,5661,/static/images/2kfaces/Google_1_Ryan Marvel_15_oval.jpg,0,8,18,live
12,A2FLZP3C6U67JY:3JZQSN0I3SHSO3NG5ZJZLV1OI47GF0,3861,/static/images/2kfaces/Google_1_Florence Melton_1_oval.jpg,0,3,19,live
13,A2FLZP3C6U67JY:3JZQSN0I3SHSO3NG5ZJZLV1OI47GF0,2813,/static/images/2kfaces/Google_1_Gertrude Bayne_11_oval.jpg,0,2,20,live
14,A2FLZP3C6U67JY:3JZQSN0I3SHSO3NG5ZJZLV1OI47GF0,2926,/static/images/2kfaces/Google_1_Norman Westfall_5_oval.jpg,0,3,21,live
15,A2FLZP3C6U67JY:3JZQSN0I3SHSO3NG5ZJZLV1OI47GF0,2223,/static/images/2kfaces/Google_1_Paul Horst_15_oval.jpg,0,5,22,live
16,A2FLZP3C6U67JY:3JZQSN0I3SHSO3NG5ZJZLV1OI47GF0,11302,/static/images/2kfaces/Google_1_Sherry Mcmichael_11_oval.jpg,0,6,23,live
17,A2FLZP3C6U67JY:3JZQSN0I3SHSO3NG5ZJZLV1OI47GF0,2196,/static/images/2kfaces/Google_1_Gregory Arriola_3_oval.jpg,0,4,24,live
18,A2FLZP3C6U67JY:3JZQSN0I3SHSO3NG5ZJZLV1OI47GF0,3055,/static/images/2kfaces/Google_1_Sarah Woodcock_3_oval.jpg,0,5,25,live
19,A2FLZP3C6U67JY:3JZQSN0I3SHSO3NG5ZJZLV1OI47GF0,3118,/static/images/2kfaces/Google_1_Jonathan Marek_5_oval.jpg,0,5,26,live
20,A2FLZP3C6U67JY:3JZQSN0I3SHSO3NG5ZJZLV1OI47GF0,2698,/static/images/2kfaces/Google_1_Kenneth Rigsby_15_oval.jpg,0,3,28,live
21,A2FLZP3C6U67JY:3JZQSN0I3SHSO3NG5ZJZLV1OI47GF0,6583,/static/images/2kfaces/Google_1_Marjorie Rule_3_oval.jpg,0,5,29,live
22,A2FLZP3C6U67JY:3JZQSN0I3SHSO3NG5ZJZLV1OI47GF0,3534,/static/images/2kfaces/Google_1_Steve Stamm_1_oval.jpg,0,7,30,live
23,A2FLZP3C6U67JY:3JZQSN0I3SHSO3NG5ZJZLV1OI47GF0,4358,/static/images/2kfaces/Google_1_Vera Becker_5_oval.jpg,0,4,31,live
24,A2FLZP3C6U67JY:3JZQSN0I3SHSO3NG5ZJZLV1OI47GF0,2454,/static/images/2kfaces/Google_1_Mark Houser_17_oval.jpg,0,5,32,live
25,A2FLZP3C6U67JY:3JZQSN0I3SHSO3NG5ZJZLV1OI47GF0,7214,/static/images/2kfaces/Google_1_Carole Bentley_7_oval.jpg,0,7,33,live
26,A2FLZP3C6U67JY:3JZQSN0I3SHSO3NG5ZJZLV1OI47GF0,2662,/static/images/2kfaces/Google_1_Sara Guajardo_1_oval.jpg,0,5,34,live
27,A2FLZP3C6U67JY:3JZQSN0I3SHSO3NG5ZJZLV1OI47GF0,4566,/static/images/2kfaces/Google_1_Antonio Benn_12_oval.jpg,0,5,35,live
28,A2FLZP3C6U67JY:3JZQSN0I3SHSO3NG5ZJZLV1OI47GF0,3238,/static/images/2kfaces/Google_1_Claudia Rohrer_13_oval.jpg,0,2,36,live
29,A2FLZP3C6U67JY:3JZQSN0I3SHSO3NG5ZJZLV1OI47GF0,2821,/static/images/2kfaces/Google_1_Eric Osuna_3_oval.jpg,0,5,37,live
30,A2FLZP3C6U67JY:3JZQSN0I3SHSO3NG5ZJZLV1OI47GF0,2384,/static/images/2kfaces/Google_1_Gloria Canada_13_oval.jpg,0,4,39,live
31,A2FLZP3C6U67JY:3JZQSN0I3SHSO3NG5ZJZLV1OI47GF0,3025,/static/images/2kfaces/Google_1_Donna Asberry_5_oval.jpg,0,5,40,live
32,A2FLZP3C6U67JY:3JZQSN0I3SHSO3NG5ZJZLV1OI47GF0,2454,/static/images/2kfaces/Google_1_Frank Whitehouse_3_oval.jpg,0,4,41,live
33,A2FLZP3C6U67JY:3JZQSN0I3SHSO3NG5ZJZLV1OI47GF0,3045,/static/images/2kfaces/Google_1_Samuel Paschal_17_oval.jpg,0,3,42,live
34,A2FLZP3C6U67JY:3JZQSN0I3SHSO3NG5ZJZLV1OI47GF0,2150,/static/images/2kfaces/Google_1_Eva Kirkman_15_oval.jpg,0,4,43,live
35,A2FLZP3C6U67JY:3JZQSN0I3SHSO3NG5ZJZLV1OI47GF0,2286,/static/images/2kfaces/Google_1_Timothy Galvan_11_oval.jpg,0,5,44,live
36,A2FLZP3C6U67JY:3JZQSN0I3SHSO3NG5ZJZLV1OI47GF0,2742,/static/images/2kfaces/Google_1_Bryan Brunner_3_oval.jpg,0,5,45,live
37,A2FLZP3C6U67JY:3JZQSN0I3SHSO3NG5ZJZLV1OI47GF0,2518,/static/images/2kfaces/Google_1_Matthew Vanbuskirk_1_oval.jpg,0,5,46,live
38,A2FLZP3C6U67JY:3JZQSN0I3SHSO3NG5ZJZLV1OI47GF0,2527,/static/images/2kfaces/Google_1_Ernest Crump_3_oval.jpg,0,6,47,live
39,A2FLZP3C6U67JY:3JZQSN0I3SHSO3NG5ZJZLV1OI47GF0,2143,/static/images/2kfaces/Google_1_Louis Mceachern_7_oval.jpg,0,4,48,live
40,A2FLZP3C6U67JY:3JZQSN0I3SHSO3NG5ZJZLV1OI47GF0,3756,/static/images/2kfaces/Google_1_Kathleen Sartain_1_oval.jpg,0,6,50,live
41,A2FLZP3C6U67JY:3JZQSN0I3SHSO3NG5ZJZLV1OI47GF0,3198,/static/images/2kfaces/Google_1_Andrew Diggs_9_oval.jpg,0,4,51,live
42,A2FLZP3C6U67JY:3JZQSN0I3SHSO3NG5ZJZLV1OI47GF0,2372,/static/images/2kfaces/Google_1_Kenneth Cabral_19_oval.jpg,0,5,52,live
43,A2FLZP3C6U67JY:3JZQSN0I3SHSO3NG5ZJZLV1OI47GF0,2406,/static/images/2kfaces/Google_1_Tina Middleton_7_oval.jpg,0,5,53,live
44,A2FLZP3C6U67JY:3JZQSN0I3SHSO3NG5ZJZLV1OI47GF0,2695,/static/images/2kfaces/Google_1_Erika Fletcher_1_oval.jpg,0,7,54,live
45,A2FLZP3C6U67JY:3JZQSN0I3SHSO3NG5ZJZLV1OI47GF0,2157,/static/images/2kfaces/Google_1_Douglas Tanguay_9_oval.jpg,0,5,55,live
46,A2FLZP3C6U67JY:3JZQSN0I3SHSO3NG5ZJZLV1OI47GF0,2837,/static/images/2kfaces/Google_1_Cheryl Griffin_15_oval.jpg,0,8,56,live
47,A2FLZP3C6U67JY:3JZQSN0I3SHSO3NG5ZJZLV1OI47GF0,3390,/static/images/2kfaces/Google_1_Paul Reno_1_oval.jpg,0,4,57,live
48,A2FLZP3C6U67JY:3JZQSN0I3SHSO3NG5ZJZLV1OI47GF0,2022,/static/images/2kfaces/Google_1_Gary Perri_3_oval.jpg,0,4,58,live
49,A2FLZP3C6U67JY:3JZQSN0I3SHSO3NG5ZJZLV1OI47GF0,2143,/static/images/2kfaces/Google_1_Cindy Morehead_5_oval.jpg,0,4,59,live
50,A2FLZP3C6U67JY:3JZQSN0I3SHSO3NG5ZJZLV1OI47GF0,2094,/static/images/2kfaces/Google_1_Jonathan Marek_5_oval.jpg,1,5,63,live
51,A2FLZP3C6U67JY:3JZQSN0I3SHSO3NG5ZJZLV1OI47GF0,4950,/static/images/2kfaces/Google_1_Steve Stamm_1_oval.jpg,1,7,64,live
52,A2FLZP3C6U67JY:3JZQSN0I3SHSO3NG5ZJZLV1OI47GF0,2493,/static/images/2kfaces/Google_1_Kathleen Sartain_1_oval.jpg,1,6,65,live
53,A2FLZP3C6U67JY:3JZQSN0I3SHSO3NG5ZJZLV1OI47GF0,3125,/static/images/2kfaces/Google_1_Timothy Galvan_11_oval.jpg,1,5,66,live
54,A2FLZP3C6U67JY:3JZQSN0I3SHSO3NG5ZJZLV1OI47GF0,2581,/static/images/2kfaces/Google_1_Carole Bentley_7_oval.jpg,1,6,67,live
55,A2FLZP3C6U67JY:3JZQSN0I3SHSO3NG5ZJZLV1OI47GF0,2158,/static/images/2kfaces/Google_1_Eva Kirkman_15_oval.jpg,1,5,68,live
56,A2FLZP3C6U67JY:3JZQSN0I3SHSO3NG5ZJZLV1OI47GF0,3933,/static/images/2kfaces/Google_1_Sarah Woodcock_3_oval.jpg,1,6,69,live
57,A2FLZP3C6U67JY:3JZQSN0I3SHSO3NG5ZJZLV1OI47GF0,3765,/static/images/2kfaces/Google_1_Frank Luke_9_oval.jpg,1,3,70,live
58,A2FLZP3C6U67JY:3JZQSN0I3SHSO3NG5ZJZLV1OI47GF0,5325,/static/images/2kfaces/Google_1_Gary Nance_3_oval.jpg,1,6,71,live
59,A2FLZP3C6U67JY:3JZQSN0I3SHSO3NG5ZJZLV1OI47GF0,2751,/static/images/2kfaces/Google_1_Alma Poor_7_oval.jpg,1,8,72,live
60,A2FLZP3C6U67JY:3JZQSN0I3SHSO3NG5ZJZLV1OI47GF0,2854,/static/images/2kfaces/Google_1_Gary Perri_3_oval.jpg,1,4,74,live
61,A2FLZP3C6U67JY:3JZQSN0I3SHSO3NG5ZJZLV1OI47GF0,2876,/static/images/2kfaces/Google_1_Antonio Benn_12_oval.jpg,1,5,75,live
62,A2FLZP3C6U67JY:3JZQSN0I3SHSO3NG5ZJZLV1OI47GF0,2589,/static/images/2kfaces/Google_1_Gertrude Bayne_11_oval.jpg,1,3,76,live
63,A2FLZP3C6U67JY:3JZQSN0I3SHSO3NG5ZJZLV1OI47GF0,2246,/static/images/2kfaces/Google_1_Tina Middleton_7_oval.jpg,1,5,77,live
64,A2FLZP3C6U67JY:3JZQSN0I3SHSO3NG5ZJZLV1OI47GF0,2463,/static/images/2kfaces/Google_1_Samuel Goff_1_oval.jpg,1,3,78,live
65,A2FLZP3C6U67JY:3JZQSN0I3SHSO3NG5ZJZLV1OI47GF0,2766,/static/images/2kfaces/Google_1_Erika Fletcher_1_oval.jpg,1,8,79,live
66,A2FLZP3C6U67JY:3JZQSN0I3SHSO3NG5ZJZLV1OI47GF0,2885,/static/images/2kfaces/Google_1_Florence Melton_1_oval.jpg,1,4,80,live
67,A2FLZP3C6U67JY:3JZQSN0I3SHSO3NG5ZJZLV1OI47GF0,3254,/static/images/2kfaces/Google_1_Mark Houser_17_oval.jpg,1,4,81,live
68,A2FLZP3C6U67JY:3JZQSN0I3SHSO3NG5ZJZLV1OI47GF0,2445,/static/images/2kfaces/Google_1_Kenneth Cabral_19_oval.jpg,1,5,82,live
69,A2FLZP3C6U67JY:3JZQSN0I3SHSO3NG5ZJZLV1OI47GF0,2133,/static/images/2kfaces/Google_1_Cindy Morehead_5_oval.jpg,1,4,83,live
70,A2FLZP3C6U67JY:3JZQSN0I3SHSO3NG5ZJZLV1OI47GF0,2524,/static/images/2kfaces/Google_1_Bryan Brunner_3_oval.jpg,1,5,85,live
71,A2FLZP3C6U67JY:3JZQSN0I3SHSO3NG5ZJZLV1OI47GF0,2270,/static/images/2kfaces/Google_1_Matthew Vanbuskirk_1_oval.jpg,1,5,86,live
72,A2FLZP3C6U67JY:3JZQSN0I3SHSO3NG5ZJZLV1OI47GF0,2813,/static/images/2kfaces/Google_1_Russell Gillam_17_oval.jpg,1,8,87,live
73,A2FLZP3C6U67JY:3JZQSN0I3SHSO3NG5ZJZLV1OI47GF0,2182,/static/images/2kfaces/Google_1_Andrew Diggs_9_oval.jpg,1,4,88,live
74,A2FLZP3C6U67JY:3JZQSN0I3SHSO3NG5ZJZLV1OI47GF0,2405,/static/images/2kfaces/Bryan_Shanklin_9_oval.jpg,1,3,89,live
75,A2FLZP3C6U67JY:3JZQSN0I3SHSO3NG5ZJZLV1OI47GF0,2036,/static/images/2kfaces/Google_1_Douglas Tanguay_9_oval.jpg,1,5,90,live
76,A2FLZP3C6U67JY:3JZQSN0I3SHSO3NG5ZJZLV1OI47GF0,2182,/static/images/2kfaces/Google_1_Claudia Rohrer_13_oval.jpg,1,2,91,live
77,A2FLZP3C6U67JY:3JZQSN0I3SHSO3NG5ZJZLV1OI47GF0,3784,/static/images/2kfaces/Google_1_Louis Mceachern_7_oval.jpg,1,4,92,live
78,A2FLZP3C6U67JY:3JZQSN0I3SHSO3NG5ZJZLV1OI47GF0,1913,/static/images/2kfaces/Google_1_Paul Reno_1_oval.jpg,1,4,93,live
79,A2FLZP3C6U67JY:3JZQSN0I3SHSO3NG5ZJZLV1OI47GF0,2566,/static/images/2kfaces/Google_1_Ryan Marvel_15_oval.jpg,1,8,94,live
80,A2FLZP3C6U67JY:3JZQSN0I3SHSO3NG5ZJZLV1OI47GF0,3020,/static/images/2kfaces/Google_1_Vera Becker_5_oval.jpg,1,4,96,live
81,A2FLZP3C6U67JY:3JZQSN0I3SHSO3NG5ZJZLV1OI47GF0,2622,/static/images/2kfaces/Google_1_Ernest Crump_3_oval.jpg,1,6,97,live
82,A2FLZP3C6U67JY:3JZQSN0I3SHSO3NG5ZJZLV1OI47GF0,3367,/static/images/2kfaces/Google_1_Marjorie Rule_3_oval.jpg,1,5,98,live
83,A2FLZP3C6U67JY:3JZQSN0I3SHSO3NG5ZJZLV1OI47GF0,2437,/static/images/2kfaces/Google_1_Eric Osuna_3_oval.jpg,1,5,99,live
84,A2FLZP3C6U67JY:3JZQSN0I3SHSO3NG5ZJZLV1OI47GF0,3046,/static/images/2kfaces/Alice_Mckellar_11_oval.jpg,1,7,100,live
85,A2FLZP3C6U67JY:3JZQSN0I3SHSO3NG5ZJZLV1OI47GF0,2150,/static/images/2kfaces/Google_1_Shelley Lund_5_oval.jpg,1,5,101,live
86,A2FLZP3C6U67JY:3JZQSN0I3SHSO3NG5ZJZLV1OI47GF0,4566,/static/images/2kfaces/Google_1_Norman Westfall_5_oval.jpg,1,4,102,live
87,A2FLZP3C6U67JY:3JZQSN0I3SHSO3NG5ZJZLV1OI47GF0,3253,/static/images/2kfaces/Google_1_Gregory Arriola_3_oval.jpg,1,4,103,live
88,A2FLZP3C6U67JY:3JZQSN0I3SHSO3NG5ZJZLV1OI47GF0,2566,/static/images/2kfaces/Google_1_Ronald Driver_19_oval.jpg,1,6,104,live
89,A2FLZP3C6U67JY:3JZQSN0I3SHSO3NG5ZJZLV1OI47GF0,2942,/static/images/2kfaces/Google_1_Gloria Canada_13_oval.jpg,1,4,105,live
90,A2FLZP3C6U67JY:3JZQSN0I3SHSO3NG5ZJZLV1OI47GF0,2962,/static/images/2kfaces/Google_1_Frank Whitehouse_3_oval.jpg,1,4,107,live
91,A2FLZP3C6U67JY:3JZQSN0I3SHSO3NG5ZJZLV1OI47GF0,2317,/static/images/2kfaces/Google_1_Sherry Mcmichael_11_oval.jpg,1,6,108,live
92,A2FLZP3C6U67JY:3JZQSN0I3SHSO3NG5ZJZLV1OI47GF0,2494,/static/images/2kfaces/Google_1_Valerie Noble_9_oval.jpg,1,6,109,live
93,A2FLZP3C6U67JY:3JZQSN0I3SHSO3NG5ZJZLV1OI47GF0,2622,/static/images/2kfaces/Google_1_Sara Guajardo_1_oval.jpg,1,5,110,live
94,A2FLZP3C6U67JY:3JZQSN0I3SHSO3NG5ZJZLV1OI47GF0,3093,/static/images/2kfaces/Google_1_Henry Gumm_19_oval.jpg,1,7,111,live
95,A2FLZP3C6U67JY:3JZQSN0I3SHSO3NG5ZJZLV1OI47GF0,2558,/static/images/2kfaces/Google_1_Samuel Paschal_17_oval.jpg,1,3,112,live
96,A2FLZP3C6U67JY:3JZQSN0I3SHSO3NG5ZJZLV1OI47GF0,2654,/static/images/2kfaces/Google_1_Donna Asberry_5_oval.jpg,1,5,113,live
97,A2FLZP3C6U67JY:3JZQSN0I3SHSO3NG5ZJZLV1OI47GF0,4024,/static/images/2kfaces/Google_1_Kenneth Rigsby_15_oval.jpg,1,4,114,live
98,A2FLZP3C6U67JY:3JZQSN0I3SHSO3NG5ZJZLV1OI47GF0,2606,/static/images/2kfaces/Google_1_Cheryl Griffin_15_oval.jpg,1,8,115,live
99,A2FLZP3C6U67JY:3JZQSN0I3SHSO3NG5ZJZLV1OI47GF0,3342,/static/images/2kfaces/Google_1_Paul Horst_15_oval.jpg,1,5,116,live
100,A1SP3GBRZKMWZJ:3VA45EW49PUPQ1A6MJHM126W8GFO1U,13200,/static/images/2kfaces/Google_1_Louis Mceachern_7_oval.jpg,0,1,6,live
101,A1SP3GBRZKMWZJ:3VA45EW49PUPQ1A6MJHM126W8GFO1U,5236,/static/images/2kfaces/Google_1_Timothy Galvan_11_oval.jpg,0,7,7,live
102,A1SP3GBRZKMWZJ:3VA45EW49PUPQ1A6MJHM126W8GFO1U,3877,/static/images/2kfaces/Google_1_Eva Kirkman_15_oval.jpg,0,8,8,live
103,A1SP3GBRZKMWZJ:3VA45EW49PUPQ1A6MJHM126W8GFO1U,2296,/static/images/2kfaces/Google_1_Sarah Woodcock_3_oval.jpg,0,7,9,live
104,A1SP3GBRZKMWZJ:3VA45EW49PUPQ1A6MJHM126W8GFO1U,2236,/static/images/2kfaces/Google_1_Jonathan Marek_5_oval.jpg,0,7,10,live
105,A1SP3GBRZKMWZJ:3VA45EW49PUPQ1A6MJHM126W8GFO1U,2434,/static/images/2kfaces/Google_1_Frank Whitehouse_3_oval.jpg,0,8,11,live
106,A1SP3GBRZKMWZJ:3VA45EW49PUPQ1A6MJHM126W8GFO1U,2064,/static/images/2kfaces/Google_1_Samuel Goff_1_oval.jpg,0,6,12,live
107,A1SP3GBRZKMWZJ:3VA45EW49PUPQ1A6MJHM126W8GFO1U,5056,/static/images/2kfaces/Google_1_Paul Horst_15_oval.jpg,0,7,13,live
108,A1SP3GBRZKMWZJ:3VA45EW49PUPQ1A6MJHM126W8GFO1U,2265,/static/images/2kfaces/Google_1_Tina Middleton_7_oval.jpg,0,7,14,live
109,A1SP3GBRZKMWZJ:3VA45EW49PUPQ1A6MJHM126W8GFO1U,1999,/static/images/2kfaces/Google_1_Marjorie Rule_3_oval.jpg,0,8,15,live
110,A1SP3GBRZKMWZJ:3VA45EW49PUPQ1A6MJHM126W8GFO1U,5853,/static/images/2kfaces/Google_1_Kenneth Rigsby_15_oval.jpg,0,7,17,live
111,A1SP3GBRZKMWZJ:3VA45EW49PUPQ1A6MJHM126W8GFO1U,3191,/static/images/2kfaces/Google_1_Kenneth Cabral_19_oval.jpg,0,7,18,live
112,A1SP3GBRZKMWZJ:3VA45EW49PUPQ1A6MJHM126W8GFO1U,2755,/static/images/2kfaces/Google_1_Andrew Diggs_9_oval.jpg,0,8,19,live
113,A1SP3GBRZKMWZJ:3VA45EW49PUPQ1A6MJHM126W8GFO1U,5134,/static/images/2kfaces/Google_1_Eric Osuna_3_oval.jpg,0,6,20,live
114,A1SP3GBRZKMWZJ:3VA45EW49PUPQ1A6MJHM126W8GFO1U,2318,/static/images/2kfaces/Google_1_Cindy Morehead_5_oval.jpg,0,7,21,live
115,A1SP3GBRZKMWZJ:3VA45EW49PUPQ1A6MJHM126W8GFO1U,2240,/static/images/2kfaces/Google_1_Donna Asberry_5_oval.jpg,0,6,22,live
116,A1SP3GBRZKMWZJ:3VA45EW49PUPQ1A6MJHM126W8GFO1U,4117,/static/images/2kfaces/Google_1_Erika Fletcher_1_oval.jpg,0,7,23,live
117,A1SP3GBRZKMWZJ:3VA45EW49PUPQ1A6MJHM126W8GFO1U,2191,/static/images/2kfaces/Google_1_Gary Nance_3_oval.jpg,0,8,24,live
118,A1SP3GBRZKMWZJ:3VA45EW49PUPQ1A6MJHM126W8GFO1U,2520,/static/images/2kfaces/Google_1_Carole Bentley_7_oval.jpg,0,8,25,live
119,A1SP3GBRZKMWZJ:3VA45EW49PUPQ1A6MJHM126W8GFO1U,2043,/static/images/2kfaces/Google_1_Ernest Crump_3_oval.jpg,0,7,26,live
120,A1SP3GBRZKMWZJ:3VA45EW49PUPQ1A6MJHM126W8GFO1U,2075,/static/images/2kfaces/Google_1_Antonio Benn_12_oval.jpg,0,7,28,live
121,A1SP3GBRZKMWZJ:3VA45EW49PUPQ1A6MJHM126W8GFO1U,2065,/static/images/2kfaces/Google_1_Alma Poor_7_oval.jpg,0,8,29,live
122,A1SP3GBRZKMWZJ:3VA45EW49PUPQ1A6MJHM126W8GFO1U,2447,/static/images/2kfaces/Google_1_Henry Gumm_19_oval.jpg,0,7,30,live
123,A1SP3GBRZKMWZJ:3VA45EW49PUPQ1A6MJHM126W8GFO1U,2689,/static/images/2kfaces/Google_1_Shelley Lund_5_oval.jpg,0,8,31,live
124,A1SP3GBRZKMWZJ:3VA45EW49PUPQ1A6MJHM126W8GFO1U,3531,/static/images/2kfaces/Google_1_Gary Perri_3_oval.jpg,0,6,32,live
125,A1SP3GBRZKMWZJ:3VA45EW49PUPQ1A6MJHM126W8GFO1U,4517,/static/images/2kfaces/Google_1_Gregory Arriola_3_oval.jpg,0,7,33,live
126,A1SP3GBRZKMWZJ:3VA45EW49PUPQ1A6MJHM126W8GFO1U,2386,/static/images/2kfaces/Google_1_Valerie Noble_9_oval.jpg,0,6,34,live
127,A1SP3GBRZKMWZJ:3VA45EW49PUPQ1A6MJHM126W8GFO1U,5459,/static/images/2kfaces/Google_1_Claudia Rohrer_13_oval.jpg,0,3,35,live
128,A1SP3GBRZKMWZJ:3VA45EW49PUPQ1A6MJHM126W8GFO1U,2474,/static/images/2kfaces/Google_1_Bryan Brunner_3_oval.jpg,0,6,36,live
129,A1SP3GBRZKMWZJ:3VA45EW49PUPQ1A6MJHM126W8GFO1U,2456,/static/images/2kfaces/Google_1_Mark Houser_17_oval.jpg,0,7,37,live
130,A1SP3GBRZKMWZJ:3VA45EW49PUPQ1A6MJHM126W8GFO1U,2972,/static/images/2kfaces/Google_1_Florence Melton_1_oval.jpg,0,6,39,live
131,A1SP3GBRZKMWZJ:3VA45EW49PUPQ1A6MJHM126W8GFO1U,2479,/static/images/2kfaces/Bryan_Shanklin_9_oval.jpg,0,5,40,live
132,A1SP3GBRZKMWZJ:3VA45EW49PUPQ1A6MJHM126W8GFO1U,2895,/static/images/2kfaces/Google_1_Russell Gillam_17_oval.jpg,0,7,41,live
133,A1SP3GBRZKMWZJ:3VA45EW49PUPQ1A6MJHM126W8GFO1U,2457,/static/images/2kfaces/Google_1_Sara Guajardo_1_oval.jpg,0,6,42,live
134,A1SP3GBRZKMWZJ:3VA45EW49PUPQ1A6MJHM126W8GFO1U,3577,/static/images/2kfaces/Google_1_Sherry Mcmichael_11_oval.jpg,0,6,43,live
135,A1SP3GBRZKMWZJ:3VA45EW49PUPQ1A6MJHM126W8GFO1U,3004,/static/images/2kfaces/Google_1_Ronald Driver_19_oval.jpg,0,4,44,live
136,A1SP3GBRZKMWZJ:3VA45EW49PUPQ1A6MJHM126W8GFO1U,2441,/static/images/2kfaces/Google_1_Douglas Tanguay_9_oval.jpg,0,6,45,live
137,A1SP3GBRZKMWZJ:3VA45EW49PUPQ1A6MJHM126W8GFO1U,2495,/static/images/2kfaces/Google_1_Matthew Vanbuskirk_1_oval.jpg,0,7,46,live
138,A1SP3GBRZKMWZJ:3VA45EW49PUPQ1A6MJHM126W8GFO1U,4346,/static/images/2kfaces/Google_1_Cheryl Griffin_15_oval.jpg,0,6,47,live
139,A1SP3GBRZKMWZJ:3VA45EW49PUPQ1A6MJHM126W8GFO1U,2696,/static/images/2kfaces/Google_1_Frank Luke_9_oval.jpg,0,6,48,live
140,A1SP3GBRZKMWZJ:3VA45EW49PUPQ1A6MJHM126W8GFO1U,3323,/static/images/2kfaces/Google_1_Steve Stamm_1_oval.jpg,0,8,50,live
141,A1SP3GBRZKMWZJ:3VA45EW49PUPQ1A6MJHM126W8GFO1U,2713,/static/images/2kfaces/Google_1_Gertrude Bayne_11_oval.jpg,0,6,51,live
142,A1SP3GBRZKMWZJ:3VA45EW49PUPQ1A6MJHM126W8GFO1U,1997,/static/images/2kfaces/Google_1_Ryan Marvel_15_oval.jpg,0,7,52,live
143,A1SP3GBRZKMWZJ:3VA45EW49PUPQ1A6MJHM126W8GFO1U,4103,/static/images/2kfaces/Google_1_Samuel Paschal_17_oval.jpg,0,6,53,live
144,A1SP3GBRZKMWZJ:3VA45EW49PUPQ1A6MJHM126W8GFO1U,2263,/static/images/2kfaces/Alice_Mckellar_11_oval.jpg,0,7,54,live
145,A1SP3GBRZKMWZJ:3VA45EW49PUPQ1A6MJHM126W8GFO1U,2370,/static/images/2kfaces/Google_1_Gloria Canada_13_oval.jpg,0,6,55,live
146,A1SP3GBRZKMWZJ:3VA45EW49PUPQ1A6MJHM126W8GFO1U,2163,/static/images/2kfaces/Google_1_Norman Westfall_5_oval.jpg,0,7,56,live
147,A1SP3GBRZKMWZJ:3VA45EW49PUPQ1A6MJHM126W8GFO1U,2490,/static/images/2kfaces/Google_1_Vera Becker_5_oval.jpg,0,8,57,live
148,A1SP3GBRZKMWZJ:3VA45EW49PUPQ1A6MJHM126W8GFO1U,2757,/static/images/2kfaces/Google_1_Paul Reno_1_oval.jpg,0,6,58,live
149,A1SP3GBRZKMWZJ:3VA45EW49PUPQ1A6MJHM126W8GFO1U,2415,/static/images/2kfaces/Google_1_Kathleen Sartain_1_oval.jpg,0,6,59,live
150,A1SP3GBRZKMWZJ:3VA45EW49PUPQ1A6MJHM126W8GFO1U,3508,/static/images/2kfaces/Google_1_Mark Houser_17_oval.jpg,1,6,63,live
151,A1SP3GBRZKMWZJ:3VA45EW49PUPQ1A6MJHM126W8GFO1U,2714,/static/images/2kfaces/Google_1_Cindy Morehead_5_oval.jpg,1,6,64,live
152,A1SP3GBRZKMWZJ:3VA45EW49PUPQ1A6MJHM126W8GFO1U,6574,/static/images/2kfaces/Google_1_Kenneth Rigsby_15_oval.jpg,1,5,65,live
153,A1SP3GBRZKMWZJ:3VA45EW49PUPQ1A6MJHM126W8GFO1U,2277,/static/images/2kfaces/Google_1_Bryan Brunner_3_oval.jpg,1,6,66,live
154,A1SP3GBRZKMWZJ:3VA45EW49PUPQ1A6MJHM126W8GFO1U,2358,/static/images/2kfaces/Google_1_Florence Melton_1_oval.jpg,1,6,67,live
155,A1SP3GBRZKMWZJ:3VA45EW49PUPQ1A6MJHM126W8GFO1U,4326,/static/images/2kfaces/Google_1_Donna Asberry_5_oval.jpg,1,7,68,live
156,A1SP3GBRZKMWZJ:3VA45EW49PUPQ1A6MJHM126W8GFO1U,1966,/static/images/2kfaces/Google_1_Kathleen Sartain_1_oval.jpg,1,7,69,live
157,A1SP3GBRZKMWZJ:3VA45EW49PUPQ1A6MJHM126W8GFO1U,1668,/static/images/2kfaces/Google_1_Gregory Arriola_3_oval.jpg,1,6,70,live
158,A1SP3GBRZKMWZJ:3VA45EW49PUPQ1A6MJHM126W8GFO1U,2196,/static/images/2kfaces/Google_1_Sara Guajardo_1_oval.jpg,1,8,71,live
159,A1SP3GBRZKMWZJ:3VA45EW49PUPQ1A6MJHM126W8GFO1U,2023,/static/images/2kfaces/Google_1_Andrew Diggs_9_oval.jpg,1,7,72,live
160,A1SP3GBRZKMWZJ:3VA45EW49PUPQ1A6MJHM126W8GFO1U,2121,/static/images/2kfaces/Google_1_Samuel Paschal_17_oval.jpg,1,6,74,live
161,A1SP3GBRZKMWZJ:3VA45EW49PUPQ1A6MJHM126W8GFO1U,2009,/static/images/2kfaces/Google_1_Sarah Woodcock_3_oval.jpg,1,7,75,live
162,A1SP3GBRZKMWZJ:3VA45EW49PUPQ1A6MJHM126W8GFO1U,2093,/static/images/2kfaces/Google_1_Eva Kirkman_15_oval.jpg,1,6,76,live
163,A1SP3GBRZKMWZJ:3VA45EW49PUPQ1A6MJHM126W8GFO1U,2053,/static/images/2kfaces/Google_1_Ryan Marvel_15_oval.jpg,1,7,77,live
164,A1SP3GBRZKMWZJ:3VA45EW49PUPQ1A6MJHM126W8GFO1U,3521,/static/images/2kfaces/Bryan_Shanklin_9_oval.jpg,1,5,78,live
165,A1SP3GBRZKMWZJ:3VA45EW49PUPQ1A6MJHM126W8GFO1U,1624,/static/images/2kfaces/Google_1_Gary Nance_3_oval.jpg,1,6,79,live
166,A1SP3GBRZKMWZJ:3VA45EW49PUPQ1A6MJHM126W8GFO1U,2791,/static/images/2kfaces/Google_1_Gary Perri_3_oval.jpg,1,7,80,live
167,A1SP3GBRZKMWZJ:3VA45EW49PUPQ1A6MJHM126W8GFO1U,1919,/static/images/2kfaces/Google_1_Steve Stamm_1_oval.jpg,1,7,81,live
168,A1SP3GBRZKMWZJ:3VA45EW49PUPQ1A6MJHM126W8GFO1U,4073,/static/images/2kfaces/Google_1_Claudia Rohrer_13_oval.jpg,1,3,82,live
169,A1SP3GBRZKMWZJ:3VA45EW49PUPQ1A6MJHM126W8GFO1U,2562,/static/images/2kfaces/Google_1_Frank Whitehouse_3_oval.jpg,1,6,83,live
170,A1SP3GBRZKMWZJ:3VA45EW49PUPQ1A6MJHM126W8GFO1U,2811,/static/images/2kfaces/Google_1_Ernest Crump_3_oval.jpg,1,7,85,live
171,A1SP3GBRZKMWZJ:3VA45EW49PUPQ1A6MJHM126W8GFO1U,2522,/static/images/2kfaces/Google_1_Tina Middleton_7_oval.jpg,1,7,86,live
172,A1SP3GBRZKMWZJ:3VA45EW49PUPQ1A6MJHM126W8GFO1U,2871,/static/images/2kfaces/Google_1_Gertrude Bayne_11_oval.jpg,1,5,87,live
173,A1SP3GBRZKMWZJ:3VA45EW49PUPQ1A6MJHM126W8GFO1U,2258,/static/images/2kfaces/Google_1_Jonathan Marek_5_oval.jpg,1,6,88,live
174,A1SP3GBRZKMWZJ:3VA45EW49PUPQ1A6MJHM126W8GFO1U,2091,/static/images/2kfaces/Google_1_Norman Westfall_5_oval.jpg,1,5,89,live
175,A1SP3GBRZKMWZJ:3VA45EW49PUPQ1A6MJHM126W8GFO1U,2725,/static/images/2kfaces/Google_1_Carole Bentley_7_oval.jpg,1,6,90,live
176,A1SP3GBRZKMWZJ:3VA45EW49PUPQ1A6MJHM126W8GFO1U,2640,/static/images/2kfaces/Google_1_Alma Poor_7_oval.jpg,1,7,91,live
177,A1SP3GBRZKMWZJ:3VA45EW49PUPQ1A6MJHM126W8GFO1U,3073,/static/images/2kfaces/Google_1_Cheryl Griffin_15_oval.jpg,1,8,92,live
178,A1SP3GBRZKMWZJ:3VA45EW49PUPQ1A6MJHM126W8GFO1U,2210,/static/images/2kfaces/Google_1_Sherry Mcmichael_11_oval.jpg,1,7,93,live
179,A1SP3GBRZKMWZJ:3VA45EW49PUPQ1A6MJHM126W8GFO1U,2696,/static/images/2kfaces/Google_1_Erika Fletcher_1_oval.jpg,1,7,94,live
180,A1SP3GBRZKMWZJ:3VA45EW49PUPQ1A6MJHM126W8GFO1U,2627,/static/images/2kfaces/Google_1_Frank Luke_9_oval.jpg,1,6,96,live
181,A1SP3GBRZKMWZJ:3VA45EW49PUPQ1A6MJHM126W8GFO1U,1833,/static/images/2kfaces/Google_1_Kenneth Cabral_19_oval.jpg,1,7,97,live
182,A1SP3GBRZKMWZJ:3VA45EW49PUPQ1A6MJHM126W8GFO1U,2529,/static/images/2kfaces/Google_1_Louis Mceachern_7_oval.jpg,1,8,98,live
183,A1SP3GBRZKMWZJ:3VA45EW49PUPQ1A6MJHM126W8GFO1U,4923,/static/images/2kfaces/Google_1_Henry Gumm_19_oval.jpg,1,8,99,live
184,A1SP3GBRZKMWZJ:3VA45EW49PUPQ1A6MJHM126W8GFO1U,4289,/static/images/2kfaces/Google_1_Paul Reno_1_oval.jpg,1,7,100,live
185,A1SP3GBRZKMWZJ:3VA45EW49PUPQ1A6MJHM126W8GFO1U,2404,/static/images/2kfaces/Google_1_Valerie Noble_9_oval.jpg,1,6,101,live
186,A1SP3GBRZKMWZJ:3VA45EW49PUPQ1A6MJHM126W8GFO1U,2680,/static/images/2kfaces/Google_1_Eric Osuna_3_oval.jpg,1,6,102,live
187,A1SP3GBRZKMWZJ:3VA45EW49PUPQ1A6MJHM126W8GFO1U,2252,/static/images/2kfaces/Alice_Mckellar_11_oval.jpg,1,7,103,live
188,A1SP3GBRZKMWZJ:3VA45EW49PUPQ1A6MJHM126W8GFO1U,2851,/static/images/2kfaces/Google_1_Ronald Driver_19_oval.jpg,1,4,104,live
189,A1SP3GBRZKMWZJ:3VA45EW49PUPQ1A6MJHM126W8GFO1U,4496,/static/images/2kfaces/Google_1_Matthew Vanbuskirk_1_oval.jpg,1,6,105,live
190,A1SP3GBRZKMWZJ:3VA45EW49PUPQ1A6MJHM126W8GFO1U,3459,/static/images/2kfaces/Google_1_Samuel Goff_1_oval.jpg,1,4,107,live
191,A1SP3GBRZKMWZJ:3VA45EW49PUPQ1A6MJHM126W8GFO1U,3413,/static/images/2kfaces/Google_1_Antonio Benn_12_oval.jpg,1,6,108,live
192,A1SP3GBRZKMWZJ:3VA45EW49PUPQ1A6MJHM126W8GFO1U,2179,/static/images/2kfaces/Google_1_Shelley Lund_5_oval.jpg,1,5,109,live
193,A1SP3GBRZKMWZJ:3VA45EW49PUPQ1A6MJHM126W8GFO1U,2196,/static/images/2kfaces/Google_1_Marjorie Rule_3_oval.jpg,1,7,110,live
194,A1SP3GBRZKMWZJ:3VA45EW49PUPQ1A6MJHM126W8GFO1U,2549,/static/images/2kfaces/Google_1_Russell Gillam_17_oval.jpg,1,8,111,live
195,A1SP3GBRZKMWZJ:3VA45EW49PUPQ1A6MJHM126W8GFO1U,2511,/static/images/2kfaces/Google_1_Paul Horst_15_oval.jpg,1,8,112,live
196,A1SP3GBRZKMWZJ:3VA45EW49PUPQ1A6MJHM126W8GFO1U,2468,/static/images/2kfaces/Google_1_Gloria Canada_13_oval.jpg,1,7,113,live
197,A1SP3GBRZKMWZJ:3VA45EW49PUPQ1A6MJHM126W8GFO1U,4011,/static/images/2kfaces/Google_1_Vera Becker_5_oval.jpg,1,8,114,live
198,A1SP3GBRZKMWZJ:3VA45EW49PUPQ1A6MJHM126W8GFO1U,3007,/static/images/2kfaces/Google_1_Douglas Tanguay_9_oval.jpg,1,8,115,live
199,A1SP3GBRZKMWZJ:3VA45EW49PUPQ1A6MJHM126W8GFO1U,2446,/static/images/2kfaces/Google_1_Timothy Galvan_11_oval.jpg,1,7,116,live
200,AGKL1HOKIR138:3IXQG4FA2V5NWCOSMRRTAOOG0U09B3,7920,/static/images/2kfaces/Google_1_Ronald Driver_19_oval.jpg,0,6,6,live
201,AGKL1HOKIR138:3IXQG4FA2V5NWCOSMRRTAOOG0U09B3,7926,/static/images/2kfaces/Google_1_Gloria Canada_13_oval.jpg,0,3,7,live
202,AGKL1HOKIR138:3IXQG4FA2V5NWCOSMRRTAOOG0U09B3,3471,/static/images/2kfaces/Google_1_Sherry Mcmichael_11_oval.jpg,0,4,8,live
203,AGKL1HOKIR138:3IXQG4FA2V5NWCOSMRRTAOOG0U09B3,4416,/static/images/2kfaces/Google_1_Alma Poor_7_oval.jpg,0,7,9,live
204,AGKL1HOKIR138:3IXQG4FA2V5NWCOSMRRTAOOG0U09B3,3087,/static/images/2kfaces/Google_1_Vera Becker_5_oval.jpg,0,4,10,live
205,AGKL1HOKIR138:3IXQG4FA2V5NWCOSMRRTAOOG0U09B3,4766,/static/images/2kfaces/Google_1_Jonathan Marek_5_oval.jpg,0,3,11,live
206,AGKL1HOKIR138:3IXQG4FA2V5NWCOSMRRTAOOG0U09B3,3319,/static/images/2kfaces/Google_1_Frank Luke_9_oval.jpg,0,4,12,live
207,AGKL1HOKIR138:3IXQG4FA2V5NWCOSMRRTAOOG0U09B3,4029,/static/images/2kfaces/Google_1_Ryan Marvel_15_oval.jpg,0,9,13,live
208,AGKL1HOKIR138:3IXQG4FA2V5NWCOSMRRTAOOG0U09B3,3254,/static/images/2kfaces/Google_1_Sarah Woodcock_3_oval.jpg,0,7,14,live
209,AGKL1HOKIR138:3IXQG4FA2V5NWCOSMRRTAOOG0U09B3,3847,/static/images/2kfaces/Google_1_Paul Reno_1_oval.jpg,0,6,15,live
210,AGKL1HOKIR138:3IXQG4FA2V5NWCOSMRRTAOOG0U09B3,8230,/static/images/2kfaces/Bryan_Shanklin_9_oval.jpg,0,2,17,live
211,AGKL1HOKIR138:3IXQG4FA2V5NWCOSMRRTAOOG0U09B3,5151,/static/images/2kfaces/Google_1_Valerie Noble_9_oval.jpg,0,7,18,live
212,AGKL1HOKIR138:3IXQG4FA2V5NWCOSMRRTAOOG0U09B3,3823,/static/images/2kfaces/Google_1_Carole Bentley_7_oval.jpg,0,6,19,live
213,AGKL1HOKIR138:3IXQG4FA2V5NWCOSMRRTAOOG0U09B3,2863,/static/images/2kfaces/Google_1_Donna Asberry_5_oval.jpg,0,5,20,live
214,AGKL1HOKIR138:3IXQG4FA2V5NWCOSMRRTAOOG0U09B3,3327,/static/images/2kfaces/Google_1_Mark Houser_17_oval.jpg,0,5,21,live
215,AGKL1HOKIR138:3IXQG4FA2V5NWCOSMRRTAOOG0U09B3,3159,/static/images/2kfaces/Google_1_Gertrude Bayne_11_oval.jpg,0,3,22,live
216,AGKL1HOKIR138:3IXQG4FA2V5NWCOSMRRTAOOG0U09B3,4535,/static/images/2kfaces/Google_1_Erika Fletcher_1_oval.jpg,0,7,23,live
217,AGKL1HOKIR138:3IXQG4FA2V5NWCOSMRRTAOOG0U09B3,2743,/static/images/2kfaces/Google_1_Marjorie Rule_3_oval.jpg,0,4,24,live
218,AGKL1HOKIR138:3IXQG4FA2V5NWCOSMRRTAOOG0U09B3,4862,/static/images/2kfaces/Google_1_Timothy Galvan_11_oval.jpg,0,5,25,live
219,AGKL1HOKIR138:3IXQG4FA2V5NWCOSMRRTAOOG0U09B3,3654,/static/images/2kfaces/Google_1_Antonio Benn_12_oval.jpg,0,5,26,live
220,AGKL1HOKIR138:3IXQG4FA2V5NWCOSMRRTAOOG0U09B3,6387,/static/images/2kfaces/Google_1_Bryan Brunner_3_oval.jpg,0,4,28,live
221,AGKL1HOKIR138:3IXQG4FA2V5NWCOSMRRTAOOG0U09B3,3055,/static/images/2kfaces/Google_1_Eric Osuna_3_oval.jpg,0,4,29,live
222,AGKL1HOKIR138:3IXQG4FA2V5NWCOSMRRTAOOG0U09B3,3479,/static/images/2kfaces/Google_1_Andrew Diggs_9_oval.jpg,0,2,30,live
223,AGKL1HOKIR138:3IXQG4FA2V5NWCOSMRRTAOOG0U09B3,5215,/static/images/2kfaces/Google_1_Douglas Tanguay_9_oval.jpg,0,6,31,live
224,AGKL1HOKIR138:3IXQG4FA2V5NWCOSMRRTAOOG0U09B3,3702,/static/images/2kfaces/Google_1_Kenneth Cabral_19_oval.jpg,0,7,32,live
225,AGKL1HOKIR138:3IXQG4FA2V5NWCOSMRRTAOOG0U09B3,2903,/static/images/2kfaces/Google_1_Cheryl Griffin_15_oval.jpg,0,8,33,live
226,AGKL1HOKIR138:3IXQG4FA2V5NWCOSMRRTAOOG0U09B3,5255,/static/images/2kfaces/Google_1_Paul Horst_15_oval.jpg,0,5,34,live
227,AGKL1HOKIR138:3IXQG4FA2V5NWCOSMRRTAOOG0U09B3,2870,/static/images/2kfaces/Google_1_Norman Westfall_5_oval.jpg,0,4,35,live
228,AGKL1HOKIR138:3IXQG4FA2V5NWCOSMRRTAOOG0U09B3,3255,/static/images/2kfaces/Google_1_Matthew Vanbuskirk_1_oval.jpg,0,4,36,live
229,AGKL1HOKIR138:3IXQG4FA2V5NWCOSMRRTAOOG0U09B3,3143,/static/images/2kfaces/Google_1_Gary Nance_3_oval.jpg,0,5,37,live
230,AGKL1HOKIR138:3IXQG4FA2V5NWCOSMRRTAOOG0U09B3,6141,/static/images/2kfaces/Google_1_Samuel Goff_1_oval.jpg,0,4,39,live
231,AGKL1HOKIR138:3IXQG4FA2V5NWCOSMRRTAOOG0U09B3,5398,/static/images/2kfaces/Google_1_Russell Gillam_17_oval.jpg,0,7,40,live
232,AGKL1HOKIR138:3IXQG4FA2V5NWCOSMRRTAOOG0U09B3,5638,/static/images/2kfaces/Alice_Mckellar_11_oval.jpg,0,7,41,live
233,AGKL1HOKIR138:3IXQG4FA2V5NWCOSMRRTAOOG0U09B3,3639,/static/images/2kfaces/Google_1_Tina Middleton_7_oval.jpg,0,6,42,live
234,AGKL1HOKIR138:3IXQG4FA2V5NWCOSMRRTAOOG0U09B3,3431,/static/images/2kfaces/Google_1_Shelley Lund_5_oval.jpg,0,5,43,live
235,AGKL1HOKIR138:3IXQG4FA2V5NWCOSMRRTAOOG0U09B3,4021,/static/images/2kfaces/Google_1_Florence Melton_1_oval.jpg,0,5,44,live
236,AGKL1HOKIR138:3IXQG4FA2V5NWCOSMRRTAOOG0U09B3,2926,/static/images/2kfaces/Google_1_Louis Mceachern_7_oval.jpg,0,4,45,live
237,AGKL1HOKIR138:3IXQG4FA2V5NWCOSMRRTAOOG0U09B3,4575,/static/images/2kfaces/Google_1_Samuel Paschal_17_oval.jpg,0,4,46,live
238,AGKL1HOKIR138:3IXQG4FA2V5NWCOSMRRTAOOG0U09B3,2576,/static/images/2kfaces/Google_1_Gary Perri_3_oval.jpg,0,5,47,live
239,AGKL1HOKIR138:3IXQG4FA2V5NWCOSMRRTAOOG0U09B3,2831,/static/images/2kfaces/Google_1_Gregory Arriola_3_oval.jpg,0,4,48,live
240,AGKL1HOKIR138:3IXQG4FA2V5NWCOSMRRTAOOG0U09B3,4356,/static/images/2kfaces/Google_1_Sara Guajardo_1_oval.jpg,0,5,50,live
241,AGKL1HOKIR138:3IXQG4FA2V5NWCOSMRRTAOOG0U09B3,6526,/static/images/2kfaces/Google_1_Claudia Rohrer_13_oval.jpg,0,2,51,live
242,AGKL1HOKIR138:3IXQG4FA2V5NWCOSMRRTAOOG0U09B3,4318,/static/images/2kfaces/Google_1_Steve Stamm_1_oval.jpg,0,7,52,live
243,AGKL1HOKIR138:3IXQG4FA2V5NWCOSMRRTAOOG0U09B3,2263,/static/images/2kfaces/Google_1_Frank Whitehouse_3_oval.jpg,0,4,53,live
244,AGKL1HOKIR138:3IXQG4FA2V5NWCOSMRRTAOOG0U09B3,7494,/static/images/2kfaces/Google_1_Kenneth Rigsby_15_oval.jpg,0,5,54,live
245,AGKL1HOKIR138:3IXQG4FA2V5NWCOSMRRTAOOG0U09B3,2336,/static/images/2kfaces/Google_1_Cindy Morehead_5_oval.jpg,0,4,55,live
246,AGKL1HOKIR138:3IXQG4FA2V5NWCOSMRRTAOOG0U09B3,2374,/static/images/2kfaces/Google_1_Kathleen Sartain_1_oval.jpg,0,7,56,live
247,AGKL1HOKIR138:3IXQG4FA2V5NWCOSMRRTAOOG0U09B3,2790,/static/images/2kfaces/Google_1_Ernest Crump_3_oval.jpg,0,5,57,live
248,AGKL1HOKIR138:3IXQG4FA2V5NWCOSMRRTAOOG0U09B3,4286,/static/images/2kfaces/Google_1_Eva Kirkman_15_oval.jpg,0,6,58,live
249,AGKL1HOKIR138:3IXQG4FA2V5NWCOSMRRTAOOG0U09B3,2919,/static/images/2kfaces/Google_1_Henry Gumm_19_oval.jpg,0,7,59,live
250,AGKL1HOKIR138:3IXQG4FA2V5NWCOSMRRTAOOG0U09B3,2478,/static/images/2kfaces/Google_1_Donna Asberry_5_oval.jpg,1,5,63,live
251,AGKL1HOKIR138:3IXQG4FA2V5NWCOSMRRTAOOG0U09B3,1903,/static/images/2kfaces/Google_1_Eric Osuna_3_oval.jpg,1,4,64,live
252,AGKL1HOKIR138:3IXQG4FA2V5NWCOSMRRTAOOG0U09B3,3870,/static/images/2kfaces/Google_1_Jonathan Marek_5_oval.jpg,1,2,65,live
253,AGKL1HOKIR138:3IXQG4FA2V5NWCOSMRRTAOOG0U09B3,2925,/static/images/2kfaces/Google_1_Sara Guajardo_1_oval.jpg,1,6,66,live
254,AGKL1HOKIR138:3IXQG4FA2V5NWCOSMRRTAOOG0U09B3,2831,/static/images/2kfaces/Google_1_Louis Mceachern_7_oval.jpg,1,4,67,live
255,AGKL1HOKIR138:3IXQG4FA2V5NWCOSMRRTAOOG0U09B3,3550,/static/images/2kfaces/Google_1_Florence Melton_1_oval.jpg,1,4,68,live
256,AGKL1HOKIR138:3IXQG4FA2V5NWCOSMRRTAOOG0U09B3,3974,/static/images/2kfaces/Google_1_Samuel Paschal_17_oval.jpg,1,4,69,live
257,AGKL1HOKIR138:3IXQG4FA2V5NWCOSMRRTAOOG0U09B3,4928,/static/images/2kfaces/Google_1_Paul Reno_1_oval.jpg,1,6,70,live
258,AGKL1HOKIR138:3IXQG4FA2V5NWCOSMRRTAOOG0U09B3,2774,/static/images/2kfaces/Google_1_Erika Fletcher_1_oval.jpg,1,6,71,live
259,AGKL1HOKIR138:3IXQG4FA2V5NWCOSMRRTAOOG0U09B3,2886,/static/images/2kfaces/Google_1_Shelley Lund_5_oval.jpg,1,5,72,live
260,AGKL1HOKIR138:3IXQG4FA2V5NWCOSMRRTAOOG0U09B3,5500,/static/images/2kfaces/Google_1_Alma Poor_7_oval.jpg,1,8,74,live
261,AGKL1HOKIR138:3IXQG4FA2V5NWCOSMRRTAOOG0U09B3,3383,/static/images/2kfaces/Google_1_Gary Nance_3_oval.jpg,1,7,75,live
262,AGKL1HOKIR138:3IXQG4FA2V5NWCOSMRRTAOOG0U09B3,2543,/static/images/2kfaces/Google_1_Ernest Crump_3_oval.jpg,1,6,76,live
263,AGKL1HOKIR138:3IXQG4FA2V5NWCOSMRRTAOOG0U09B3,2326,/static/images/2kfaces/Google_1_Norman Westfall_5_oval.jpg,1,4,77,live
264,AGKL1HOKIR138:3IXQG4FA2V5NWCOSMRRTAOOG0U09B3,3311,/static/images/2kfaces/Google_1_Kenneth Cabral_19_oval.jpg,1,7,78,live
265,AGKL1HOKIR138:3IXQG4FA2V5NWCOSMRRTAOOG0U09B3,2887,/static/images/2kfaces/Google_1_Claudia Rohrer_13_oval.jpg,1,2,79,live
266,AGKL1HOKIR138:3IXQG4FA2V5NWCOSMRRTAOOG0U09B3,4038,/static/images/2kfaces/Google_1_Sarah Woodcock_3_oval.jpg,1,7,80,live
267,AGKL1HOKIR138:3IXQG4FA2V5NWCOSMRRTAOOG0U09B3,2231,/static/images/2kfaces/Google_1_Cindy Morehead_5_oval.jpg,1,4,81,live
268,AGKL1HOKIR138:3IXQG4FA2V5NWCOSMRRTAOOG0U09B3,3126,/static/images/2kfaces/Google_1_Andrew Diggs_9_oval.jpg,1,3,82,live
269,AGKL1HOKIR138:3IXQG4FA2V5NWCOSMRRTAOOG0U09B3,3110,/static/images/2kfaces/Google_1_Eva Kirkman_15_oval.jpg,1,5,83,live
270,AGKL1HOKIR138:3IXQG4FA2V5NWCOSMRRTAOOG0U09B3,2984,/static/images/2kfaces/Google_1_Matthew Vanbuskirk_1_oval.jpg,1,3,85,live
271,AGKL1HOKIR138:3IXQG4FA2V5NWCOSMRRTAOOG0U09B3,2519,/static/images/2kfaces/Google_1_Vera Becker_5_oval.jpg,1,4,86,live
272,AGKL1HOKIR138:3IXQG4FA2V5NWCOSMRRTAOOG0U09B3,2774,/static/images/2kfaces/Google_1_Gertrude Bayne_11_oval.jpg,1,3,87,live
273,AGKL1HOKIR138:3IXQG4FA2V5NWCOSMRRTAOOG0U09B3,2549,/static/images/2kfaces/Alice_Mckellar_11_oval.jpg,1,6,88,live
274,AGKL1HOKIR138:3IXQG4FA2V5NWCOSMRRTAOOG0U09B3,3559,/static/images/2kfaces/Google_1_Douglas Tanguay_9_oval.jpg,1,5,89,live
275,AGKL1HOKIR138:3IXQG4FA2V5NWCOSMRRTAOOG0U09B3,2448,/static/images/2kfaces/Google_1_Carole Bentley_7_oval.jpg,1,6,90,live
276,AGKL1HOKIR138:3IXQG4FA2V5NWCOSMRRTAOOG0U09B3,3326,/static/images/2kfaces/Bryan_Shanklin_9_oval.jpg,1,3,91,live
277,AGKL1HOKIR138:3IXQG4FA2V5NWCOSMRRTAOOG0U09B3,3399,/static/images/2kfaces/Google_1_Steve Stamm_1_oval.jpg,1,7,92,live
278,AGKL1HOKIR138:3IXQG4FA2V5NWCOSMRRTAOOG0U09B3,2734,/static/images/2kfaces/Google_1_Kathleen Sartain_1_oval.jpg,1,8,93,live
279,AGKL1HOKIR138:3IXQG4FA2V5NWCOSMRRTAOOG0U09B3,2158,/static/images/2kfaces/Google_1_Timothy Galvan_11_oval.jpg,1,6,94,live
280,AGKL1HOKIR138:3IXQG4FA2V5NWCOSMRRTAOOG0U09B3,2832,/static/images/2kfaces/Google_1_Gary Perri_3_oval.jpg,1,5,96,live
281,AGKL1HOKIR138:3IXQG4FA2V5NWCOSMRRTAOOG0U09B3,2287,/static/images/2kfaces/Google_1_Paul Horst_15_oval.jpg,1,6,97,live
282,AGKL1HOKIR138:3IXQG4FA2V5NWCOSMRRTAOOG0U09B3,2782,/static/images/2kfaces/Google_1_Henry Gumm_19_oval.jpg,1,7,98,live
283,AGKL1HOKIR138:3IXQG4FA2V5NWCOSMRRTAOOG0U09B3,2472,/static/images/2kfaces/Google_1_Gregory Arriola_3_oval.jpg,1,4,99,live
284,AGKL1HOKIR138:3IXQG4FA2V5NWCOSMRRTAOOG0U09B3,3239,/static/images/2kfaces/Google_1_Russell Gillam_17_oval.jpg,1,7,100,live
285,AGKL1HOKIR138:3IXQG4FA2V5NWCOSMRRTAOOG0U09B3,3567,/static/images/2kfaces/Google_1_Sherry Mcmichael_11_oval.jpg,1,5,101,live
286,AGKL1HOKIR138:3IXQG4FA2V5NWCOSMRRTAOOG0U09B3,3920,/static/images/2kfaces/Google_1_Valerie Noble_9_oval.jpg,1,6,102,live
287,AGKL1HOKIR138:3IXQG4FA2V5NWCOSMRRTAOOG0U09B3,3111,/static/images/2kfaces/Google_1_Ronald Driver_19_oval.jpg,1,7,103,live
288,AGKL1HOKIR138:3IXQG4FA2V5NWCOSMRRTAOOG0U09B3,3087,/static/images/2kfaces/Google_1_Frank Whitehouse_3_oval.jpg,1,4,104,live
289,AGKL1HOKIR138:3IXQG4FA2V5NWCOSMRRTAOOG0U09B3,2998,/static/images/2kfaces/Google_1_Samuel Goff_1_oval.jpg,1,3,105,live
290,AGKL1HOKIR138:3IXQG4FA2V5NWCOSMRRTAOOG0U09B3,4257,/static/images/2kfaces/Google_1_Mark Houser_17_oval.jpg,1,4,107,live
291,AGKL1HOKIR138:3IXQG4FA2V5NWCOSMRRTAOOG0U09B3,3703,/static/images/2kfaces/Google_1_Bryan Brunner_3_oval.jpg,1,5,108,live
292,AGKL1HOKIR138:3IXQG4FA2V5NWCOSMRRTAOOG0U09B3,2831,/static/images/2kfaces/Google_1_Cheryl Griffin_15_oval.jpg,1,7,109,live
293,AGKL1HOKIR138:3IXQG4FA2V5NWCOSMRRTAOOG0U09B3,4534,/static/images/2kfaces/Google_1_Tina Middleton_7_oval.jpg,1,7,110,live
294,AGKL1HOKIR138:3IXQG4FA2V5NWCOSMRRTAOOG0U09B3,4247,/static/images/2kfaces/Google_1_Gloria Canada_13_oval.jpg,1,5,111,live
295,AGKL1HOKIR138:3IXQG4FA2V5NWCOSMRRTAOOG0U09B3,2526,/static/images/2kfaces/Google_1_Antonio Benn_12_oval.jpg,1,5,112,live
296,AGKL1HOKIR138:3IXQG4FA2V5NWCOSMRRTAOOG0U09B3,2429,/static/images/2kfaces/Google_1_Frank Luke_9_oval.jpg,1,4,113,live
297,AGKL1HOKIR138:3IXQG4FA2V5NWCOSMRRTAOOG0U09B3,4078,/static/images/2kfaces/Google_1_Ryan Marvel_15_oval.jpg,1,9,114,live
298,AGKL1HOKIR138:3IXQG4FA2V5NWCOSMRRTAOOG0U09B3,4183,/static/images/2kfaces/Google_1_Kenneth Rigsby_15_oval.jpg,1,4,115,live
299,AGKL1HOKIR138:3IXQG4FA2V5NWCOSMRRTAOOG0U09B3,4046,/static/images/2kfaces/Google_1_Marjorie Rule_3_oval.jpg,1,5,116,live
300,A33ST4DW1A4PGK:3DUZQ9U6SOVKA5IX0EIKSVNDU9PVSN,3427,/static/images/2kfaces/Google_1_Douglas Tanguay_9_oval.jpg,0,7,6,live
301,A33ST4DW1A4PGK:3DUZQ9U6SOVKA5IX0EIKSVNDU9PVSN,3036,/static/images/2kfaces/Google_1_Carole Bentley_7_oval.jpg,0,8,7,live
302,A33ST4DW1A4PGK:3DUZQ9U6SOVKA5IX0EIKSVNDU9PVSN,3277,/static/images/2kfaces/Google_1_Henry Gumm_19_oval.jpg,0,9,8,live
303,A33ST4DW1A4PGK:3DUZQ9U6SOVKA5IX0EIKSVNDU9PVSN,3171,/static/images/2kfaces/Google_1_Erika Fletcher_1_oval.jpg,0,9,9,live
304,A33ST4DW1A4PGK:3DUZQ9U6SOVKA5IX0EIKSVNDU9PVSN,4237,/static/images/2kfaces/Google_1_Andrew Diggs_9_oval.jpg,0,1,10,live
305,A33ST4DW1A4PGK:3DUZQ9U6SOVKA5IX0EIKSVNDU9PVSN,3129,/static/images/2kfaces/Google_1_Gregory Arriola_3_oval.jpg,0,1,11,live
306,A33ST4DW1A4PGK:3DUZQ9U6SOVKA5IX0EIKSVNDU9PVSN,2344,/static/images/2kfaces/Google_1_Frank Whitehouse_3_oval.jpg,0,1,12,live
307,A33ST4DW1A4PGK:3DUZQ9U6SOVKA5IX0EIKSVNDU9PVSN,2486,/static/images/2kfaces/Google_1_Kenneth Cabral_19_oval.jpg,0,1,13,live
308,A33ST4DW1A4PGK:3DUZQ9U6SOVKA5IX0EIKSVNDU9PVSN,6382,/static/images/2kfaces/Google_1_Kathleen Sartain_1_oval.jpg,0,5,14,live
309,A33ST4DW1A4PGK:3DUZQ9U6SOVKA5IX0EIKSVNDU9PVSN,3437,/static/images/2kfaces/Google_1_Eva Kirkman_15_oval.jpg,0,4,15,live
310,A33ST4DW1A4PGK:3DUZQ9U6SOVKA5IX0EIKSVNDU9PVSN,2948,/static/images/2kfaces/Google_1_Marjorie Rule_3_oval.jpg,0,5,17,live
311,A33ST4DW1A4PGK:3DUZQ9U6SOVKA5IX0EIKSVNDU9PVSN,4436,/static/images/2kfaces/Google_1_Ryan Marvel_15_oval.jpg,0,1,18,live
312,A33ST4DW1A4PGK:3DUZQ9U6SOVKA5IX0EIKSVNDU9PVSN,2286,/static/images/2kfaces/Google_1_Samuel Goff_1_oval.jpg,0,1,19,live
313,A33ST4DW1A4PGK:3DUZQ9U6SOVKA5IX0EIKSVNDU9PVSN,2807,/static/images/2kfaces/Google_1_Paul Horst_15_oval.jpg,0,3,20,live
314,A33ST4DW1A4PGK:3DUZQ9U6SOVKA5IX0EIKSVNDU9PVSN,2304,/static/images/2kfaces/Google_1_Frank Luke_9_oval.jpg,0,1,21,live
315,A33ST4DW1A4PGK:3DUZQ9U6SOVKA5IX0EIKSVNDU9PVSN,3731,/static/images/2kfaces/Google_1_Gary Nance_3_oval.jpg,0,6,22,live
316,A33ST4DW1A4PGK:3DUZQ9U6SOVKA5IX0EIKSVNDU9PVSN,2221,/static/images/2kfaces/Google_1_Kenneth Rigsby_15_oval.jpg,0,1,23,live
317,A33ST4DW1A4PGK:3DUZQ9U6SOVKA5IX0EIKSVNDU9PVSN,3529,/static/images/2kfaces/Google_1_Sara Guajardo_1_oval.jpg,0,4,24,live
318,A33ST4DW1A4PGK:3DUZQ9U6SOVKA5IX0EIKSVNDU9PVSN,2312,/static/images/2kfaces/Google_1_Gary Perri_3_oval.jpg,0,3,25,live
319,A33ST4DW1A4PGK:3DUZQ9U6SOVKA5IX0EIKSVNDU9PVSN,2601,/static/images/2kfaces/Google_1_Matthew Vanbuskirk_1_oval.jpg,0,1,26,live
320,A33ST4DW1A4PGK:3DUZQ9U6SOVKA5IX0EIKSVNDU9PVSN,2573,/static/images/2kfaces/Google_1_Claudia Rohrer_13_oval.jpg,0,1,28,live
321,A33ST4DW1A4PGK:3DUZQ9U6SOVKA5IX0EIKSVNDU9PVSN,3240,/static/images/2kfaces/Google_1_Sarah Woodcock_3_oval.jpg,0,9,29,live
322,A33ST4DW1A4PGK:3DUZQ9U6SOVKA5IX0EIKSVNDU9PVSN,2447,/static/images/2kfaces/Google_1_Norman Westfall_5_oval.jpg,0,1,30,live
323,A33ST4DW1A4PGK:3DUZQ9U6SOVKA5IX0EIKSVNDU9PVSN,2871,/static/images/2kfaces/Google_1_Eric Osuna_3_oval.jpg,0,1,31,live
324,A33ST4DW1A4PGK:3DUZQ9U6SOVKA5IX0EIKSVNDU9PVSN,2232,/static/images/2kfaces/Google_1_Gertrude Bayne_11_oval.jpg,0,1,32,live
325,A33ST4DW1A4PGK:3DUZQ9U6SOVKA5IX0EIKSVNDU9PVSN,3235,/static/images/2kfaces/Google_1_Tina Middleton_7_oval.jpg,0,4,33,live
326,A33ST4DW1A4PGK:3DUZQ9U6SOVKA5IX0EIKSVNDU9PVSN,5336,/static/images/2kfaces/Google_1_Alma Poor_7_oval.jpg,0,7,34,live
327,A33ST4DW1A4PGK:3DUZQ9U6SOVKA5IX0EIKSVNDU9PVSN,1972,/static/images/2kfaces/Google_1_Sherry Mcmichael_11_oval.jpg,0,1,35,live
328,A33ST4DW1A4PGK:3DUZQ9U6SOVKA5IX0EIKSVNDU9PVSN,4771,/static/images/2kfaces/Google_1_Valerie Noble_9_oval.jpg,0,4,36,live
329,A33ST4DW1A4PGK:3DUZQ9U6SOVKA5IX0EIKSVNDU9PVSN,2116,/static/images/2kfaces/Google_1_Shelley Lund_5_oval.jpg,0,1,37,live
330,A33ST4DW1A4PGK:3DUZQ9U6SOVKA5IX0EIKSVNDU9PVSN,3804,/static/images/2kfaces/Google_1_Florence Melton_1_oval.jpg,0,1,39,live
331,A33ST4DW1A4PGK:3DUZQ9U6SOVKA5IX0EIKSVNDU9PVSN,3038,/static/images/2kfaces/Google_1_Cheryl Griffin_15_oval.jpg,0,8,40,live
332,A33ST4DW1A4PGK:3DUZQ9U6SOVKA5IX0EIKSVNDU9PVSN,2751,/static/images/2kfaces/Google_1_Steve Stamm_1_oval.jpg,0,7,41,live
333,A33ST4DW1A4PGK:3DUZQ9U6SOVKA5IX0EIKSVNDU9PVSN,2537,/static/images/2kfaces/Google_1_Gloria Canada_13_oval.jpg,0,1,42,live
334,A33ST4DW1A4PGK:3DUZQ9U6SOVKA5IX0EIKSVNDU9PVSN,2156,/static/images/2kfaces/Google_1_Antonio Benn_12_oval.jpg,0,1,43,live
335,A33ST4DW1A4PGK:3DUZQ9U6SOVKA5IX0EIKSVNDU9PVSN,4089,/static/images/2kfaces/Google_1_Ernest Crump_3_oval.jpg,0,8,44,live
336,A33ST4DW1A4PGK:3DUZQ9U6SOVKA5IX0EIKSVNDU9PVSN,2276,/static/images/2kfaces/Google_1_Paul Reno_1_oval.jpg,0,1,45,live
337,A33ST4DW1A4PGK:3DUZQ9U6SOVKA5IX0EIKSVNDU9PVSN,2838,/static/images/2kfaces/Google_1_Timothy Galvan_11_oval.jpg,0,1,46,live
338,A33ST4DW1A4PGK:3DUZQ9U6SOVKA5IX0EIKSVNDU9PVSN,3795,/static/images/2kfaces/Google_1_Russell Gillam_17_oval.jpg,0,7,47,live
339,A33ST4DW1A4PGK:3DUZQ9U6SOVKA5IX0EIKSVNDU9PVSN,4155,/static/images/2kfaces/Google_1_Ronald Driver_19_oval.jpg,0,1,48,live
340,A33ST4DW1A4PGK:3DUZQ9U6SOVKA5IX0EIKSVNDU9PVSN,2898,/static/images/2kfaces/Google_1_Cindy Morehead_5_oval.jpg,0,1,50,live
341,A33ST4DW1A4PGK:3DUZQ9U6SOVKA5IX0EIKSVNDU9PVSN,3059,/static/images/2kfaces/Google_1_Louis Mceachern_7_oval.jpg,0,1,51,live
342,A33ST4DW1A4PGK:3DUZQ9U6SOVKA5IX0EIKSVNDU9PVSN,2998,/static/images/2kfaces/Google_1_Samuel Paschal_17_oval.jpg,0,1,52,live
343,A33ST4DW1A4PGK:3DUZQ9U6SOVKA5IX0EIKSVNDU9PVSN,2144,/static/images/2kfaces/Google_1_Mark Houser_17_oval.jpg,0,1,53,live
344,A33ST4DW1A4PGK:3DUZQ9U6SOVKA5IX0EIKSVNDU9PVSN,4089,/static/images/2kfaces/Bryan_Shanklin_9_oval.jpg,0,1,54,live
345,A33ST4DW1A4PGK:3DUZQ9U6SOVKA5IX0EIKSVNDU9PVSN,3260,/static/images/2kfaces/Google_1_Vera Becker_5_oval.jpg,0,2,55,live
346,A33ST4DW1A4PGK:3DUZQ9U6SOVKA5IX0EIKSVNDU9PVSN,3465,/static/images/2kfaces/Google_1_Jonathan Marek_5_oval.jpg,0,1,56,live
347,A33ST4DW1A4PGK:3DUZQ9U6SOVKA5IX0EIKSVNDU9PVSN,3317,/static/images/2kfaces/Google_1_Bryan Brunner_3_oval.jpg,0,4,57,live
348,A33ST4DW1A4PGK:3DUZQ9U6SOVKA5IX0EIKSVNDU9PVSN,5266,/static/images/2kfaces/Alice_Mckellar_11_oval.jpg,0,7,58,live
349,A33ST4DW1A4PGK:3DUZQ9U6SOVKA5IX0EIKSVNDU9PVSN,6003,/static/images/2kfaces/Google_1_Donna Asberry_5_oval.jpg,0,5,59,live
350,A33ST4DW1A4PGK:3DUZQ9U6SOVKA5IX0EIKSVNDU9PVSN,4185,/static/images/2kfaces/Google_1_Bryan Brunner_3_oval.jpg,1,4,63,live
351,A33ST4DW1A4PGK:3DUZQ9U6SOVKA5IX0EIKSVNDU9PVSN,2244,/static/images/2kfaces/Bryan_Shanklin_9_oval.jpg,1,1,64,live
352,A33ST4DW1A4PGK:3DUZQ9U6SOVKA5IX0EIKSVNDU9PVSN,3723,/static/images/2kfaces/Google_1_Tina Middleton_7_oval.jpg,1,4,65,live
353,A33ST4DW1A4PGK:3DUZQ9U6SOVKA5IX0EIKSVNDU9PVSN,2032,/static/images/2kfaces/Google_1_Kenneth Cabral_19_oval.jpg,1,1,66,live
354,A33ST4DW1A4PGK:3DUZQ9U6SOVKA5IX0EIKSVNDU9PVSN,2184,/static/images/2kfaces/Google_1_Frank Whitehouse_3_oval.jpg,1,1,67,live
355,A33ST4DW1A4PGK:3DUZQ9U6SOVKA5IX0EIKSVNDU9PVSN,2329,/static/images/2kfaces/Google_1_Marjorie Rule_3_oval.jpg,1,4,68,live
356,A33ST4DW1A4PGK:3DUZQ9U6SOVKA5IX0EIKSVNDU9PVSN,3141,/static/images/2kfaces/Google_1_Henry Gumm_19_oval.jpg,1,9,69,live
357,A33ST4DW1A4PGK:3DUZQ9U6SOVKA5IX0EIKSVNDU9PVSN,2125,/static/images/2kfaces/Google_1_Russell Gillam_17_oval.jpg,1,7,70,live
358,A33ST4DW1A4PGK:3DUZQ9U6SOVKA5IX0EIKSVNDU9PVSN,3449,/static/images/2kfaces/Google_1_Eva Kirkman_15_oval.jpg,1,3,71,live
359,A33ST4DW1A4PGK:3DUZQ9U6SOVKA5IX0EIKSVNDU9PVSN,1950,/static/images/2kfaces/Google_1_Gertrude Bayne_11_oval.jpg,1,1,72,live
360,A33ST4DW1A4PGK:3DUZQ9U6SOVKA5IX0EIKSVNDU9PVSN,2111,/static/images/2kfaces/Google_1_Louis Mceachern_7_oval.jpg,1,1,74,live
361,A33ST4DW1A4PGK:3DUZQ9U6SOVKA5IX0EIKSVNDU9PVSN,2231,/static/images/2kfaces/Google_1_Cindy Morehead_5_oval.jpg,1,1,75,live
362,A33ST4DW1A4PGK:3DUZQ9U6SOVKA5IX0EIKSVNDU9PVSN,1893,/static/images/2kfaces/Google_1_Matthew Vanbuskirk_1_oval.jpg,1,1,76,live
363,A33ST4DW1A4PGK:3DUZQ9U6SOVKA5IX0EIKSVNDU9PVSN,2123,/static/images/2kfaces/Google_1_Mark Houser_17_oval.jpg,1,1,77,live
364,A33ST4DW1A4PGK:3DUZQ9U6SOVKA5IX0EIKSVNDU9PVSN,2654,/static/images/2kfaces/Google_1_Gary Perri_3_oval.jpg,1,3,78,live
365,A33ST4DW1A4PGK:3DUZQ9U6SOVKA5IX0EIKSVNDU9PVSN,1915,/static/images/2kfaces/Google_1_Sherry Mcmichael_11_oval.jpg,1,1,79,live
366,A33ST4DW1A4PGK:3DUZQ9U6SOVKA5IX0EIKSVNDU9PVSN,4445,/static/images/2kfaces/Google_1_Gary Nance_3_oval.jpg,1,6,80,live
367,A33ST4DW1A4PGK:3DUZQ9U6SOVKA5IX0EIKSVNDU9PVSN,2138,/static/images/2kfaces/Google_1_Norman Westfall_5_oval.jpg,1,1,81,live
368,A33ST4DW1A4PGK:3DUZQ9U6SOVKA5IX0EIKSVNDU9PVSN,4069,/static/images/2kfaces/Google_1_Carole Bentley_7_oval.jpg,1,7,82,live
369,A33ST4DW1A4PGK:3DUZQ9U6SOVKA5IX0EIKSVNDU9PVSN,3242,/static/images/2kfaces/Google_1_Valerie Noble_9_oval.jpg,1,5,83,live
370,A33ST4DW1A4PGK:3DUZQ9U6SOVKA5IX0EIKSVNDU9PVSN,2611,/static/images/2kfaces/Google_1_Erika Fletcher_1_oval.jpg,1,7,85,live
371,A33ST4DW1A4PGK:3DUZQ9U6SOVKA5IX0EIKSVNDU9PVSN,2279,/static/images/2kfaces/Google_1_Florence Melton_1_oval.jpg,1,1,86,live
372,A33ST4DW1A4PGK:3DUZQ9U6SOVKA5IX0EIKSVNDU9PVSN,2472,/static/images/2kfaces/Google_1_Alma Poor_7_oval.jpg,1,8,87,live
373,A33ST4DW1A4PGK:3DUZQ9U6SOVKA5IX0EIKSVNDU9PVSN,3312,/static/images/2kfaces/Google_1_Gregory Arriola_3_oval.jpg,1,1,88,live
374,A33ST4DW1A4PGK:3DUZQ9U6SOVKA5IX0EIKSVNDU9PVSN,2838,/static/images/2kfaces/Google_1_Andrew Diggs_9_oval.jpg,1,1,89,live
375,A33ST4DW1A4PGK:3DUZQ9U6SOVKA5IX0EIKSVNDU9PVSN,2101,/static/images/2kfaces/Google_1_Claudia Rohrer_13_oval.jpg,1,1,90,live
376,A33ST4DW1A4PGK:3DUZQ9U6SOVKA5IX0EIKSVNDU9PVSN,3625,/static/images/2kfaces/Google_1_Kathleen Sartain_1_oval.jpg,1,5,91,live
377,A33ST4DW1A4PGK:3DUZQ9U6SOVKA5IX0EIKSVNDU9PVSN,2091,/static/images/2kfaces/Google_1_Ronald Driver_19_oval.jpg,1,1,92,live
378,A33ST4DW1A4PGK:3DUZQ9U6SOVKA5IX0EIKSVNDU9PVSN,2566,/static/images/2kfaces/Google_1_Cheryl Griffin_15_oval.jpg,1,7,93,live
379,A33ST4DW1A4PGK:3DUZQ9U6SOVKA5IX0EIKSVNDU9PVSN,2679,/static/images/2kfaces/Google_1_Sara Guajardo_1_oval.jpg,1,3,94,live
380,A33ST4DW1A4PGK:3DUZQ9U6SOVKA5IX0EIKSVNDU9PVSN,2275,/static/images/2kfaces/Google_1_Jonathan Marek_5_oval.jpg,1,1,96,live
381,A33ST4DW1A4PGK:3DUZQ9U6SOVKA5IX0EIKSVNDU9PVSN,2135,/static/images/2kfaces/Google_1_Samuel Paschal_17_oval.jpg,1,1,97,live
382,A33ST4DW1A4PGK:3DUZQ9U6SOVKA5IX0EIKSVNDU9PVSN,2162,/static/images/2kfaces/Google_1_Ryan Marvel_15_oval.jpg,1,1,98,live
383,A33ST4DW1A4PGK:3DUZQ9U6SOVKA5IX0EIKSVNDU9PVSN,2648,/static/images/2kfaces/Google_1_Paul Horst_15_oval.jpg,1,2,99,live
384,A33ST4DW1A4PGK:3DUZQ9U6SOVKA5IX0EIKSVNDU9PVSN,1807,/static/images/2kfaces/Google_1_Samuel Goff_1_oval.jpg,1,1,100,live
385,A33ST4DW1A4PGK:3DUZQ9U6SOVKA5IX0EIKSVNDU9PVSN,2266,/static/images/2kfaces/Google_1_Steve Stamm_1_oval.jpg,1,7,101,live
386,A33ST4DW1A4PGK:3DUZQ9U6SOVKA5IX0EIKSVNDU9PVSN,3156,/static/images/2kfaces/Google_1_Donna Asberry_5_oval.jpg,1,4,102,live
387,A33ST4DW1A4PGK:3DUZQ9U6SOVKA5IX0EIKSVNDU9PVSN,1858,/static/images/2kfaces/Google_1_Kenneth Rigsby_15_oval.jpg,1,1,103,live
388,A33ST4DW1A4PGK:3DUZQ9U6SOVKA5IX0EIKSVNDU9PVSN,2042,/static/images/2kfaces/Google_1_Eric Osuna_3_oval.jpg,1,1,104,live
389,A33ST4DW1A4PGK:3DUZQ9U6SOVKA5IX0EIKSVNDU9PVSN,3496,/static/images/2kfaces/Google_1_Douglas Tanguay_9_oval.jpg,1,5,105,live
390,A33ST4DW1A4PGK:3DUZQ9U6SOVKA5IX0EIKSVNDU9PVSN,2484,/static/images/2kfaces/Google_1_Shelley Lund_5_oval.jpg,1,1,107,live
391,A33ST4DW1A4PGK:3DUZQ9U6SOVKA5IX0EIKSVNDU9PVSN,2889,/static/images/2kfaces/Alice_Mckellar_11_oval.jpg,1,7,108,live
392,A33ST4DW1A4PGK:3DUZQ9U6SOVKA5IX0EIKSVNDU9PVSN,1879,/static/images/2kfaces/Google_1_Antonio Benn_12_oval.jpg,1,1,109,live
393,A33ST4DW1A4PGK:3DUZQ9U6SOVKA5IX0EIKSVNDU9PVSN,2133,/static/images/2kfaces/Google_1_Ernest Crump_3_oval.jpg,1,8,110,live
394,A33ST4DW1A4PGK:3DUZQ9U6SOVKA5IX0EIKSVNDU9PVSN,2131,/static/images/2kfaces/Google_1_Paul Reno_1_oval.jpg,1,1,111,live
395,A33ST4DW1A4PGK:3DUZQ9U6SOVKA5IX0EIKSVNDU9PVSN,2203,/static/images/2kfaces/Google_1_Gloria Canada_13_oval.jpg,1,1,112,live
396,A33ST4DW1A4PGK:3DUZQ9U6SOVKA5IX0EIKSVNDU9PVSN,4021,/static/images/2kfaces/Google_1_Sarah Woodcock_3_oval.jpg,1,9,113,live
397,A33ST4DW1A4PGK:3DUZQ9U6SOVKA5IX0EIKSVNDU9PVSN,2132,/static/images/2kfaces/Google_1_Timothy Galvan_11_oval.jpg,1,1,114,live
398,A33ST4DW1A4PGK:3DUZQ9U6SOVKA5IX0EIKSVNDU9PVSN,1947,/static/images/2kfaces/Google_1_Frank Luke_9_oval.jpg,1,1,115,live
399,A33ST4DW1A4PGK:3DUZQ9U6SOVKA5IX0EIKSVNDU9PVSN,2482,/static/images/2kfaces/Google_1_Vera Becker_5_oval.jpg,1,2,116,live
400,A1DX0Z20W07YOR:3IJXV6UZ1ZQ3NKYKMIJWNWSN05AIRP,15799,/static/images/2kfaces/Google_1_Samuel Paschal_17_oval.jpg,0,5,6,live
401,A1DX0Z20W07YOR:3IJXV6UZ1ZQ3NKYKMIJWNWSN05AIRP,12965,/static/images/2kfaces/Google_1_Samuel Goff_1_oval.jpg,0,3,7,live
402,A1DX0Z20W07YOR:3IJXV6UZ1ZQ3NKYKMIJWNWSN05AIRP,8198,/static/images/2kfaces/Google_1_Sara Guajardo_1_oval.jpg,0,7,8,live
403,A1DX0Z20W07YOR:3IJXV6UZ1ZQ3NKYKMIJWNWSN05AIRP,3886,/static/images/2kfaces/Google_1_Vera Becker_5_oval.jpg,0,7,9,live
404,A1DX0Z20W07YOR:3IJXV6UZ1ZQ3NKYKMIJWNWSN05AIRP,6615,/static/images/2kfaces/Google_1_Ernest Crump_3_oval.jpg,0,8,10,live
405,A1DX0Z20W07YOR:3IJXV6UZ1ZQ3NKYKMIJWNWSN05AIRP,3982,/static/images/2kfaces/Google_1_Douglas Tanguay_9_oval.jpg,0,7,11,live
406,A1DX0Z20W07YOR:3IJXV6UZ1ZQ3NKYKMIJWNWSN05AIRP,9655,/static/images/2kfaces/Google_1_Paul Reno_1_oval.jpg,0,3,12,live
407,A1DX0Z20W07YOR:3IJXV6UZ1ZQ3NKYKMIJWNWSN05AIRP,4077,/static/images/2kfaces/Google_1_Paul Horst_15_oval.jpg,0,6,13,live
408,A1DX0Z20W07YOR:3IJXV6UZ1ZQ3NKYKMIJWNWSN05AIRP,10174,/static/images/2kfaces/Google_1_Jonathan Marek_5_oval.jpg,0,2,14,live
409,A1DX0Z20W07YOR:3IJXV6UZ1ZQ3NKYKMIJWNWSN05AIRP,11336,/static/images/2kfaces/Google_1_Valerie Noble_9_oval.jpg,0,7,15,live
410,A1DX0Z20W07YOR:3IJXV6UZ1ZQ3NKYKMIJWNWSN05AIRP,7674,/static/images/2kfaces/Google_1_Eric Osuna_3_oval.jpg,0,3,17,live
411,A1DX0Z20W07YOR:3IJXV6UZ1ZQ3NKYKMIJWNWSN05AIRP,5430,/static/images/2kfaces/Google_1_Shelley Lund_5_oval.jpg,0,6,18,live
412,A1DX0Z20W07YOR:3IJXV6UZ1ZQ3NKYKMIJWNWSN05AIRP,14230,/static/images/2kfaces/Google_1_Mark Houser_17_oval.jpg,0,2,19,live
413,A1DX0Z20W07YOR:3IJXV6UZ1ZQ3NKYKMIJWNWSN05AIRP,4118,/static/images/2kfaces/Google_1_Alma Poor_7_oval.jpg,0,9,20,live
414,A1DX0Z20W07YOR:3IJXV6UZ1ZQ3NKYKMIJWNWSN05AIRP,4935,/static/images/2kfaces/Google_1_Tina Middleton_7_oval.jpg,0,6,21,live
415,A1DX0Z20W07YOR:3IJXV6UZ1ZQ3NKYKMIJWNWSN05AIRP,4304,/static/images/2kfaces/Google_1_Russell Gillam_17_oval.jpg,0,7,22,live
416,A1DX0Z20W07YOR:3IJXV6UZ1ZQ3NKYKMIJWNWSN05AIRP,4005,/static/images/2kfaces/Google_1_Donna Asberry_5_oval.jpg,0,5,23,live
417,A1DX0Z20W07YOR:3IJXV6UZ1ZQ3NKYKMIJWNWSN05AIRP,8310,/static/images/2kfaces/Google_1_Ronald Driver_19_oval.jpg,0,4,24,live
418,A1DX0Z20W07YOR:3IJXV6UZ1ZQ3NKYKMIJWNWSN05AIRP,4862,/static/images/2kfaces/Google_1_Bryan Brunner_3_oval.jpg,0,5,25,live
419,A1DX0Z20W07YOR:3IJXV6UZ1ZQ3NKYKMIJWNWSN05AIRP,3615,/static/images/2kfaces/Google_1_Ryan Marvel_15_oval.jpg,0,9,26,live
420,A1DX0Z20W07YOR:3IJXV6UZ1ZQ3NKYKMIJWNWSN05AIRP,7692,/static/images/2kfaces/Google_1_Gertrude Bayne_11_oval.jpg,0,1,28,live
421,A1DX0Z20W07YOR:3IJXV6UZ1ZQ3NKYKMIJWNWSN05AIRP,4552,/static/images/2kfaces/Google_1_Claudia Rohrer_13_oval.jpg,0,2,29,live
422,A1DX0Z20W07YOR:3IJXV6UZ1ZQ3NKYKMIJWNWSN05AIRP,15341,/static/images/2kfaces/Google_1_Matthew Vanbuskirk_1_oval.jpg,0,5,30,live
423,A1DX0Z20W07YOR:3IJXV6UZ1ZQ3NKYKMIJWNWSN05AIRP,3878,/static/images/2kfaces/Alice_Mckellar_11_oval.jpg,0,9,31,live
424,A1DX0Z20W07YOR:3IJXV6UZ1ZQ3NKYKMIJWNWSN05AIRP,9629,/static/images/2kfaces/Google_1_Carole Bentley_7_oval.jpg,0,7,32,live
425,A1DX0Z20W07YOR:3IJXV6UZ1ZQ3NKYKMIJWNWSN05AIRP,5400,/static/images/2kfaces/Google_1_Kathleen Sartain_1_oval.jpg,0,9,33,live
426,A1DX0Z20W07YOR:3IJXV6UZ1ZQ3NKYKMIJWNWSN05AIRP,6894,/static/images/2kfaces/Google_1_Kenneth Cabral_19_oval.jpg,0,7,34,live
427,A1DX0Z20W07YOR:3IJXV6UZ1ZQ3NKYKMIJWNWSN05AIRP,6008,/static/images/2kfaces/Google_1_Kenneth Rigsby_15_oval.jpg,0,2,35,live
428,A1DX0Z20W07YOR:3IJXV6UZ1ZQ3NKYKMIJWNWSN05AIRP,8143,/static/images/2kfaces/Google_1_Louis Mceachern_7_oval.jpg,0,3,36,live
429,A1DX0Z20W07YOR:3IJXV6UZ1ZQ3NKYKMIJWNWSN05AIRP,3143,/static/images/2kfaces/Google_1_Gloria Canada_13_oval.jpg,0,5,37,live
430,A1DX0Z20W07YOR:3IJXV6UZ1ZQ3NKYKMIJWNWSN05AIRP,4104,/static/images/2kfaces/Google_1_Cheryl Griffin_15_oval.jpg,0,9,39,live
431,A1DX0Z20W07YOR:3IJXV6UZ1ZQ3NKYKMIJWNWSN05AIRP,3046,/static/images/2kfaces/Google_1_Sherry Mcmichael_11_oval.jpg,0,5,40,live
432,A1DX0Z20W07YOR:3IJXV6UZ1ZQ3NKYKMIJWNWSN05AIRP,3975,/static/images/2kfaces/Bryan_Shanklin_9_oval.jpg,0,1,41,live
433,A1DX0Z20W07YOR:3IJXV6UZ1ZQ3NKYKMIJWNWSN05AIRP,4303,/static/images/2kfaces/Google_1_Florence Melton_1_oval.jpg,0,6,42,live
434,A1DX0Z20W07YOR:3IJXV6UZ1ZQ3NKYKMIJWNWSN05AIRP,4838,/static/images/2kfaces/Google_1_Eva Kirkman_15_oval.jpg,0,6,43,live
435,A1DX0Z20W07YOR:3IJXV6UZ1ZQ3NKYKMIJWNWSN05AIRP,4934,/static/images/2kfaces/Google_1_Steve Stamm_1_oval.jpg,0,8,44,live
436,A1DX0Z20W07YOR:3IJXV6UZ1ZQ3NKYKMIJWNWSN05AIRP,4663,/static/images/2kfaces/Google_1_Antonio Benn_12_oval.jpg,0,3,45,live
437,A1DX0Z20W07YOR:3IJXV6UZ1ZQ3NKYKMIJWNWSN05AIRP,4175,/static/images/2kfaces/Google_1_Timothy Galvan_11_oval.jpg,0,3,46,live
438,A1DX0Z20W07YOR:3IJXV6UZ1ZQ3NKYKMIJWNWSN05AIRP,3583,/static/images/2kfaces/Google_1_Gary Nance_3_oval.jpg,0,8,47,live
439,A1DX0Z20W07YOR:3IJXV6UZ1ZQ3NKYKMIJWNWSN05AIRP,2511,/static/images/2kfaces/Google_1_Gary Perri_3_oval.jpg,0,6,48,live
440,A1DX0Z20W07YOR:3IJXV6UZ1ZQ3NKYKMIJWNWSN05AIRP,4963,/static/images/2kfaces/Google_1_Andrew Diggs_9_oval.jpg,0,1,50,live
441,A1DX0Z20W07YOR:3IJXV6UZ1ZQ3NKYKMIJWNWSN05AIRP,8725,/static/images/2kfaces/Google_1_Marjorie Rule_3_oval.jpg,0,5,51,live
442,A1DX0Z20W07YOR:3IJXV6UZ1ZQ3NKYKMIJWNWSN05AIRP,5557,/static/images/2kfaces/Google_1_Frank Luke_9_oval.jpg,0,4,52,live
443,A1DX0Z20W07YOR:3IJXV6UZ1ZQ3NKYKMIJWNWSN05AIRP,6911,/static/images/2kfaces/Google_1_Gregory Arriola_3_oval.jpg,0,2,53,live
444,A1DX0Z20W07YOR:3IJXV6UZ1ZQ3NKYKMIJWNWSN05AIRP,6599,/static/images/2kfaces/Google_1_Frank Whitehouse_3_oval.jpg,0,2,54,live
445,A1DX0Z20W07YOR:3IJXV6UZ1ZQ3NKYKMIJWNWSN05AIRP,2853,/static/images/2kfaces/Google_1_Sarah Woodcock_3_oval.jpg,0,8,55,live
446,A1DX0Z20W07YOR:3IJXV6UZ1ZQ3NKYKMIJWNWSN05AIRP,8181,/static/images/2kfaces/Google_1_Henry Gumm_19_oval.jpg,0,9,56,live
447,A1DX0Z20W07YOR:3IJXV6UZ1ZQ3NKYKMIJWNWSN05AIRP,3999,/static/images/2kfaces/Google_1_Erika Fletcher_1_oval.jpg,0,9,57,live
448,A1DX0Z20W07YOR:3IJXV6UZ1ZQ3NKYKMIJWNWSN05AIRP,4807,/static/images/2kfaces/Google_1_Norman Westfall_5_oval.jpg,0,4,58,live
449,A1DX0Z20W07YOR:3IJXV6UZ1ZQ3NKYKMIJWNWSN05AIRP,3821,/static/images/2kfaces/Google_1_Cindy Morehead_5_oval.jpg,0,5,59,live
450,A1DX0Z20W07YOR:3IJXV6UZ1ZQ3NKYKMIJWNWSN05AIRP,10527,/static/images/2kfaces/Google_1_Paul Horst_15_oval.jpg,1,6,63,live
451,A1DX0Z20W07YOR:3IJXV6UZ1ZQ3NKYKMIJWNWSN05AIRP,2846,/static/images/2kfaces/Google_1_Henry Gumm_19_oval.jpg,1,9,64,live
452,A1DX0Z20W07YOR:3IJXV6UZ1ZQ3NKYKMIJWNWSN05AIRP,3510,/static/images/2kfaces/Google_1_Kathleen Sartain_1_oval.jpg,1,9,65,live
453,A1DX0Z20W07YOR:3IJXV6UZ1ZQ3NKYKMIJWNWSN05AIRP,2390,/static/images/2kfaces/Google_1_Alma Poor_7_oval.jpg,1,9,66,live
454,A1DX0Z20W07YOR:3IJXV6UZ1ZQ3NKYKMIJWNWSN05AIRP,3815,/static/images/2kfaces/Google_1_Shelley Lund_5_oval.jpg,1,5,67,live
455,A1DX0Z20W07YOR:3IJXV6UZ1ZQ3NKYKMIJWNWSN05AIRP,4478,/static/images/2kfaces/Google_1_Sara Guajardo_1_oval.jpg,1,7,68,live
456,A1DX0Z20W07YOR:3IJXV6UZ1ZQ3NKYKMIJWNWSN05AIRP,2812,/static/images/2kfaces/Google_1_Gary Nance_3_oval.jpg,1,8,69,live
457,A1DX0Z20W07YOR:3IJXV6UZ1ZQ3NKYKMIJWNWSN05AIRP,2694,/static/images/2kfaces/Alice_Mckellar_11_oval.jpg,1,9,70,live
458,A1DX0Z20W07YOR:3IJXV6UZ1ZQ3NKYKMIJWNWSN05AIRP,2599,/static/images/2kfaces/Google_1_Gregory Arriola_3_oval.jpg,1,2,71,live
459,A1DX0Z20W07YOR:3IJXV6UZ1ZQ3NKYKMIJWNWSN05AIRP,2438,/static/images/2kfaces/Google_1_Jonathan Marek_5_oval.jpg,1,2,72,live
460,A1DX0Z20W07YOR:3IJXV6UZ1ZQ3NKYKMIJWNWSN05AIRP,2183,/static/images/2kfaces/Google_1_Marjorie Rule_3_oval.jpg,1,5,74,live
461,A1DX0Z20W07YOR:3IJXV6UZ1ZQ3NKYKMIJWNWSN05AIRP,7519,/static/images/2kfaces/Google_1_Mark Houser_17_oval.jpg,1,3,75,live
462,A1DX0Z20W07YOR:3IJXV6UZ1ZQ3NKYKMIJWNWSN05AIRP,5710,/static/images/2kfaces/Google_1_Samuel Goff_1_oval.jpg,1,2,76,live
463,A1DX0Z20W07YOR:3IJXV6UZ1ZQ3NKYKMIJWNWSN05AIRP,2335,/static/images/2kfaces/Google_1_Gertrude Bayne_11_oval.jpg,1,1,77,live
464,A1DX0Z20W07YOR:3IJXV6UZ1ZQ3NKYKMIJWNWSN05AIRP,5396,/static/images/2kfaces/Google_1_Valerie Noble_9_oval.jpg,1,7,78,live
465,A1DX0Z20W07YOR:3IJXV6UZ1ZQ3NKYKMIJWNWSN05AIRP,3512,/static/images/2kfaces/Google_1_Claudia Rohrer_13_oval.jpg,1,2,79,live
466,A1DX0Z20W07YOR:3IJXV6UZ1ZQ3NKYKMIJWNWSN05AIRP,5463,/static/images/2kfaces/Google_1_Tina Middleton_7_oval.jpg,1,6,80,live
467,A1DX0Z20W07YOR:3IJXV6UZ1ZQ3NKYKMIJWNWSN05AIRP,2166,/static/images/2kfaces/Google_1_Frank Luke_9_oval.jpg,1,4,81,live
468,A1DX0Z20W07YOR:3IJXV6UZ1ZQ3NKYKMIJWNWSN05AIRP,3135,/static/images/2kfaces/Google_1_Ryan Marvel_15_oval.jpg,1,9,82,live
469,A1DX0Z20W07YOR:3IJXV6UZ1ZQ3NKYKMIJWNWSN05AIRP,2806,/static/images/2kfaces/Google_1_Cheryl Griffin_15_oval.jpg,1,9,83,live
470,A1DX0Z20W07YOR:3IJXV6UZ1ZQ3NKYKMIJWNWSN05AIRP,5182,/static/images/2kfaces/Google_1_Douglas Tanguay_9_oval.jpg,1,7,85,live
471,A1DX0Z20W07YOR:3IJXV6UZ1ZQ3NKYKMIJWNWSN05AIRP,2390,/static/images/2kfaces/Google_1_Sherry Mcmichael_11_oval.jpg,1,5,86,live
472,A1DX0Z20W07YOR:3IJXV6UZ1ZQ3NKYKMIJWNWSN05AIRP,2952,/static/images/2kfaces/Google_1_Eva Kirkman_15_oval.jpg,1,5,87,live
473,A1DX0Z20W07YOR:3IJXV6UZ1ZQ3NKYKMIJWNWSN05AIRP,2493,/static/images/2kfaces/Google_1_Erika Fletcher_1_oval.jpg,1,9,88,live
474,A1DX0Z20W07YOR:3IJXV6UZ1ZQ3NKYKMIJWNWSN05AIRP,5254,/static/images/2kfaces/Google_1_Paul Reno_1_oval.jpg,1,3,89,live
475,A1DX0Z20W07YOR:3IJXV6UZ1ZQ3NKYKMIJWNWSN05AIRP,2998,/static/images/2kfaces/Google_1_Eric Osuna_3_oval.jpg,1,2,90,live
476,A1DX0Z20W07YOR:3IJXV6UZ1ZQ3NKYKMIJWNWSN05AIRP,3751,/static/images/2kfaces/Google_1_Carole Bentley_7_oval.jpg,1,7,91,live
477,A1DX0Z20W07YOR:3IJXV6UZ1ZQ3NKYKMIJWNWSN05AIRP,3039,/static/images/2kfaces/Google_1_Russell Gillam_17_oval.jpg,1,7,92,live
478,A1DX0Z20W07YOR:3IJXV6UZ1ZQ3NKYKMIJWNWSN05AIRP,3487,/static/images/2kfaces/Google_1_Kenneth Cabral_19_oval.jpg,1,7,93,live
479,A1DX0Z20W07YOR:3IJXV6UZ1ZQ3NKYKMIJWNWSN05AIRP,4141,/static/images/2kfaces/Google_1_Matthew Vanbuskirk_1_oval.jpg,1,4,94,live
480,A1DX0Z20W07YOR:3IJXV6UZ1ZQ3NKYKMIJWNWSN05AIRP,2851,/static/images/2kfaces/Google_1_Andrew Diggs_9_oval.jpg,1,1,96,live
481,A1DX0Z20W07YOR:3IJXV6UZ1ZQ3NKYKMIJWNWSN05AIRP,2718,/static/images/2kfaces/Google_1_Kenneth Rigsby_15_oval.jpg,1,1,97,live
482,A1DX0Z20W07YOR:3IJXV6UZ1ZQ3NKYKMIJWNWSN05AIRP,2198,/static/images/2kfaces/Google_1_Cindy Morehead_5_oval.jpg,1,5,98,live
483,A1DX0Z20W07YOR:3IJXV6UZ1ZQ3NKYKMIJWNWSN05AIRP,2310,/static/images/2kfaces/Google_1_Ronald Driver_19_oval.jpg,1,3,99,live
484,A1DX0Z20W07YOR:3IJXV6UZ1ZQ3NKYKMIJWNWSN05AIRP,2895,/static/images/2kfaces/Google_1_Ernest Crump_3_oval.jpg,1,8,100,live
485,A1DX0Z20W07YOR:3IJXV6UZ1ZQ3NKYKMIJWNWSN05AIRP,2327,/static/images/2kfaces/Google_1_Sarah Woodcock_3_oval.jpg,1,8,101,live
486,A1DX0Z20W07YOR:3IJXV6UZ1ZQ3NKYKMIJWNWSN05AIRP,6302,/static/images/2kfaces/Google_1_Florence Melton_1_oval.jpg,1,4,102,live
487,A1DX0Z20W07YOR:3IJXV6UZ1ZQ3NKYKMIJWNWSN05AIRP,2647,/static/images/2kfaces/Google_1_Bryan Brunner_3_oval.jpg,1,4,103,live
488,A1DX0Z20W07YOR:3IJXV6UZ1ZQ3NKYKMIJWNWSN05AIRP,5021,/static/images/2kfaces/Google_1_Vera Becker_5_oval.jpg,1,8,104,live
489,A1DX0Z20W07YOR:3IJXV6UZ1ZQ3NKYKMIJWNWSN05AIRP,2543,/static/images/2kfaces/Google_1_Donna Asberry_5_oval.jpg,1,7,105,live
490,A1DX0Z20W07YOR:3IJXV6UZ1ZQ3NKYKMIJWNWSN05AIRP,3829,/static/images/2kfaces/Google_1_Louis Mceachern_7_oval.jpg,1,3,107,live
491,A1DX0Z20W07YOR:3IJXV6UZ1ZQ3NKYKMIJWNWSN05AIRP,2221,/static/images/2kfaces/Bryan_Shanklin_9_oval.jpg,1,1,108,live
492,A1DX0Z20W07YOR:3IJXV6UZ1ZQ3NKYKMIJWNWSN05AIRP,3382,/static/images/2kfaces/Google_1_Steve Stamm_1_oval.jpg,1,7,109,live
493,A1DX0Z20W07YOR:3IJXV6UZ1ZQ3NKYKMIJWNWSN05AIRP,3302,/static/images/2kfaces/Google_1_Gary Perri_3_oval.jpg,1,5,110,live
494,A1DX0Z20W07YOR:3IJXV6UZ1ZQ3NKYKMIJWNWSN05AIRP,7031,/static/images/2kfaces/Google_1_Timothy Galvan_11_oval.jpg,1,2,111,live
495,A1DX0Z20W07YOR:3IJXV6UZ1ZQ3NKYKMIJWNWSN05AIRP,2799,/static/images/2kfaces/Google_1_Antonio Benn_12_oval.jpg,1,3,112,live
496,A1DX0Z20W07YOR:3IJXV6UZ1ZQ3NKYKMIJWNWSN05AIRP,4453,/static/images/2kfaces/Google_1_Gloria Canada_13_oval.jpg,1,5,113,live
497,A1DX0Z20W07YOR:3IJXV6UZ1ZQ3NKYKMIJWNWSN05AIRP,2959,/static/images/2kfaces/Google_1_Norman Westfall_5_oval.jpg,1,3,114,live
498,A1DX0Z20W07YOR:3IJXV6UZ1ZQ3NKYKMIJWNWSN05AIRP,4638,/static/images/2kfaces/Google_1_Frank Whitehouse_3_oval.jpg,1,1,115,live
499,A1DX0Z20W07YOR:3IJXV6UZ1ZQ3NKYKMIJWNWSN05AIRP,4455,/static/images/2kfaces/Google_1_Samuel Paschal_17_oval.jpg,1,4,116,live
500,APVWMP5952IOY:3SLE99ER0PK22365QPLSNCQ9FXWZBG,3176,/static/images/2kfaces/Google_1_Gertrude Bayne_11_oval.jpg,0,5,6,live
501,APVWMP5952IOY:3SLE99ER0PK22365QPLSNCQ9FXWZBG,12334,/static/images/2kfaces/Alice_Mckellar_11_oval.jpg,0,7,7,live
502,APVWMP5952IOY:3SLE99ER0PK22365QPLSNCQ9FXWZBG,3918,/static/images/2kfaces/Google_1_Kenneth Rigsby_15_oval.jpg,0,4,8,live
503,APVWMP5952IOY:3SLE99ER0PK22365QPLSNCQ9FXWZBG,4534,/static/images/2kfaces/Google_1_Samuel Paschal_17_oval.jpg,0,7,9,live
504,APVWMP5952IOY:3SLE99ER0PK22365QPLSNCQ9FXWZBG,5125,/static/images/2kfaces/Google_1_Gregory Arriola_3_oval.jpg,0,4,10,live
505,APVWMP5952IOY:3SLE99ER0PK22365QPLSNCQ9FXWZBG,4029,/static/images/2kfaces/Google_1_Gary Nance_3_oval.jpg,0,7,11,live
506,APVWMP5952IOY:3SLE99ER0PK22365QPLSNCQ9FXWZBG,5952,/static/images/2kfaces/Google_1_Carole Bentley_7_oval.jpg,0,6,12,live
507,APVWMP5952IOY:3SLE99ER0PK22365QPLSNCQ9FXWZBG,3805,/static/images/2kfaces/Google_1_Florence Melton_1_oval.jpg,0,7,13,live
508,APVWMP5952IOY:3SLE99ER0PK22365QPLSNCQ9FXWZBG,12215,/static/images/2kfaces/Google_1_Ronald Driver_19_oval.jpg,0,5,14,live
509,APVWMP5952IOY:3SLE99ER0PK22365QPLSNCQ9FXWZBG,11221,/static/images/2kfaces/Google_1_Paul Horst_15_oval.jpg,0,7,15,live
510,APVWMP5952IOY:3SLE99ER0PK22365QPLSNCQ9FXWZBG,8955,/static/images/2kfaces/Google_1_Mark Houser_17_oval.jpg,0,5,17,live
511,APVWMP5952IOY:3SLE99ER0PK22365QPLSNCQ9FXWZBG,5582,/static/images/2kfaces/Google_1_Sherry Mcmichael_11_oval.jpg,0,6,18,live
512,APVWMP5952IOY:3SLE99ER0PK22365QPLSNCQ9FXWZBG,15950,/static/images/2kfaces/Google_1_Frank Whitehouse_3_oval.jpg,0,4,19,live
513,APVWMP5952IOY:3SLE99ER0PK22365QPLSNCQ9FXWZBG,3172,/static/images/2kfaces/Google_1_Gary Perri_3_oval.jpg,0,7,20,live
514,APVWMP5952IOY:3SLE99ER0PK22365QPLSNCQ9FXWZBG,11223,/static/images/2kfaces/Google_1_Sara Guajardo_1_oval.jpg,0,6,21,live
515,APVWMP5952IOY:3SLE99ER0PK22365QPLSNCQ9FXWZBG,8941,/static/images/2kfaces/Google_1_Kenneth Cabral_19_oval.jpg,0,6,22,live
516,APVWMP5952IOY:3SLE99ER0PK22365QPLSNCQ9FXWZBG,4630,/static/images/2kfaces/Google_1_Vera Becker_5_oval.jpg,0,7,23,live
517,APVWMP5952IOY:3SLE99ER0PK22365QPLSNCQ9FXWZBG,5151,/static/images/2kfaces/Google_1_Erika Fletcher_1_oval.jpg,0,6,24,live
518,APVWMP5952IOY:3SLE99ER0PK22365QPLSNCQ9FXWZBG,4030,/static/images/2kfaces/Google_1_Cindy Morehead_5_oval.jpg,0,4,25,live
519,APVWMP5952IOY:3SLE99ER0PK22365QPLSNCQ9FXWZBG,3533,/static/images/2kfaces/Google_1_Ryan Marvel_15_oval.jpg,0,7,26,live
520,APVWMP5952IOY:3SLE99ER0PK22365QPLSNCQ9FXWZBG,3504,/static/images/2kfaces/Google_1_Andrew Diggs_9_oval.jpg,0,6,28,live
521,APVWMP5952IOY:3SLE99ER0PK22365QPLSNCQ9FXWZBG,2749,/static/images/2kfaces/Google_1_Jonathan Marek_5_oval.jpg,0,5,29,live
522,APVWMP5952IOY:3SLE99ER0PK22365QPLSNCQ9FXWZBG,3950,/static/images/2kfaces/Google_1_Samuel Goff_1_oval.jpg,0,4,30,live
523,APVWMP5952IOY:3SLE99ER0PK22365QPLSNCQ9FXWZBG,3533,/static/images/2kfaces/Google_1_Henry Gumm_19_oval.jpg,0,7,31,live
524,APVWMP5952IOY:3SLE99ER0PK22365QPLSNCQ9FXWZBG,15207,/static/images/2kfaces/Google_1_Antonio Benn_12_oval.jpg,0,6,32,live
525,APVWMP5952IOY:3SLE99ER0PK22365QPLSNCQ9FXWZBG,5662,/static/images/2kfaces/Google_1_Alma Poor_7_oval.jpg,0,7,33,live
526,APVWMP5952IOY:3SLE99ER0PK22365QPLSNCQ9FXWZBG,8198,/static/images/2kfaces/Google_1_Bryan Brunner_3_oval.jpg,0,5,34,live
527,APVWMP5952IOY:3SLE99ER0PK22365QPLSNCQ9FXWZBG,3870,/static/images/2kfaces/Bryan_Shanklin_9_oval.jpg,0,4,35,live
528,APVWMP5952IOY:3SLE99ER0PK22365QPLSNCQ9FXWZBG,7478,/static/images/2kfaces/Google_1_Eric Osuna_3_oval.jpg,0,5,36,live
529,APVWMP5952IOY:3SLE99ER0PK22365QPLSNCQ9FXWZBG,5725,/static/images/2kfaces/Google_1_Ernest Crump_3_oval.jpg,0,6,37,live
530,APVWMP5952IOY:3SLE99ER0PK22365QPLSNCQ9FXWZBG,20059,/static/images/2kfaces/Google_1_Marjorie Rule_3_oval.jpg,0,6,39,live
531,APVWMP5952IOY:3SLE99ER0PK22365QPLSNCQ9FXWZBG,4294,/static/images/2kfaces/Google_1_Sarah Woodcock_3_oval.jpg,0,5,40,live
532,APVWMP5952IOY:3SLE99ER0PK22365QPLSNCQ9FXWZBG,5109,/static/images/2kfaces/Google_1_Claudia Rohrer_13_oval.jpg,0,4,41,live
533,APVWMP5952IOY:3SLE99ER0PK22365QPLSNCQ9FXWZBG,3270,/static/images/2kfaces/Google_1_Shelley Lund_5_oval.jpg,0,6,42,live
534,APVWMP5952IOY:3SLE99ER0PK22365QPLSNCQ9FXWZBG,11550,/static/images/2kfaces/Google_1_Kathleen Sartain_1_oval.jpg,0,4,43,live
535,APVWMP5952IOY:3SLE99ER0PK22365QPLSNCQ9FXWZBG,12294,/static/images/2kfaces/Google_1_Frank Luke_9_oval.jpg,0,4,44,live
536,APVWMP5952IOY:3SLE99ER0PK22365QPLSNCQ9FXWZBG,4005,/static/images/2kfaces/Google_1_Douglas Tanguay_9_oval.jpg,0,7,45,live
537,APVWMP5952IOY:3SLE99ER0PK22365QPLSNCQ9FXWZBG,4134,/static/images/2kfaces/Google_1_Paul Reno_1_oval.jpg,0,5,46,live
538,APVWMP5952IOY:3SLE99ER0PK22365QPLSNCQ9FXWZBG,4118,/static/images/2kfaces/Google_1_Eva Kirkman_15_oval.jpg,0,5,47,live
539,APVWMP5952IOY:3SLE99ER0PK22365QPLSNCQ9FXWZBG,3845,/static/images/2kfaces/Google_1_Norman Westfall_5_oval.jpg,0,6,48,live
540,APVWMP5952IOY:3SLE99ER0PK22365QPLSNCQ9FXWZBG,5109,/static/images/2kfaces/Google_1_Timothy Galvan_11_oval.jpg,0,6,50,live
541,APVWMP5952IOY:3SLE99ER0PK22365QPLSNCQ9FXWZBG,5948,/static/images/2kfaces/Google_1_Louis Mceachern_7_oval.jpg,0,5,51,live
542,APVWMP5952IOY:3SLE99ER0PK22365QPLSNCQ9FXWZBG,28752,/static/images/2kfaces/Google_1_Matthew Vanbuskirk_1_oval.jpg,0,7,52,live
543,APVWMP5952IOY:3SLE99ER0PK22365QPLSNCQ9FXWZBG,90997,/static/images/2kfaces/Google_1_Donna Asberry_5_oval.jpg,0,6,53,live
544,APVWMP5952IOY:3SLE99ER0PK22365QPLSNCQ9FXWZBG,3331,/static/images/2kfaces/Google_1_Gloria Canada_13_oval.jpg,0,4,54,live
545,APVWMP5952IOY:3SLE99ER0PK22365QPLSNCQ9FXWZBG,4080,/static/images/2kfaces/Google_1_Russell Gillam_17_oval.jpg,0,7,55,live
546,APVWMP5952IOY:3SLE99ER0PK22365QPLSNCQ9FXWZBG,3181,/static/images/2kfaces/Google_1_Cheryl Griffin_15_oval.jpg,0,7,56,live
547,APVWMP5952IOY:3SLE99ER0PK22365QPLSNCQ9FXWZBG,4526,/static/images/2kfaces/Google_1_Steve Stamm_1_oval.jpg,0,6,57,live
548,APVWMP5952IOY:3SLE99ER0PK22365QPLSNCQ9FXWZBG,3038,/static/images/2kfaces/Google_1_Valerie Noble_9_oval.jpg,0,6,58,live
549,APVWMP5952IOY:3SLE99ER0PK22365QPLSNCQ9FXWZBG,4093,/static/images/2kfaces/Google_1_Tina Middleton_7_oval.jpg,0,7,59,live
550,APVWMP5952IOY:3SLE99ER0PK22365QPLSNCQ9FXWZBG,9349,/static/images/2kfaces/Google_1_Kathleen Sartain_1_oval.jpg,1,5,63,live
551,APVWMP5952IOY:3SLE99ER0PK22365QPLSNCQ9FXWZBG,2710,/static/images/2kfaces/Google_1_Shelley Lund_5_oval.jpg,1,7,64,live
552,APVWMP5952IOY:3SLE99ER0PK22365QPLSNCQ9FXWZBG,2470,/static/images/2kfaces/Google_1_Erika Fletcher_1_oval.jpg,1,6,65,live
553,APVWMP5952IOY:3SLE99ER0PK22365QPLSNCQ9FXWZBG,2677,/static/images/2kfaces/Google_1_Ronald Driver_19_oval.jpg,1,5,66,live
554,APVWMP5952IOY:3SLE99ER0PK22365QPLSNCQ9FXWZBG,3557,/static/images/2kfaces/Google_1_Matthew Vanbuskirk_1_oval.jpg,1,7,67,live
555,APVWMP5952IOY:3SLE99ER0PK22365QPLSNCQ9FXWZBG,8966,/static/images/2kfaces/Google_1_Ernest Crump_3_oval.jpg,1,6,68,live
556,APVWMP5952IOY:3SLE99ER0PK22365QPLSNCQ9FXWZBG,3457,/static/images/2kfaces/Google_1_Sara Guajardo_1_oval.jpg,1,7,69,live
557,APVWMP5952IOY:3SLE99ER0PK22365QPLSNCQ9FXWZBG,3276,/static/images/2kfaces/Google_1_Paul Horst_15_oval.jpg,1,5,70,live
558,APVWMP5952IOY:3SLE99ER0PK22365QPLSNCQ9FXWZBG,2533,/static/images/2kfaces/Google_1_Kenneth Rigsby_15_oval.jpg,1,5,71,live
559,APVWMP5952IOY:3SLE99ER0PK22365QPLSNCQ9FXWZBG,2909,/static/images/2kfaces/Google_1_Frank Whitehouse_3_oval.jpg,1,6,72,live
560,APVWMP5952IOY:3SLE99ER0PK22365QPLSNCQ9FXWZBG,3239,/static/images/2kfaces/Bryan_Shanklin_9_oval.jpg,1,5,74,live
561,APVWMP5952IOY:3SLE99ER0PK22365QPLSNCQ9FXWZBG,2494,/static/images/2kfaces/Google_1_Douglas Tanguay_9_oval.jpg,1,7,75,live
562,APVWMP5952IOY:3SLE99ER0PK22365QPLSNCQ9FXWZBG,6390,/static/images/2kfaces/Google_1_Valerie Noble_9_oval.jpg,1,7,76,live
563,APVWMP5952IOY:3SLE99ER0PK22365QPLSNCQ9FXWZBG,3389,/static/images/2kfaces/Google_1_Russell Gillam_17_oval.jpg,1,6,77,live
564,APVWMP5952IOY:3SLE99ER0PK22365QPLSNCQ9FXWZBG,3095,/static/images/2kfaces/Google_1_Eric Osuna_3_oval.jpg,1,5,78,live
565,APVWMP5952IOY:3SLE99ER0PK22365QPLSNCQ9FXWZBG,5742,/static/images/2kfaces/Google_1_Samuel Goff_1_oval.jpg,1,4,79,live
566,APVWMP5952IOY:3SLE99ER0PK22365QPLSNCQ9FXWZBG,3710,/static/images/2kfaces/Google_1_Donna Asberry_5_oval.jpg,1,4,80,live
567,APVWMP5952IOY:3SLE99ER0PK22365QPLSNCQ9FXWZBG,2685,/static/images/2kfaces/Google_1_Samuel Paschal_17_oval.jpg,1,5,81,live
568,APVWMP5952IOY:3SLE99ER0PK22365QPLSNCQ9FXWZBG,3053,/static/images/2kfaces/Google_1_Gary Nance_3_oval.jpg,1,5,82,live
569,APVWMP5952IOY:3SLE99ER0PK22365QPLSNCQ9FXWZBG,3567,/static/images/2kfaces/Google_1_Paul Reno_1_oval.jpg,1,6,83,live
570,APVWMP5952IOY:3SLE99ER0PK22365QPLSNCQ9FXWZBG,3160,/static/images/2kfaces/Google_1_Steve Stamm_1_oval.jpg,1,7,85,live
571,APVWMP5952IOY:3SLE99ER0PK22365QPLSNCQ9FXWZBG,2981,/static/images/2kfaces/Google_1_Gertrude Bayne_11_oval.jpg,1,4,86,live
572,APVWMP5952IOY:3SLE99ER0PK22365QPLSNCQ9FXWZBG,2742,/static/images/2kfaces/Google_1_Gloria Canada_13_oval.jpg,1,5,87,live
573,APVWMP5952IOY:3SLE99ER0PK22365QPLSNCQ9FXWZBG,2924,/static/images/2kfaces/Google_1_Carole Bentley_7_oval.jpg,1,6,88,live
574,APVWMP5952IOY:3SLE99ER0PK22365QPLSNCQ9FXWZBG,4557,/static/images/2kfaces/Google_1_Timothy Galvan_11_oval.jpg,1,5,89,live
575,APVWMP5952IOY:3SLE99ER0PK22365QPLSNCQ9FXWZBG,14101,/static/images/2kfaces/Google_1_Gary Perri_3_oval.jpg,1,5,90,live
576,APVWMP5952IOY:3SLE99ER0PK22365QPLSNCQ9FXWZBG,3524,/static/images/2kfaces/Google_1_Sarah Woodcock_3_oval.jpg,1,4,91,live
577,APVWMP5952IOY:3SLE99ER0PK22365QPLSNCQ9FXWZBG,3837,/static/images/2kfaces/Google_1_Cheryl Griffin_15_oval.jpg,1,7,92,live
578,APVWMP5952IOY:3SLE99ER0PK22365QPLSNCQ9FXWZBG,6599,/static/images/2kfaces/Google_1_Jonathan Marek_5_oval.jpg,1,5,93,live
579,APVWMP5952IOY:3SLE99ER0PK22365QPLSNCQ9FXWZBG,7710,/static/images/2kfaces/Google_1_Marjorie Rule_3_oval.jpg,1,7,94,live
580,APVWMP5952IOY:3SLE99ER0PK22365QPLSNCQ9FXWZBG,3769,/static/images/2kfaces/Google_1_Alma Poor_7_oval.jpg,1,6,96,live
581,APVWMP5952IOY:3SLE99ER0PK22365QPLSNCQ9FXWZBG,4317,/static/images/2kfaces/Google_1_Claudia Rohrer_13_oval.jpg,1,4,97,live
582,APVWMP5952IOY:3SLE99ER0PK22365QPLSNCQ9FXWZBG,4317,/static/images/2kfaces/Google_1_Mark Houser_17_oval.jpg,1,4,98,live
583,APVWMP5952IOY:3SLE99ER0PK22365QPLSNCQ9FXWZBG,3133,/static/images/2kfaces/Alice_Mckellar_11_oval.jpg,1,6,99,live
584,APVWMP5952IOY:3SLE99ER0PK22365QPLSNCQ9FXWZBG,4237,/static/images/2kfaces/Google_1_Sherry Mcmichael_11_oval.jpg,1,6,100,live
585,APVWMP5952IOY:3SLE99ER0PK22365QPLSNCQ9FXWZBG,2733,/static/images/2kfaces/Google_1_Eva Kirkman_15_oval.jpg,1,4,101,live
586,APVWMP5952IOY:3SLE99ER0PK22365QPLSNCQ9FXWZBG,7109,/static/images/2kfaces/Google_1_Florence Melton_1_oval.jpg,1,5,102,live
587,APVWMP5952IOY:3SLE99ER0PK22365QPLSNCQ9FXWZBG,20327,/static/images/2kfaces/Google_1_Henry Gumm_19_oval.jpg,1,6,103,live
588,APVWMP5952IOY:3SLE99ER0PK22365QPLSNCQ9FXWZBG,3958,/static/images/2kfaces/Google_1_Vera Becker_5_oval.jpg,1,5,104,live
589,APVWMP5952IOY:3SLE99ER0PK22365QPLSNCQ9FXWZBG,3349,/static/images/2kfaces/Google_1_Ryan Marvel_15_oval.jpg,1,7,105,live
590,APVWMP5952IOY:3SLE99ER0PK22365QPLSNCQ9FXWZBG,4813,/static/images/2kfaces/Google_1_Antonio Benn_12_oval.jpg,1,6,107,live
591,APVWMP5952IOY:3SLE99ER0PK22365QPLSNCQ9FXWZBG,3791,/static/images/2kfaces/Google_1_Cindy Morehead_5_oval.jpg,1,4,108,live
592,APVWMP5952IOY:3SLE99ER0PK22365QPLSNCQ9FXWZBG,6438,/static/images/2kfaces/Google_1_Bryan Brunner_3_oval.jpg,1,6,109,live
593,APVWMP5952IOY:3SLE99ER0PK22365QPLSNCQ9FXWZBG,2822,/static/images/2kfaces/Google_1_Andrew Diggs_9_oval.jpg,1,5,110,live
594,APVWMP5952IOY:3SLE99ER0PK22365QPLSNCQ9FXWZBG,3276,/static/images/2kfaces/Google_1_Gregory Arriola_3_oval.jpg,1,6,111,live
595,APVWMP5952IOY:3SLE99ER0PK22365QPLSNCQ9FXWZBG,2990,/static/images/2kfaces/Google_1_Norman Westfall_5_oval.jpg,1,4,112,live
596,APVWMP5952IOY:3SLE99ER0PK22365QPLSNCQ9FXWZBG,2940,/static/images/2kfaces/Google_1_Frank Luke_9_oval.jpg,1,4,113,live
597,APVWMP5952IOY:3SLE99ER0PK22365QPLSNCQ9FXWZBG,2869,/static/images/2kfaces/Google_1_Louis Mceachern_7_oval.jpg,1,3,114,live
598,APVWMP5952IOY:3SLE99ER0PK22365QPLSNCQ9FXWZBG,2974,/static/images/2kfaces/Google_1_Kenneth Cabral_19_oval.jpg,1,4,115,live
599,APVWMP5952IOY:3SLE99ER0PK22365QPLSNCQ9FXWZBG,3140,/static/images/2kfaces/Google_1_Tina Middleton_7_oval.jpg,1,6,116,live
600,A3OHRFXPEKQMIE:34S6N1K2ZXQSORSNBG4F18I9V3AHLG,6023,/static/images/2kfaces/Google_1_Eva Kirkman_15_oval.jpg,0,3,7,live
601,A3OHRFXPEKQMIE:34S6N1K2ZXQSORSNBG4F18I9V3AHLG,3793,/static/images/2kfaces/Google_1_Kenneth Rigsby_15_oval.jpg,0,4,8,live
602,A3OHRFXPEKQMIE:34S6N1K2ZXQSORSNBG4F18I9V3AHLG,4545,/static/images/2kfaces/Google_1_Cindy Morehead_5_oval.jpg,0,5,9,live
603,A3OHRFXPEKQMIE:34S6N1K2ZXQSORSNBG4F18I9V3AHLG,3775,/static/images/2kfaces/Google_1_Marjorie Rule_3_oval.jpg,0,4,10,live
604,A3OHRFXPEKQMIE:34S6N1K2ZXQSORSNBG4F18I9V3AHLG,3635,/static/images/2kfaces/Google_1_Bryan Brunner_3_oval.jpg,0,3,11,live
605,A3OHRFXPEKQMIE:34S6N1K2ZXQSORSNBG4F18I9V3AHLG,8984,/static/images/2kfaces/Google_1_Alma Poor_7_oval.jpg,0,6,12,live
606,A3OHRFXPEKQMIE:34S6N1K2ZXQSORSNBG4F18I9V3AHLG,3644,/static/images/2kfaces/Alice_Mckellar_11_oval.jpg,0,4,13,live
607,A3OHRFXPEKQMIE:34S6N1K2ZXQSORSNBG4F18I9V3AHLG,6104,/static/images/2kfaces/Google_1_Ryan Marvel_15_oval.jpg,0,4,14,live
608,A3OHRFXPEKQMIE:34S6N1K2ZXQSORSNBG4F18I9V3AHLG,3562,/static/images/2kfaces/Google_1_Vera Becker_5_oval.jpg,0,5,15,live
609,A3OHRFXPEKQMIE:34S6N1K2ZXQSORSNBG4F18I9V3AHLG,3119,/static/images/2kfaces/Google_1_Sherry Mcmichael_11_oval.jpg,0,4,16,live
610,A3OHRFXPEKQMIE:34S6N1K2ZXQSORSNBG4F18I9V3AHLG,4352,/static/images/2kfaces/Google_1_Timothy Galvan_11_oval.jpg,0,4,18,live
611,A3OHRFXPEKQMIE:34S6N1K2ZXQSORSNBG4F18I9V3AHLG,3456,/static/images/2kfaces/Google_1_Louis Mceachern_7_oval.jpg,0,3,19,live
612,A3OHRFXPEKQMIE:34S6N1K2ZXQSORSNBG4F18I9V3AHLG,4662,/static/images/2kfaces/Google_1_Andrew Diggs_9_oval.jpg,0,2,20,live
613,A3OHRFXPEKQMIE:34S6N1K2ZXQSORSNBG4F18I9V3AHLG,3570,/static/images/2kfaces/Google_1_Sara Guajardo_1_oval.jpg,0,6,21,live
614,A3OHRFXPEKQMIE:34S6N1K2ZXQSORSNBG4F18I9V3AHLG,3246,/static/images/2kfaces/Google_1_Eric Osuna_3_oval.jpg,0,4,22,live
615,A3OHRFXPEKQMIE:34S6N1K2ZXQSORSNBG4F18I9V3AHLG,3406,/static/images/2kfaces/Google_1_Samuel Goff_1_oval.jpg,0,3,23,live
616,A3OHRFXPEKQMIE:34S6N1K2ZXQSORSNBG4F18I9V3AHLG,3652,/static/images/2kfaces/Google_1_Douglas Tanguay_9_oval.jpg,0,7,24,live
617,A3OHRFXPEKQMIE:34S6N1K2ZXQSORSNBG4F18I9V3AHLG,4342,/static/images/2kfaces/Google_1_Kenneth Cabral_19_oval.jpg,0,4,25,live
618,A3OHRFXPEKQMIE:34S6N1K2ZXQSORSNBG4F18I9V3AHLG,5133,/static/images/2kfaces/Google_1_Gregory Arriola_3_oval.jpg,0,4,26,live
619,A3OHRFXPEKQMIE:34S6N1K2ZXQSORSNBG4F18I9V3AHLG,4557,/static/images/2kfaces/Google_1_Frank Whitehouse_3_oval.jpg,0,2,27,live
620,A3OHRFXPEKQMIE:34S6N1K2ZXQSORSNBG4F18I9V3AHLG,4429,/static/images/2kfaces/Google_1_Florence Melton_1_oval.jpg,0,4,29,live
621,A3OHRFXPEKQMIE:34S6N1K2ZXQSORSNBG4F18I9V3AHLG,3276,/static/images/2kfaces/Google_1_Paul Reno_1_oval.jpg,0,4,30,live
622,A3OHRFXPEKQMIE:34S6N1K2ZXQSORSNBG4F18I9V3AHLG,3786,/static/images/2kfaces/Google_1_Antonio Benn_12_oval.jpg,0,6,31,live
623,A3OHRFXPEKQMIE:34S6N1K2ZXQSORSNBG4F18I9V3AHLG,5844,/static/images/2kfaces/Google_1_Claudia Rohrer_13_oval.jpg,0,1,32,live
624,A3OHRFXPEKQMIE:34S6N1K2ZXQSORSNBG4F18I9V3AHLG,6407,/static/images/2kfaces/Google_1_Frank Luke_9_oval.jpg,0,3,33,live
625,A3OHRFXPEKQMIE:34S6N1K2ZXQSORSNBG4F18I9V3AHLG,3719,/static/images/2kfaces/Google_1_Samuel Paschal_17_oval.jpg,0,6,34,live
626,A3OHRFXPEKQMIE:34S6N1K2ZXQSORSNBG4F18I9V3AHLG,3910,/static/images/2kfaces/Google_1_Cheryl Griffin_15_oval.jpg,0,8,35,live
627,A3OHRFXPEKQMIE:34S6N1K2ZXQSORSNBG4F18I9V3AHLG,5300,/static/images/2kfaces/Google_1_Erika Fletcher_1_oval.jpg,0,5,36,live
628,A3OHRFXPEKQMIE:34S6N1K2ZXQSORSNBG4F18I9V3AHLG,3302,/static/images/2kfaces/Google_1_Jonathan Marek_5_oval.jpg,0,3,37,live
629,A3OHRFXPEKQMIE:34S6N1K2ZXQSORSNBG4F18I9V3AHLG,3694,/static/images/2kfaces/Google_1_Russell Gillam_17_oval.jpg,0,4,38,live
630,A3OHRFXPEKQMIE:34S6N1K2ZXQSORSNBG4F18I9V3AHLG,3784,/static/images/2kfaces/Google_1_Paul Horst_15_oval.jpg,0,8,40,live
631,A3OHRFXPEKQMIE:34S6N1K2ZXQSORSNBG4F18I9V3AHLG,3077,/static/images/2kfaces/Google_1_Gary Perri_3_oval.jpg,0,6,41,live
632,A3OHRFXPEKQMIE:34S6N1K2ZXQSORSNBG4F18I9V3AHLG,3735,/static/images/2kfaces/Google_1_Mark Houser_17_oval.jpg,0,3,42,live
633,A3OHRFXPEKQMIE:34S6N1K2ZXQSORSNBG4F18I9V3AHLG,4697,/static/images/2kfaces/Google_1_Gertrude Bayne_11_oval.jpg,0,3,43,live
634,A3OHRFXPEKQMIE:34S6N1K2ZXQSORSNBG4F18I9V3AHLG,3663,/static/images/2kfaces/Google_1_Shelley Lund_5_oval.jpg,0,6,44,live
635,A3OHRFXPEKQMIE:34S6N1K2ZXQSORSNBG4F18I9V3AHLG,4963,/static/images/2kfaces/Google_1_Ernest Crump_3_oval.jpg,0,7,45,live
636,A3OHRFXPEKQMIE:34S6N1K2ZXQSORSNBG4F18I9V3AHLG,3660,/static/images/2kfaces/Google_1_Valerie Noble_9_oval.jpg,0,5,46,live
637,A3OHRFXPEKQMIE:34S6N1K2ZXQSORSNBG4F18I9V3AHLG,3402,/static/images/2kfaces/Google_1_Gary Nance_3_oval.jpg,0,4,47,live
638,A3OHRFXPEKQMIE:34S6N1K2ZXQSORSNBG4F18I9V3AHLG,5060,/static/images/2kfaces/Google_1_Gloria Canada_13_oval.jpg,0,3,48,live
639,A3OHRFXPEKQMIE:34S6N1K2ZXQSORSNBG4F18I9V3AHLG,3982,/static/images/2kfaces/Google_1_Ronald Driver_19_oval.jpg,0,8,49,live
640,A3OHRFXPEKQMIE:34S6N1K2ZXQSORSNBG4F18I9V3AHLG,13137,/static/images/2kfaces/Google_1_Donna Asberry_5_oval.jpg,0,4,51,live
641,A3OHRFXPEKQMIE:34S6N1K2ZXQSORSNBG4F18I9V3AHLG,3898,/static/images/2kfaces/Google_1_Kathleen Sartain_1_oval.jpg,0,6,52,live
642,A3OHRFXPEKQMIE:34S6N1K2ZXQSORSNBG4F18I9V3AHLG,7709,/static/images/2kfaces/Google_1_Carole Bentley_7_oval.jpg,0,7,53,live
643,A3OHRFXPEKQMIE:34S6N1K2ZXQSORSNBG4F18I9V3AHLG,3690,/static/images/2kfaces/Google_1_Norman Westfall_5_oval.jpg,0,4,54,live
644,A3OHRFXPEKQMIE:34S6N1K2ZXQSORSNBG4F18I9V3AHLG,4515,/static/images/2kfaces/Google_1_Sarah Woodcock_3_oval.jpg,0,9,55,live
645,A3OHRFXPEKQMIE:34S6N1K2ZXQSORSNBG4F18I9V3AHLG,3740,/static/images/2kfaces/Google_1_Matthew Vanbuskirk_1_oval.jpg,0,5,56,live
646,A3OHRFXPEKQMIE:34S6N1K2ZXQSORSNBG4F18I9V3AHLG,2986,/static/images/2kfaces/Google_1_Henry Gumm_19_oval.jpg,0,4,57,live
647,A3OHRFXPEKQMIE:34S6N1K2ZXQSORSNBG4F18I9V3AHLG,3140,/static/images/2kfaces/Google_1_Steve Stamm_1_oval.jpg,0,6,58,live
648,A3OHRFXPEKQMIE:34S6N1K2ZXQSORSNBG4F18I9V3AHLG,4781,/static/images/2kfaces/Bryan_Shanklin_9_oval.jpg,0,3,59,live
649,A3OHRFXPEKQMIE:34S6N1K2ZXQSORSNBG4F18I9V3AHLG,3279,/static/images/2kfaces/Google_1_Tina Middleton_7_oval.jpg,0,4,60,live
650,A3OHRFXPEKQMIE:34S6N1K2ZXQSORSNBG4F18I9V3AHLG,4031,/static/images/2kfaces/Google_1_Cindy Morehead_5_oval.jpg,1,6,64,live
651,A3OHRFXPEKQMIE:34S6N1K2ZXQSORSNBG4F18I9V3AHLG,3270,/static/images/2kfaces/Google_1_Gary Perri_3_oval.jpg,1,6,65,live
652,A3OHRFXPEKQMIE:34S6N1K2ZXQSORSNBG4F18I9V3AHLG,3536,/static/images/2kfaces/Google_1_Bryan Brunner_3_oval.jpg,1,4,66,live
653,A3OHRFXPEKQMIE:34S6N1K2ZXQSORSNBG4F18I9V3AHLG,3134,/static/images/2kfaces/Google_1_Gertrude Bayne_11_oval.jpg,1,3,67,live
654,A3OHRFXPEKQMIE:34S6N1K2ZXQSORSNBG4F18I9V3AHLG,3505,/static/images/2kfaces/Google_1_Valerie Noble_9_oval.jpg,1,7,68,live
655,A3OHRFXPEKQMIE:34S6N1K2ZXQSORSNBG4F18I9V3AHLG,4785,/static/images/2kfaces/Google_1_Erika Fletcher_1_oval.jpg,1,6,69,live
656,A3OHRFXPEKQMIE:34S6N1K2ZXQSORSNBG4F18I9V3AHLG,5042,/static/images/2kfaces/Google_1_Sara Guajardo_1_oval.jpg,1,6,70,live
657,A3OHRFXPEKQMIE:34S6N1K2ZXQSORSNBG4F18I9V3AHLG,5356,/static/images/2kfaces/Alice_Mckellar_11_oval.jpg,1,7,71,live
658,A3OHRFXPEKQMIE:34S6N1K2ZXQSORSNBG4F18I9V3AHLG,5308,/static/images/2kfaces/Google_1_Samuel Paschal_17_oval.jpg,1,6,72,live
659,A3OHRFXPEKQMIE:34S6N1K2ZXQSORSNBG4F18I9V3AHLG,3025,/static/images/2kfaces/Google_1_Tina Middleton_7_oval.jpg,1,6,73,live
660,A3OHRFXPEKQMIE:34S6N1K2ZXQSORSNBG4F18I9V3AHLG,5259,/static/images/2kfaces/Google_1_Alma Poor_7_oval.jpg,1,9,75,live
661,A3OHRFXPEKQMIE:34S6N1K2ZXQSORSNBG4F18I9V3AHLG,3244,/static/images/2kfaces/Google_1_Gregory Arriola_3_oval.jpg,1,6,76,live
662,A3OHRFXPEKQMIE:34S6N1K2ZXQSORSNBG4F18I9V3AHLG,3718,/static/images/2kfaces/Google_1_Frank Whitehouse_3_oval.jpg,1,2,77,live
663,A3OHRFXPEKQMIE:34S6N1K2ZXQSORSNBG4F18I9V3AHLG,3341,/static/images/2kfaces/Google_1_Louis Mceachern_7_oval.jpg,1,3,78,live
664,A3OHRFXPEKQMIE:34S6N1K2ZXQSORSNBG4F18I9V3AHLG,3434,/static/images/2kfaces/Google_1_Norman Westfall_5_oval.jpg,1,3,79,live
665,A3OHRFXPEKQMIE:34S6N1K2ZXQSORSNBG4F18I9V3AHLG,3091,/static/images/2kfaces/Google_1_Mark Houser_17_oval.jpg,1,3,80,live
666,A3OHRFXPEKQMIE:34S6N1K2ZXQSORSNBG4F18I9V3AHLG,3622,/static/images/2kfaces/Google_1_Kenneth Rigsby_15_oval.jpg,1,4,81,live
667,A3OHRFXPEKQMIE:34S6N1K2ZXQSORSNBG4F18I9V3AHLG,3087,/static/images/2kfaces/Google_1_Vera Becker_5_oval.jpg,1,7,82,live
668,A3OHRFXPEKQMIE:34S6N1K2ZXQSORSNBG4F18I9V3AHLG,3512,/static/images/2kfaces/Google_1_Sherry Mcmichael_11_oval.jpg,1,7,83,live
669,A3OHRFXPEKQMIE:34S6N1K2ZXQSORSNBG4F18I9V3AHLG,3605,/static/images/2kfaces/Google_1_Donna Asberry_5_oval.jpg,1,6,84,live
670,A3OHRFXPEKQMIE:34S6N1K2ZXQSORSNBG4F18I9V3AHLG,3956,/static/images/2kfaces/Google_1_Ryan Marvel_15_oval.jpg,1,7,86,live
671,A3OHRFXPEKQMIE:34S6N1K2ZXQSORSNBG4F18I9V3AHLG,3201,/static/images/2kfaces/Google_1_Samuel Goff_1_oval.jpg,1,4,87,live
672,A3OHRFXPEKQMIE:34S6N1K2ZXQSORSNBG4F18I9V3AHLG,3103,/static/images/2kfaces/Google_1_Frank Luke_9_oval.jpg,1,4,88,live
673,A3OHRFXPEKQMIE:34S6N1K2ZXQSORSNBG4F18I9V3AHLG,2946,/static/images/2kfaces/Google_1_Jonathan Marek_5_oval.jpg,1,3,89,live
674,A3OHRFXPEKQMIE:34S6N1K2ZXQSORSNBG4F18I9V3AHLG,5485,/static/images/2kfaces/Google_1_Gloria Canada_13_oval.jpg,1,4,90,live
675,A3OHRFXPEKQMIE:34S6N1K2ZXQSORSNBG4F18I9V3AHLG,4738,/static/images/2kfaces/Google_1_Sarah Woodcock_3_oval.jpg,1,8,91,live
676,A3OHRFXPEKQMIE:34S6N1K2ZXQSORSNBG4F18I9V3AHLG,3163,/static/images/2kfaces/Google_1_Eric Osuna_3_oval.jpg,1,4,92,live
677,A3OHRFXPEKQMIE:34S6N1K2ZXQSORSNBG4F18I9V3AHLG,3591,/static/images/2kfaces/Google_1_Ernest Crump_3_oval.jpg,1,7,93,live
678,A3OHRFXPEKQMIE:34S6N1K2ZXQSORSNBG4F18I9V3AHLG,3526,/static/images/2kfaces/Google_1_Claudia Rohrer_13_oval.jpg,1,2,94,live
679,A3OHRFXPEKQMIE:34S6N1K2ZXQSORSNBG4F18I9V3AHLG,3715,/static/images/2kfaces/Google_1_Shelley Lund_5_oval.jpg,1,7,95,live
680,A3OHRFXPEKQMIE:34S6N1K2ZXQSORSNBG4F18I9V3AHLG,3668,/static/images/2kfaces/Google_1_Russell Gillam_17_oval.jpg,1,5,97,live
681,A3OHRFXPEKQMIE:34S6N1K2ZXQSORSNBG4F18I9V3AHLG,3457,/static/images/2kfaces/Google_1_Gary Nance_3_oval.jpg,1,6,98,live
682,A3OHRFXPEKQMIE:34S6N1K2ZXQSORSNBG4F18I9V3AHLG,3590,/static/images/2kfaces/Google_1_Ronald Driver_19_oval.jpg,1,8,99,live
683,A3OHRFXPEKQMIE:34S6N1K2ZXQSORSNBG4F18I9V3AHLG,3760,/static/images/2kfaces/Google_1_Timothy Galvan_11_oval.jpg,1,4,100,live
684,A3OHRFXPEKQMIE:34S6N1K2ZXQSORSNBG4F18I9V3AHLG,3130,/static/images/2kfaces/Google_1_Eva Kirkman_15_oval.jpg,1,4,101,live
685,A3OHRFXPEKQMIE:34S6N1K2ZXQSORSNBG4F18I9V3AHLG,2906,/static/images/2kfaces/Google_1_Antonio Benn_12_oval.jpg,1,6,102,live
686,A3OHRFXPEKQMIE:34S6N1K2ZXQSORSNBG4F18I9V3AHLG,3521,/static/images/2kfaces/Google_1_Florence Melton_1_oval.jpg,1,6,103,live
687,A3OHRFXPEKQMIE:34S6N1K2ZXQSORSNBG4F18I9V3AHLG,3767,/static/images/2kfaces/Google_1_Paul Horst_15_oval.jpg,1,7,104,live
688,A3OHRFXPEKQMIE:34S6N1K2ZXQSORSNBG4F18I9V3AHLG,8293,/static/images/2kfaces/Google_1_Carole Bentley_7_oval.jpg,1,8,105,live
689,A3OHRFXPEKQMIE:34S6N1K2ZXQSORSNBG4F18I9V3AHLG,5123,/static/images/2kfaces/Google_1_Marjorie Rule_3_oval.jpg,1,5,106,live
690,A3OHRFXPEKQMIE:34S6N1K2ZXQSORSNBG4F18I9V3AHLG,3982,/static/images/2kfaces/Google_1_Cheryl Griffin_15_oval.jpg,1,9,108,live
691,A3OHRFXPEKQMIE:34S6N1K2ZXQSORSNBG4F18I9V3AHLG,3204,/static/images/2kfaces/Google_1_Matthew Vanbuskirk_1_oval.jpg,1,4,109,live
692,A3OHRFXPEKQMIE:34S6N1K2ZXQSORSNBG4F18I9V3AHLG,3557,/static/images/2kfaces/Google_1_Paul Reno_1_oval.jpg,1,4,110,live
693,A3OHRFXPEKQMIE:34S6N1K2ZXQSORSNBG4F18I9V3AHLG,3240,/static/images/2kfaces/Bryan_Shanklin_9_oval.jpg,1,3,111,live
694,A3OHRFXPEKQMIE:34S6N1K2ZXQSORSNBG4F18I9V3AHLG,3473,/static/images/2kfaces/Google_1_Douglas Tanguay_9_oval.jpg,1,7,112,live
695,A3OHRFXPEKQMIE:34S6N1K2ZXQSORSNBG4F18I9V3AHLG,3610,/static/images/2kfaces/Google_1_Henry Gumm_19_oval.jpg,1,6,113,live
696,A3OHRFXPEKQMIE:34S6N1K2ZXQSORSNBG4F18I9V3AHLG,3447,/static/images/2kfaces/Google_1_Kathleen Sartain_1_oval.jpg,1,6,114,live
697,A3OHRFXPEKQMIE:34S6N1K2ZXQSORSNBG4F18I9V3AHLG,3769,/static/images/2kfaces/Google_1_Andrew Diggs_9_oval.jpg,1,3,115,live
698,A3OHRFXPEKQMIE:34S6N1K2ZXQSORSNBG4F18I9V3AHLG,3439,/static/images/2kfaces/Google_1_Kenneth Cabral_19_oval.jpg,1,4,116,live
699,A3OHRFXPEKQMIE:34S6N1K2ZXQSORSNBG4F18I9V3AHLG,3326,/static/images/2kfaces/Google_1_Steve Stamm_1_oval.jpg,1,6,117,live
700,A149XKIX8E4E1:31LM9EDVONZE3XQYBTNFQD2DDQEJNP,9942,/static/images/2kfaces/Google_1_Frank Luke_9_oval.jpg,0,3,6,live
701,A149XKIX8E4E1:31LM9EDVONZE3XQYBTNFQD2DDQEJNP,5852,/static/images/2kfaces/Google_1_Ernest Crump_3_oval.jpg,0,4,7,live
702,A149XKIX8E4E1:31LM9EDVONZE3XQYBTNFQD2DDQEJNP,16159,/static/images/2kfaces/Google_1_Ronald Driver_19_oval.jpg,0,7,8,live
703,A149XKIX8E4E1:31LM9EDVONZE3XQYBTNFQD2DDQEJNP,7154,/static/images/2kfaces/Google_1_Gregory Arriola_3_oval.jpg,0,6,9,live
704,A149XKIX8E4E1:31LM9EDVONZE3XQYBTNFQD2DDQEJNP,10648,/static/images/2kfaces/Google_1_Gary Nance_3_oval.jpg,0,3,10,live
705,A149XKIX8E4E1:31LM9EDVONZE3XQYBTNFQD2DDQEJNP,10361,/static/images/2kfaces/Google_1_Cheryl Griffin_15_oval.jpg,0,6,11,live
706,A149XKIX8E4E1:31LM9EDVONZE3XQYBTNFQD2DDQEJNP,6528,/static/images/2kfaces/Google_1_Kenneth Cabral_19_oval.jpg,0,2,12,live
707,A149XKIX8E4E1:31LM9EDVONZE3XQYBTNFQD2DDQEJNP,12655,/static/images/2kfaces/Google_1_Vera Becker_5_oval.jpg,0,1,13,live
708,A149XKIX8E4E1:31LM9EDVONZE3XQYBTNFQD2DDQEJNP,10094,/static/images/2kfaces/Bryan_Shanklin_9_oval.jpg,0,1,14,live
709,A149XKIX8E4E1:31LM9EDVONZE3XQYBTNFQD2DDQEJNP,7782,/static/images/2kfaces/Google_1_Erika Fletcher_1_oval.jpg,0,8,15,live
710,A149XKIX8E4E1:31LM9EDVONZE3XQYBTNFQD2DDQEJNP,5193,/static/images/2kfaces/Google_1_Gary Perri_3_oval.jpg,0,4,17,live
711,A149XKIX8E4E1:31LM9EDVONZE3XQYBTNFQD2DDQEJNP,5240,/static/images/2kfaces/Google_1_Sara Guajardo_1_oval.jpg,0,5,18,live
712,A149XKIX8E4E1:31LM9EDVONZE3XQYBTNFQD2DDQEJNP,6509,/static/images/2kfaces/Google_1_Eva Kirkman_15_oval.jpg,0,1,19,live
713,A149XKIX8E4E1:31LM9EDVONZE3XQYBTNFQD2DDQEJNP,7281,/static/images/2kfaces/Google_1_Carole Bentley_7_oval.jpg,0,6,20,live
714,A149XKIX8E4E1:31LM9EDVONZE3XQYBTNFQD2DDQEJNP,5081,/static/images/2kfaces/Google_1_Donna Asberry_5_oval.jpg,0,3,21,live
715,A149XKIX8E4E1:31LM9EDVONZE3XQYBTNFQD2DDQEJNP,11319,/static/images/2kfaces/Google_1_Sarah Woodcock_3_oval.jpg,0,6,22,live
716,A149XKIX8E4E1:31LM9EDVONZE3XQYBTNFQD2DDQEJNP,3732,/static/images/2kfaces/Google_1_Samuel Paschal_17_oval.jpg,0,1,23,live
717,A149XKIX8E4E1:31LM9EDVONZE3XQYBTNFQD2DDQEJNP,4270,/static/images/2kfaces/Google_1_Valerie Noble_9_oval.jpg,0,6,24,live
718,A149XKIX8E4E1:31LM9EDVONZE3XQYBTNFQD2DDQEJNP,7077,/static/images/2kfaces/Google_1_Florence Melton_1_oval.jpg,0,1,25,live
719,A149XKIX8E4E1:31LM9EDVONZE3XQYBTNFQD2DDQEJNP,12394,/static/images/2kfaces/Google_1_Jonathan Marek_5_oval.jpg,0,2,26,live
720,A149XKIX8E4E1:31LM9EDVONZE3XQYBTNFQD2DDQEJNP,4317,/static/images/2kfaces/Google_1_Marjorie Rule_3_oval.jpg,0,4,28,live
721,A149XKIX8E4E1:31LM9EDVONZE3XQYBTNFQD2DDQEJNP,3717,/static/images/2kfaces/Google_1_Andrew Diggs_9_oval.jpg,0,2,29,live
722,A149XKIX8E4E1:31LM9EDVONZE3XQYBTNFQD2DDQEJNP,4131,/static/images/2kfaces/Google_1_Kenneth Rigsby_15_oval.jpg,0,1,30,live
723,A149XKIX8E4E1:31LM9EDVONZE3XQYBTNFQD2DDQEJNP,7198,/static/images/2kfaces/Google_1_Antonio Benn_12_oval.jpg,0,5,31,live
724,A149XKIX8E4E1:31LM9EDVONZE3XQYBTNFQD2DDQEJNP,4617,/static/images/2kfaces/Google_1_Alma Poor_7_oval.jpg,0,7,32,live
725,A149XKIX8E4E1:31LM9EDVONZE3XQYBTNFQD2DDQEJNP,3697,/static/images/2kfaces/Google_1_Mark Houser_17_oval.jpg,0,6,33,live
726,A149XKIX8E4E1:31LM9EDVONZE3XQYBTNFQD2DDQEJNP,6518,/static/images/2kfaces/Google_1_Russell Gillam_17_oval.jpg,0,6,34,live
727,A149XKIX8E4E1:31LM9EDVONZE3XQYBTNFQD2DDQEJNP,6055,/static/images/2kfaces/Google_1_Frank Whitehouse_3_oval.jpg,0,1,35,live
728,A149XKIX8E4E1:31LM9EDVONZE3XQYBTNFQD2DDQEJNP,7183,/static/images/2kfaces/Alice_Mckellar_11_oval.jpg,0,6,36,live
729,A149XKIX8E4E1:31LM9EDVONZE3XQYBTNFQD2DDQEJNP,2929,/static/images/2kfaces/Google_1_Gloria Canada_13_oval.jpg,0,1,37,live
730,A149XKIX8E4E1:31LM9EDVONZE3XQYBTNFQD2DDQEJNP,8242,/static/images/2kfaces/Google_1_Timothy Galvan_11_oval.jpg,0,7,39,live
731,A149XKIX8E4E1:31LM9EDVONZE3XQYBTNFQD2DDQEJNP,11068,/static/images/2kfaces/Google_1_Henry Gumm_19_oval.jpg,0,2,40,live
732,A149XKIX8E4E1:31LM9EDVONZE3XQYBTNFQD2DDQEJNP,3409,/static/images/2kfaces/Google_1_Gertrude Bayne_11_oval.jpg,0,1,41,live
733,A149XKIX8E4E1:31LM9EDVONZE3XQYBTNFQD2DDQEJNP,2938,/static/images/2kfaces/Google_1_Claudia Rohrer_13_oval.jpg,0,1,42,live
734,A149XKIX8E4E1:31LM9EDVONZE3XQYBTNFQD2DDQEJNP,3166,/static/images/2kfaces/Google_1_Samuel Goff_1_oval.jpg,0,1,43,live
735,A149XKIX8E4E1:31LM9EDVONZE3XQYBTNFQD2DDQEJNP,4470,/static/images/2kfaces/Google_1_Paul Reno_1_oval.jpg,0,4,44,live
736,A149XKIX8E4E1:31LM9EDVONZE3XQYBTNFQD2DDQEJNP,6322,/static/images/2kfaces/Google_1_Tina Middleton_7_oval.jpg,0,1,45,live
737,A149XKIX8E4E1:31LM9EDVONZE3XQYBTNFQD2DDQEJNP,5270,/static/images/2kfaces/Google_1_Eric Osuna_3_oval.jpg,0,4,46,live
738,A149XKIX8E4E1:31LM9EDVONZE3XQYBTNFQD2DDQEJNP,5347,/static/images/2kfaces/Google_1_Steve Stamm_1_oval.jpg,0,5,47,live
739,A149XKIX8E4E1:31LM9EDVONZE3XQYBTNFQD2DDQEJNP,6718,/static/images/2kfaces/Google_1_Louis Mceachern_7_oval.jpg,0,4,48,live
740,A149XKIX8E4E1:31LM9EDVONZE3XQYBTNFQD2DDQEJNP,5072,/static/images/2kfaces/Google_1_Paul Horst_15_oval.jpg,0,5,50,live
741,A149XKIX8E4E1:31LM9EDVONZE3XQYBTNFQD2DDQEJNP,6764,/static/images/2kfaces/Google_1_Sherry Mcmichael_11_oval.jpg,0,5,51,live
742,A149XKIX8E4E1:31LM9EDVONZE3XQYBTNFQD2DDQEJNP,5672,/static/images/2kfaces/Google_1_Kathleen Sartain_1_oval.jpg,0,7,52,live
743,A149XKIX8E4E1:31LM9EDVONZE3XQYBTNFQD2DDQEJNP,5523,/static/images/2kfaces/Google_1_Matthew Vanbuskirk_1_oval.jpg,0,6,53,live
744,A149XKIX8E4E1:31LM9EDVONZE3XQYBTNFQD2DDQEJNP,30541,/static/images/2kfaces/Google_1_Ryan Marvel_15_oval.jpg,0,9,54,live
745,A149XKIX8E4E1:31LM9EDVONZE3XQYBTNFQD2DDQEJNP,11960,/static/images/2kfaces/Google_1_Bryan Brunner_3_oval.jpg,0,2,55,live
746,A149XKIX8E4E1:31LM9EDVONZE3XQYBTNFQD2DDQEJNP,4027,/static/images/2kfaces/Google_1_Douglas Tanguay_9_oval.jpg,0,4,56,live
747,A149XKIX8E4E1:31LM9EDVONZE3XQYBTNFQD2DDQEJNP,8645,/static/images/2kfaces/Google_1_Cindy Morehead_5_oval.jpg,0,1,57,live
748,A149XKIX8E4E1:31LM9EDVONZE3XQYBTNFQD2DDQEJNP,4804,/static/images/2kfaces/Google_1_Shelley Lund_5_oval.jpg,0,3,58,live
749,A149XKIX8E4E1:31LM9EDVONZE3XQYBTNFQD2DDQEJNP,3664,/static/images/2kfaces/Google_1_Norman Westfall_5_oval.jpg,0,1,59,live
750,A149XKIX8E4E1:31LM9EDVONZE3XQYBTNFQD2DDQEJNP,3416,/static/images/2kfaces/Google_1_Jonathan Marek_5_oval.jpg,1,2,63,live
751,A149XKIX8E4E1:31LM9EDVONZE3XQYBTNFQD2DDQEJNP,4108,/static/images/2kfaces/Google_1_Paul Reno_1_oval.jpg,1,4,64,live
752,A149XKIX8E4E1:31LM9EDVONZE3XQYBTNFQD2DDQEJNP,2371,/static/images/2kfaces/Google_1_Claudia Rohrer_13_oval.jpg,1,1,65,live
753,A149XKIX8E4E1:31LM9EDVONZE3XQYBTNFQD2DDQEJNP,2923,/static/images/2kfaces/Google_1_Russell Gillam_17_oval.jpg,1,7,66,live
754,A149XKIX8E4E1:31LM9EDVONZE3XQYBTNFQD2DDQEJNP,2781,/static/images/2kfaces/Google_1_Shelley Lund_5_oval.jpg,1,3,67,live
755,A149XKIX8E4E1:31LM9EDVONZE3XQYBTNFQD2DDQEJNP,8343,/static/images/2kfaces/Google_1_Sarah Woodcock_3_oval.jpg,1,7,68,live
756,A149XKIX8E4E1:31LM9EDVONZE3XQYBTNFQD2DDQEJNP,8834,/static/images/2kfaces/Google_1_Sherry Mcmichael_11_oval.jpg,1,5,69,live
757,A149XKIX8E4E1:31LM9EDVONZE3XQYBTNFQD2DDQEJNP,3634,/static/images/2kfaces/Google_1_Tina Middleton_7_oval.jpg,1,1,70,live
758,A149XKIX8E4E1:31LM9EDVONZE3XQYBTNFQD2DDQEJNP,3683,/static/images/2kfaces/Google_1_Steve Stamm_1_oval.jpg,1,6,71,live
759,A149XKIX8E4E1:31LM9EDVONZE3XQYBTNFQD2DDQEJNP,2800,/static/images/2kfaces/Google_1_Vera Becker_5_oval.jpg,1,1,72,live
760,A149XKIX8E4E1:31LM9EDVONZE3XQYBTNFQD2DDQEJNP,2479,/static/images/2kfaces/Google_1_Kenneth Rigsby_15_oval.jpg,1,1,74,live
761,A149XKIX8E4E1:31LM9EDVONZE3XQYBTNFQD2DDQEJNP,5240,/static/images/2kfaces/Google_1_Kathleen Sartain_1_oval.jpg,1,8,75,live
762,A149XKIX8E4E1:31LM9EDVONZE3XQYBTNFQD2DDQEJNP,2319,/static/images/2kfaces/Google_1_Samuel Goff_1_oval.jpg,1,1,76,live
763,A149XKIX8E4E1:31LM9EDVONZE3XQYBTNFQD2DDQEJNP,2370,/static/images/2kfaces/Google_1_Cindy Morehead_5_oval.jpg,1,1,77,live
764,A149XKIX8E4E1:31LM9EDVONZE3XQYBTNFQD2DDQEJNP,11840,/static/images/2kfaces/Alice_Mckellar_11_oval.jpg,1,6,78,live
765,A149XKIX8E4E1:31LM9EDVONZE3XQYBTNFQD2DDQEJNP,4188,/static/images/2kfaces/Google_1_Kenneth Cabral_19_oval.jpg,1,2,79,live
766,A149XKIX8E4E1:31LM9EDVONZE3XQYBTNFQD2DDQEJNP,3518,/static/images/2kfaces/Google_1_Ryan Marvel_15_oval.jpg,1,9,80,live
767,A149XKIX8E4E1:31LM9EDVONZE3XQYBTNFQD2DDQEJNP,2935,/static/images/2kfaces/Bryan_Shanklin_9_oval.jpg,1,1,81,live
768,A149XKIX8E4E1:31LM9EDVONZE3XQYBTNFQD2DDQEJNP,4679,/static/images/2kfaces/Google_1_Eva Kirkman_15_oval.jpg,1,1,82,live
769,A149XKIX8E4E1:31LM9EDVONZE3XQYBTNFQD2DDQEJNP,2871,/static/images/2kfaces/Google_1_Bryan Brunner_3_oval.jpg,1,1,83,live
770,A149XKIX8E4E1:31LM9EDVONZE3XQYBTNFQD2DDQEJNP,4175,/static/images/2kfaces/Google_1_Marjorie Rule_3_oval.jpg,1,2,85,live
771,A149XKIX8E4E1:31LM9EDVONZE3XQYBTNFQD2DDQEJNP,5520,/static/images/2kfaces/Google_1_Frank Luke_9_oval.jpg,1,2,86,live
772,A149XKIX8E4E1:31LM9EDVONZE3XQYBTNFQD2DDQEJNP,5521,/static/images/2kfaces/Google_1_Erika Fletcher_1_oval.jpg,1,8,87,live
773,A149XKIX8E4E1:31LM9EDVONZE3XQYBTNFQD2DDQEJNP,5293,/static/images/2kfaces/Google_1_Gregory Arriola_3_oval.jpg,1,6,88,live
774,A149XKIX8E4E1:31LM9EDVONZE3XQYBTNFQD2DDQEJNP,5367,/static/images/2kfaces/Google_1_Ernest Crump_3_oval.jpg,1,6,89,live
775,A149XKIX8E4E1:31LM9EDVONZE3XQYBTNFQD2DDQEJNP,4935,/static/images/2kfaces/Google_1_Valerie Noble_9_oval.jpg,1,7,90,live
776,A149XKIX8E4E1:31LM9EDVONZE3XQYBTNFQD2DDQEJNP,2947,/static/images/2kfaces/Google_1_Norman Westfall_5_oval.jpg,1,1,91,live
777,A149XKIX8E4E1:31LM9EDVONZE3XQYBTNFQD2DDQEJNP,13664,/static/images/2kfaces/Google_1_Mark Houser_17_oval.jpg,1,6,92,live
778,A149XKIX8E4E1:31LM9EDVONZE3XQYBTNFQD2DDQEJNP,8457,/static/images/2kfaces/Google_1_Gary Perri_3_oval.jpg,1,3,93,live
779,A149XKIX8E4E1:31LM9EDVONZE3XQYBTNFQD2DDQEJNP,3974,/static/images/2kfaces/Google_1_Eric Osuna_3_oval.jpg,1,5,94,live
780,A149XKIX8E4E1:31LM9EDVONZE3XQYBTNFQD2DDQEJNP,3144,/static/images/2kfaces/Google_1_Gertrude Bayne_11_oval.jpg,1,1,96,live
781,A149XKIX8E4E1:31LM9EDVONZE3XQYBTNFQD2DDQEJNP,6470,/static/images/2kfaces/Google_1_Gary Nance_3_oval.jpg,1,3,97,live
782,A149XKIX8E4E1:31LM9EDVONZE3XQYBTNFQD2DDQEJNP,5532,/static/images/2kfaces/Google_1_Andrew Diggs_9_oval.jpg,1,1,98,live
783,A149XKIX8E4E1:31LM9EDVONZE3XQYBTNFQD2DDQEJNP,7790,/static/images/2kfaces/Google_1_Ronald Driver_19_oval.jpg,1,7,99,live
784,A149XKIX8E4E1:31LM9EDVONZE3XQYBTNFQD2DDQEJNP,4241,/static/images/2kfaces/Google_1_Alma Poor_7_oval.jpg,1,7,100,live
785,A149XKIX8E4E1:31LM9EDVONZE3XQYBTNFQD2DDQEJNP,3890,/static/images/2kfaces/Google_1_Donna Asberry_5_oval.jpg,1,3,101,live
786,A149XKIX8E4E1:31LM9EDVONZE3XQYBTNFQD2DDQEJNP,30349,/static/images/2kfaces/Google_1_Paul Horst_15_oval.jpg,1,3,102,live
787,A149XKIX8E4E1:31LM9EDVONZE3XQYBTNFQD2DDQEJNP,3393,/static/images/2kfaces/Google_1_Timothy Galvan_11_oval.jpg,1,5,103,live
788,A149XKIX8E4E1:31LM9EDVONZE3XQYBTNFQD2DDQEJNP,2814,/static/images/2kfaces/Google_1_Gloria Canada_13_oval.jpg,1,1,104,live
789,A149XKIX8E4E1:31LM9EDVONZE3XQYBTNFQD2DDQEJNP,3063,/static/images/2kfaces/Google_1_Matthew Vanbuskirk_1_oval.jpg,1,6,105,live
790,A149XKIX8E4E1:31LM9EDVONZE3XQYBTNFQD2DDQEJNP,2808,/static/images/2kfaces/Google_1_Louis Mceachern_7_oval.jpg,1,3,107,live
791,A149XKIX8E4E1:31LM9EDVONZE3XQYBTNFQD2DDQEJNP,5313,/static/images/2kfaces/Google_1_Florence Melton_1_oval.jpg,1,2,108,live
792,A149XKIX8E4E1:31LM9EDVONZE3XQYBTNFQD2DDQEJNP,2702,/static/images/2kfaces/Google_1_Frank Whitehouse_3_oval.jpg,1,1,109,live
793,A149XKIX8E4E1:31LM9EDVONZE3XQYBTNFQD2DDQEJNP,5044,/static/images/2kfaces/Google_1_Carole Bentley_7_oval.jpg,1,6,110,live
794,A149XKIX8E4E1:31LM9EDVONZE3XQYBTNFQD2DDQEJNP,3077,/static/images/2kfaces/Google_1_Antonio Benn_12_oval.jpg,1,5,111,live
795,A149XKIX8E4E1:31LM9EDVONZE3XQYBTNFQD2DDQEJNP,3518,/static/images/2kfaces/Google_1_Samuel Paschal_17_oval.jpg,1,1,112,live
796,A149XKIX8E4E1:31LM9EDVONZE3XQYBTNFQD2DDQEJNP,3166,/static/images/2kfaces/Google_1_Sara Guajardo_1_oval.jpg,1,5,113,live
797,A149XKIX8E4E1:31LM9EDVONZE3XQYBTNFQD2DDQEJNP,3892,/static/images/2kfaces/Google_1_Henry Gumm_19_oval.jpg,1,2,114,live
798,A149XKIX8E4E1:31LM9EDVONZE3XQYBTNFQD2DDQEJNP,3022,/static/images/2kfaces/Google_1_Douglas Tanguay_9_oval.jpg,1,2,115,live
799,A149XKIX8E4E1:31LM9EDVONZE3XQYBTNFQD2DDQEJNP,4268,/static/images/2kfaces/Google_1_Cheryl Griffin_15_oval.jpg,1,6,116,live
800,AAOCWGPQSGXPX:36DSNE9QZ75WLIQAC8NS522I30JJO4,6503,/static/images/2kfaces/Google_1_Gary Nance_3_oval.jpg,0,4,9,live
801,AAOCWGPQSGXPX:36DSNE9QZ75WLIQAC8NS522I30JJO4,5933,/static/images/2kfaces/Google_1_Kathleen Sartain_1_oval.jpg,0,3,10,live
802,AAOCWGPQSGXPX:36DSNE9QZ75WLIQAC8NS522I30JJO4,3380,/static/images/2kfaces/Google_1_Bryan Brunner_3_oval.jpg,0,4,11,live
803,AAOCWGPQSGXPX:36DSNE9QZ75WLIQAC8NS522I30JJO4,2439,/static/images/2kfaces/Google_1_Ryan Marvel_15_oval.jpg,0,5,12,live
804,AAOCWGPQSGXPX:36DSNE9QZ75WLIQAC8NS522I30JJO4,4571,/static/images/2kfaces/Google_1_Henry Gumm_19_oval.jpg,0,6,13,live
805,AAOCWGPQSGXPX:36DSNE9QZ75WLIQAC8NS522I30JJO4,2591,/static/images/2kfaces/Google_1_Cheryl Griffin_15_oval.jpg,0,7,14,live
806,AAOCWGPQSGXPX:36DSNE9QZ75WLIQAC8NS522I30JJO4,2940,/static/images/2kfaces/Google_1_Carole Bentley_7_oval.jpg,0,4,15,live
807,AAOCWGPQSGXPX:36DSNE9QZ75WLIQAC8NS522I30JJO4,2484,/static/images/2kfaces/Google_1_Alma Poor_7_oval.jpg,0,3,16,live
