,subId,rt,imgName,isRepeat,rating,trial_index,debug_mode
0,debugKXH3HJ:debugFOUV4M,1860,/static/images/2kfaces/Google_1_Paul Reno_1_oval.jpg,0,5,6,debug
1,debugKXH3HJ:debugFOUV4M,4852,/static/images/2kfaces/Google_1_Norman Westfall_5_oval.jpg,0,5,8,debug
2,debugKXH3HJ:debugFOUV4M,77811,/static/images/2kfaces/Google_1_Sara Guajardo_1_oval.jpg,0,5,10,debug
3,debugKXH3HJ:debugFOUV4M,4087,/static/images/2kfaces/Google_1_Sherry Mcmichael_11_oval.jpg,0,5,12,debug
4,debugKXH3HJ:debugFOUV4M,3030,/static/images/2kfaces/Google_1_Gertrude Bayne_11_oval.jpg,0,5,14,debug
5,debugKXH3HJ:debugFOUV4M,1989,/static/images/2kfaces/Google_1_Gertrude Bayne_11_oval.jpg,1,5,18,debug
6,debugKXH3HJ:debugFOUV4M,2066,/static/images/2kfaces/Google_1_Sara Guajardo_1_oval.jpg,1,5,20,debug
7,debugKXH3HJ:debugFOUV4M,2311,/static/images/2kfaces/Google_1_Norman Westfall_5_oval.jpg,1,5,22,debug
8,debugKXH3HJ:debugFOUV4M,1887,/static/images/2kfaces/Google_1_Paul Reno_1_oval.jpg,1,5,24,debug
9,debugKXH3HJ:debugFOUV4M,1494,/static/images/2kfaces/Google_1_Sherry Mcmichael_11_oval.jpg,1,5,26,debug
10,A2S75O867RJG0I:37UEWGM5HVFSNE2MEBYQVXB1JWA1RD,8220,/static/images/2kfaces/Google_1_Claudia Rohrer_13_oval.jpg,0,3,6,live
11,A2S75O867RJG0I:37UEWGM5HVFSNE2MEBYQVXB1JWA1RD,7181,/static/images/2kfaces/Google_1_Marjorie Rule_3_oval.jpg,0,8,7,live
12,A2S75O867RJG0I:37UEWGM5HVFSNE2MEBYQVXB1JWA1RD,13056,/static/images/2kfaces/Google_1_Kathleen Sartain_1_oval.jpg,0,7,8,live
13,A2S75O867RJG0I:37UEWGM5HVFSNE2MEBYQVXB1JWA1RD,10560,/static/images/2kfaces/Google_1_Louis Mceachern_7_oval.jpg,0,2,9,live
14,A2S75O867RJG0I:37UEWGM5HVFSNE2MEBYQVXB1JWA1RD,3971,/static/images/2kfaces/Google_1_Cindy Morehead_5_oval.jpg,0,6,10,live
15,A2S75O867RJG0I:37UEWGM5HVFSNE2MEBYQVXB1JWA1RD,5532,/static/images/2kfaces/Alice_Mckellar_11_oval.jpg,0,9,11,live
16,A2S75O867RJG0I:37UEWGM5HVFSNE2MEBYQVXB1JWA1RD,3869,/static/images/2kfaces/Google_1_Henry Gumm_19_oval.jpg,0,8,12,live
17,A2S75O867RJG0I:37UEWGM5HVFSNE2MEBYQVXB1JWA1RD,4503,/static/images/2kfaces/Google_1_Gary Perri_3_oval.jpg,0,5,13,live
18,A2S75O867RJG0I:37UEWGM5HVFSNE2MEBYQVXB1JWA1RD,4271,/static/images/2kfaces/Google_1_Valerie Noble_9_oval.jpg,0,7,14,live
19,A2S75O867RJG0I:37UEWGM5HVFSNE2MEBYQVXB1JWA1RD,5277,/static/images/2kfaces/Google_1_Carole Bentley_7_oval.jpg,0,8,15,live
20,A2S75O867RJG0I:37UEWGM5HVFSNE2MEBYQVXB1JWA1RD,5887,/static/images/2kfaces/Google_1_Vera Becker_5_oval.jpg,0,5,17,live
21,A2S75O867RJG0I:37UEWGM5HVFSNE2MEBYQVXB1JWA1RD,6178,/static/images/2kfaces/Google_1_Paul Horst_15_oval.jpg,0,7,18,live
22,A2S75O867RJG0I:37UEWGM5HVFSNE2MEBYQVXB1JWA1RD,7451,/static/images/2kfaces/Google_1_Samuel Paschal_17_oval.jpg,0,4,19,live
23,A2S75O867RJG0I:37UEWGM5HVFSNE2MEBYQVXB1JWA1RD,4380,/static/images/2kfaces/Google_1_Frank Luke_9_oval.jpg,0,7,20,live
24,A2S75O867RJG0I:37UEWGM5HVFSNE2MEBYQVXB1JWA1RD,7273,/static/images/2kfaces/Google_1_Ernest Crump_3_oval.jpg,0,6,21,live
25,A2S75O867RJG0I:37UEWGM5HVFSNE2MEBYQVXB1JWA1RD,6949,/static/images/2kfaces/Google_1_Andrew Diggs_9_oval.jpg,0,7,22,live
26,A2S75O867RJG0I:37UEWGM5HVFSNE2MEBYQVXB1JWA1RD,4225,/static/images/2kfaces/Google_1_Timothy Galvan_11_oval.jpg,0,5,23,live
27,A2S75O867RJG0I:37UEWGM5HVFSNE2MEBYQVXB1JWA1RD,4287,/static/images/2kfaces/Google_1_Jonathan Marek_5_oval.jpg,0,4,24,live
28,A2S75O867RJG0I:37UEWGM5HVFSNE2MEBYQVXB1JWA1RD,7542,/static/images/2kfaces/Google_1_Florence Melton_1_oval.jpg,0,4,25,live
29,A2S75O867RJG0I:37UEWGM5HVFSNE2MEBYQVXB1JWA1RD,7847,/static/images/2kfaces/Google_1_Sherry Mcmichael_11_oval.jpg,0,8,26,live
30,A2S75O867RJG0I:37UEWGM5HVFSNE2MEBYQVXB1JWA1RD,5607,/static/images/2kfaces/Google_1_Ronald Driver_19_oval.jpg,0,5,28,live
31,A2S75O867RJG0I:37UEWGM5HVFSNE2MEBYQVXB1JWA1RD,4677,/static/images/2kfaces/Google_1_Eva Kirkman_15_oval.jpg,0,6,29,live
32,A2S75O867RJG0I:37UEWGM5HVFSNE2MEBYQVXB1JWA1RD,4811,/static/images/2kfaces/Google_1_Steve Stamm_1_oval.jpg,0,9,30,live
33,A2S75O867RJG0I:37UEWGM5HVFSNE2MEBYQVXB1JWA1RD,3716,/static/images/2kfaces/Google_1_Douglas Tanguay_9_oval.jpg,0,7,31,live
34,A2S75O867RJG0I:37UEWGM5HVFSNE2MEBYQVXB1JWA1RD,5440,/static/images/2kfaces/Google_1_Donna Asberry_5_oval.jpg,0,5,32,live
35,A2S75O867RJG0I:37UEWGM5HVFSNE2MEBYQVXB1JWA1RD,7040,/static/images/2kfaces/Google_1_Sara Guajardo_1_oval.jpg,0,9,33,live
36,A2S75O867RJG0I:37UEWGM5HVFSNE2MEBYQVXB1JWA1RD,4063,/static/images/2kfaces/Google_1_Gloria Canada_13_oval.jpg,0,3,34,live
37,A2S75O867RJG0I:37UEWGM5HVFSNE2MEBYQVXB1JWA1RD,5850,/static/images/2kfaces/Google_1_Erika Fletcher_1_oval.jpg,0,8,35,live
38,A2S75O867RJG0I:37UEWGM5HVFSNE2MEBYQVXB1JWA1RD,5505,/static/images/2kfaces/Google_1_Sarah Woodcock_3_oval.jpg,0,6,36,live
39,A2S75O867RJG0I:37UEWGM5HVFSNE2MEBYQVXB1JWA1RD,3961,/static/images/2kfaces/Google_1_Kenneth Rigsby_15_oval.jpg,0,2,37,live
40,A2S75O867RJG0I:37UEWGM5HVFSNE2MEBYQVXB1JWA1RD,4037,/static/images/2kfaces/Google_1_Cheryl Griffin_15_oval.jpg,0,7,39,live
41,A2S75O867RJG0I:37UEWGM5HVFSNE2MEBYQVXB1JWA1RD,5896,/static/images/2kfaces/Bryan_Shanklin_9_oval.jpg,0,1,40,live
42,A2S75O867RJG0I:37UEWGM5HVFSNE2MEBYQVXB1JWA1RD,4535,/static/images/2kfaces/Google_1_Kenneth Cabral_19_oval.jpg,0,4,41,live
43,A2S75O867RJG0I:37UEWGM5HVFSNE2MEBYQVXB1JWA1RD,5780,/static/images/2kfaces/Google_1_Matthew Vanbuskirk_1_oval.jpg,0,7,42,live
44,A2S75O867RJG0I:37UEWGM5HVFSNE2MEBYQVXB1JWA1RD,3648,/static/images/2kfaces/Google_1_Gary Nance_3_oval.jpg,0,6,43,live
45,A2S75O867RJG0I:37UEWGM5HVFSNE2MEBYQVXB1JWA1RD,4779,/static/images/2kfaces/Google_1_Eric Osuna_3_oval.jpg,0,6,44,live
46,A2S75O867RJG0I:37UEWGM5HVFSNE2MEBYQVXB1JWA1RD,3734,/static/images/2kfaces/Google_1_Mark Houser_17_oval.jpg,0,4,45,live
47,A2S75O867RJG0I:37UEWGM5HVFSNE2MEBYQVXB1JWA1RD,4259,/static/images/2kfaces/Google_1_Paul Reno_1_oval.jpg,0,6,46,live
48,A2S75O867RJG0I:37UEWGM5HVFSNE2MEBYQVXB1JWA1RD,4553,/static/images/2kfaces/Google_1_Tina Middleton_7_oval.jpg,0,7,47,live
49,A2S75O867RJG0I:37UEWGM5HVFSNE2MEBYQVXB1JWA1RD,4181,/static/images/2kfaces/Google_1_Frank Whitehouse_3_oval.jpg,0,2,48,live
50,A2S75O867RJG0I:37UEWGM5HVFSNE2MEBYQVXB1JWA1RD,4829,/static/images/2kfaces/Google_1_Norman Westfall_5_oval.jpg,0,3,50,live
51,A2S75O867RJG0I:37UEWGM5HVFSNE2MEBYQVXB1JWA1RD,3606,/static/images/2kfaces/Google_1_Bryan Brunner_3_oval.jpg,0,6,51,live
52,A2S75O867RJG0I:37UEWGM5HVFSNE2MEBYQVXB1JWA1RD,3534,/static/images/2kfaces/Google_1_Gregory Arriola_3_oval.jpg,0,5,52,live
53,A2S75O867RJG0I:37UEWGM5HVFSNE2MEBYQVXB1JWA1RD,4913,/static/images/2kfaces/Google_1_Shelley Lund_5_oval.jpg,0,5,53,live
54,A2S75O867RJG0I:37UEWGM5HVFSNE2MEBYQVXB1JWA1RD,3911,/static/images/2kfaces/Google_1_Gertrude Bayne_11_oval.jpg,0,3,54,live
55,A2S75O867RJG0I:37UEWGM5HVFSNE2MEBYQVXB1JWA1RD,4440,/static/images/2kfaces/Google_1_Russell Gillam_17_oval.jpg,0,8,55,live
56,A2S75O867RJG0I:37UEWGM5HVFSNE2MEBYQVXB1JWA1RD,4999,/static/images/2kfaces/Google_1_Antonio Benn_12_oval.jpg,0,4,56,live
57,A2S75O867RJG0I:37UEWGM5HVFSNE2MEBYQVXB1JWA1RD,4929,/static/images/2kfaces/Google_1_Samuel Goff_1_oval.jpg,0,3,57,live
58,A2S75O867RJG0I:37UEWGM5HVFSNE2MEBYQVXB1JWA1RD,5286,/static/images/2kfaces/Google_1_Ryan Marvel_15_oval.jpg,0,9,58,live
59,A2S75O867RJG0I:37UEWGM5HVFSNE2MEBYQVXB1JWA1RD,5566,/static/images/2kfaces/Google_1_Alma Poor_7_oval.jpg,0,9,59,live
60,A2S75O867RJG0I:37UEWGM5HVFSNE2MEBYQVXB1JWA1RD,4452,/static/images/2kfaces/Google_1_Cheryl Griffin_15_oval.jpg,1,8,63,live
61,A2S75O867RJG0I:37UEWGM5HVFSNE2MEBYQVXB1JWA1RD,3897,/static/images/2kfaces/Google_1_Samuel Goff_1_oval.jpg,1,3,64,live
62,A2S75O867RJG0I:37UEWGM5HVFSNE2MEBYQVXB1JWA1RD,6003,/static/images/2kfaces/Google_1_Donna Asberry_5_oval.jpg,1,5,65,live
63,A2S75O867RJG0I:37UEWGM5HVFSNE2MEBYQVXB1JWA1RD,5946,/static/images/2kfaces/Google_1_Claudia Rohrer_13_oval.jpg,1,1,66,live
64,A2S75O867RJG0I:37UEWGM5HVFSNE2MEBYQVXB1JWA1RD,5844,/static/images/2kfaces/Google_1_Erika Fletcher_1_oval.jpg,1,7,67,live
65,A2S75O867RJG0I:37UEWGM5HVFSNE2MEBYQVXB1JWA1RD,4270,/static/images/2kfaces/Google_1_Eric Osuna_3_oval.jpg,1,6,68,live
66,A2S75O867RJG0I:37UEWGM5HVFSNE2MEBYQVXB1JWA1RD,3801,/static/images/2kfaces/Google_1_Shelley Lund_5_oval.jpg,1,4,69,live
67,A2S75O867RJG0I:37UEWGM5HVFSNE2MEBYQVXB1JWA1RD,4545,/static/images/2kfaces/Google_1_Gary Nance_3_oval.jpg,1,6,70,live
68,A2S75O867RJG0I:37UEWGM5HVFSNE2MEBYQVXB1JWA1RD,4499,/static/images/2kfaces/Google_1_Sarah Woodcock_3_oval.jpg,1,7,71,live
69,A2S75O867RJG0I:37UEWGM5HVFSNE2MEBYQVXB1JWA1RD,3588,/static/images/2kfaces/Google_1_Antonio Benn_12_oval.jpg,1,4,72,live
70,A2S75O867RJG0I:37UEWGM5HVFSNE2MEBYQVXB1JWA1RD,4943,/static/images/2kfaces/Google_1_Marjorie Rule_3_oval.jpg,1,7,74,live
71,A2S75O867RJG0I:37UEWGM5HVFSNE2MEBYQVXB1JWA1RD,3432,/static/images/2kfaces/Google_1_Gregory Arriola_3_oval.jpg,1,4,75,live
72,A2S75O867RJG0I:37UEWGM5HVFSNE2MEBYQVXB1JWA1RD,3941,/static/images/2kfaces/Google_1_Russell Gillam_17_oval.jpg,1,8,76,live
73,A2S75O867RJG0I:37UEWGM5HVFSNE2MEBYQVXB1JWA1RD,4737,/static/images/2kfaces/Google_1_Eva Kirkman_15_oval.jpg,1,5,77,live
74,A2S75O867RJG0I:37UEWGM5HVFSNE2MEBYQVXB1JWA1RD,4570,/static/images/2kfaces/Google_1_Henry Gumm_19_oval.jpg,1,8,78,live
75,A2S75O867RJG0I:37UEWGM5HVFSNE2MEBYQVXB1JWA1RD,4446,/static/images/2kfaces/Google_1_Vera Becker_5_oval.jpg,1,3,79,live
76,A2S75O867RJG0I:37UEWGM5HVFSNE2MEBYQVXB1JWA1RD,4073,/static/images/2kfaces/Google_1_Samuel Paschal_17_oval.jpg,1,4,80,live
77,A2S75O867RJG0I:37UEWGM5HVFSNE2MEBYQVXB1JWA1RD,3517,/static/images/2kfaces/Google_1_Gloria Canada_13_oval.jpg,1,2,81,live
78,A2S75O867RJG0I:37UEWGM5HVFSNE2MEBYQVXB1JWA1RD,4540,/static/images/2kfaces/Google_1_Tina Middleton_7_oval.jpg,1,6,82,live
79,A2S75O867RJG0I:37UEWGM5HVFSNE2MEBYQVXB1JWA1RD,3714,/static/images/2kfaces/Google_1_Florence Melton_1_oval.jpg,1,3,83,live
80,A2S75O867RJG0I:37UEWGM5HVFSNE2MEBYQVXB1JWA1RD,3805,/static/images/2kfaces/Bryan_Shanklin_9_oval.jpg,1,2,85,live
81,A2S75O867RJG0I:37UEWGM5HVFSNE2MEBYQVXB1JWA1RD,3585,/static/images/2kfaces/Google_1_Ernest Crump_3_oval.jpg,1,8,86,live
82,A2S75O867RJG0I:37UEWGM5HVFSNE2MEBYQVXB1JWA1RD,4871,/static/images/2kfaces/Google_1_Frank Whitehouse_3_oval.jpg,1,1,87,live
83,A2S75O867RJG0I:37UEWGM5HVFSNE2MEBYQVXB1JWA1RD,3891,/static/images/2kfaces/Google_1_Kathleen Sartain_1_oval.jpg,1,7,88,live
84,A2S75O867RJG0I:37UEWGM5HVFSNE2MEBYQVXB1JWA1RD,3845,/static/images/2kfaces/Google_1_Cindy Morehead_5_oval.jpg,1,4,89,live
85,A2S75O867RJG0I:37UEWGM5HVFSNE2MEBYQVXB1JWA1RD,4510,/static/images/2kfaces/Google_1_Louis Mceachern_7_oval.jpg,1,2,90,live
86,A2S75O867RJG0I:37UEWGM5HVFSNE2MEBYQVXB1JWA1RD,4212,/static/images/2kfaces/Google_1_Ryan Marvel_15_oval.jpg,1,9,91,live
87,A2S75O867RJG0I:37UEWGM5HVFSNE2MEBYQVXB1JWA1RD,5242,/static/images/2kfaces/Google_1_Ronald Driver_19_oval.jpg,1,7,92,live
88,A2S75O867RJG0I:37UEWGM5HVFSNE2MEBYQVXB1JWA1RD,7088,/static/images/2kfaces/Google_1_Alma Poor_7_oval.jpg,1,9,93,live
89,A2S75O867RJG0I:37UEWGM5HVFSNE2MEBYQVXB1JWA1RD,5186,/static/images/2kfaces/Google_1_Matthew Vanbuskirk_1_oval.jpg,1,6,94,live
90,A2S75O867RJG0I:37UEWGM5HVFSNE2MEBYQVXB1JWA1RD,4743,/static/images/2kfaces/Google_1_Norman Westfall_5_oval.jpg,1,3,96,live
91,A2S75O867RJG0I:37UEWGM5HVFSNE2MEBYQVXB1JWA1RD,4715,/static/images/2kfaces/Google_1_Steve Stamm_1_oval.jpg,1,8,97,live
92,A2S75O867RJG0I:37UEWGM5HVFSNE2MEBYQVXB1JWA1RD,3904,/static/images/2kfaces/Google_1_Sherry Mcmichael_11_oval.jpg,1,5,98,live
93,A2S75O867RJG0I:37UEWGM5HVFSNE2MEBYQVXB1JWA1RD,3845,/static/images/2kfaces/Google_1_Kenneth Cabral_19_oval.jpg,1,1,99,live
94,A2S75O867RJG0I:37UEWGM5HVFSNE2MEBYQVXB1JWA1RD,5774,/static/images/2kfaces/Google_1_Mark Houser_17_oval.jpg,1,3,100,live
95,A2S75O867RJG0I:37UEWGM5HVFSNE2MEBYQVXB1JWA1RD,3634,/static/images/2kfaces/Google_1_Frank Luke_9_oval.jpg,1,5,101,live
96,A2S75O867RJG0I:37UEWGM5HVFSNE2MEBYQVXB1JWA1RD,3828,/static/images/2kfaces/Google_1_Andrew Diggs_9_oval.jpg,1,6,102,live
97,A2S75O867RJG0I:37UEWGM5HVFSNE2MEBYQVXB1JWA1RD,4123,/static/images/2kfaces/Google_1_Bryan Brunner_3_oval.jpg,1,6,103,live
98,A2S75O867RJG0I:37UEWGM5HVFSNE2MEBYQVXB1JWA1RD,5900,/static/images/2kfaces/Google_1_Valerie Noble_9_oval.jpg,1,6,104,live
99,A2S75O867RJG0I:37UEWGM5HVFSNE2MEBYQVXB1JWA1RD,6247,/static/images/2kfaces/Google_1_Carole Bentley_7_oval.jpg,1,8,105,live
100,A2S75O867RJG0I:37UEWGM5HVFSNE2MEBYQVXB1JWA1RD,4936,/static/images/2kfaces/Google_1_Paul Reno_1_oval.jpg,1,6,107,live
101,A2S75O867RJG0I:37UEWGM5HVFSNE2MEBYQVXB1JWA1RD,3773,/static/images/2kfaces/Google_1_Gertrude Bayne_11_oval.jpg,1,2,108,live
102,A2S75O867RJG0I:37UEWGM5HVFSNE2MEBYQVXB1JWA1RD,3925,/static/images/2kfaces/Alice_Mckellar_11_oval.jpg,1,8,109,live
103,A2S75O867RJG0I:37UEWGM5HVFSNE2MEBYQVXB1JWA1RD,3779,/static/images/2kfaces/Google_1_Douglas Tanguay_9_oval.jpg,1,6,110,live
104,A2S75O867RJG0I:37UEWGM5HVFSNE2MEBYQVXB1JWA1RD,3604,/static/images/2kfaces/Google_1_Timothy Galvan_11_oval.jpg,1,4,111,live
105,A2S75O867RJG0I:37UEWGM5HVFSNE2MEBYQVXB1JWA1RD,3933,/static/images/2kfaces/Google_1_Paul Horst_15_oval.jpg,1,6,112,live
106,A2S75O867RJG0I:37UEWGM5HVFSNE2MEBYQVXB1JWA1RD,3401,/static/images/2kfaces/Google_1_Gary Perri_3_oval.jpg,1,3,113,live
107,A2S75O867RJG0I:37UEWGM5HVFSNE2MEBYQVXB1JWA1RD,3797,/static/images/2kfaces/Google_1_Jonathan Marek_5_oval.jpg,1,2,114,live
108,A2S75O867RJG0I:37UEWGM5HVFSNE2MEBYQVXB1JWA1RD,4479,/static/images/2kfaces/Google_1_Kenneth Rigsby_15_oval.jpg,1,2,115,live
109,A2S75O867RJG0I:37UEWGM5HVFSNE2MEBYQVXB1JWA1RD,3341,/static/images/2kfaces/Google_1_Sara Guajardo_1_oval.jpg,1,6,116,live
110,A1V2H0UF94ATWY:3G2UL9A02FLDCHJ4B3C1LCBIQVW67H,12129,/static/images/2kfaces/Google_1_Claudia Rohrer_13_oval.jpg,0,6,6,live
111,A1V2H0UF94ATWY:3G2UL9A02FLDCHJ4B3C1LCBIQVW67H,3246,/static/images/2kfaces/Google_1_Frank Luke_9_oval.jpg,0,7,7,live
112,A1V2H0UF94ATWY:3G2UL9A02FLDCHJ4B3C1LCBIQVW67H,6375,/static/images/2kfaces/Google_1_Marjorie Rule_3_oval.jpg,0,9,8,live
113,A1V2H0UF94ATWY:3G2UL9A02FLDCHJ4B3C1LCBIQVW67H,5719,/static/images/2kfaces/Google_1_Valerie Noble_9_oval.jpg,0,8,9,live
114,A1V2H0UF94ATWY:3G2UL9A02FLDCHJ4B3C1LCBIQVW67H,4359,/static/images/2kfaces/Google_1_Samuel Goff_1_oval.jpg,0,7,10,live
115,A1V2H0UF94ATWY:3G2UL9A02FLDCHJ4B3C1LCBIQVW67H,4864,/static/images/2kfaces/Google_1_Carole Bentley_7_oval.jpg,0,8,11,live
116,A1V2H0UF94ATWY:3G2UL9A02FLDCHJ4B3C1LCBIQVW67H,2654,/static/images/2kfaces/Google_1_Tina Middleton_7_oval.jpg,0,8,12,live
117,A1V2H0UF94ATWY:3G2UL9A02FLDCHJ4B3C1LCBIQVW67H,14111,/static/images/2kfaces/Google_1_Jonathan Marek_5_oval.jpg,0,7,13,live
118,A1V2H0UF94ATWY:3G2UL9A02FLDCHJ4B3C1LCBIQVW67H,3296,/static/images/2kfaces/Google_1_Kenneth Rigsby_15_oval.jpg,0,6,14,live
119,A1V2H0UF94ATWY:3G2UL9A02FLDCHJ4B3C1LCBIQVW67H,3871,/static/images/2kfaces/Google_1_Ronald Driver_19_oval.jpg,0,7,15,live
120,A1V2H0UF94ATWY:3G2UL9A02FLDCHJ4B3C1LCBIQVW67H,4706,/static/images/2kfaces/Google_1_Henry Gumm_19_oval.jpg,0,8,17,live
121,A1V2H0UF94ATWY:3G2UL9A02FLDCHJ4B3C1LCBIQVW67H,2583,/static/images/2kfaces/Bryan_Shanklin_9_oval.jpg,0,7,18,live
122,A1V2H0UF94ATWY:3G2UL9A02FLDCHJ4B3C1LCBIQVW67H,4653,/static/images/2kfaces/Google_1_Russell Gillam_17_oval.jpg,0,7,19,live
123,A1V2H0UF94ATWY:3G2UL9A02FLDCHJ4B3C1LCBIQVW67H,5317,/static/images/2kfaces/Google_1_Norman Westfall_5_oval.jpg,0,8,20,live
124,A1V2H0UF94ATWY:3G2UL9A02FLDCHJ4B3C1LCBIQVW67H,2871,/static/images/2kfaces/Google_1_Louis Mceachern_7_oval.jpg,0,6,21,live
125,A1V2H0UF94ATWY:3G2UL9A02FLDCHJ4B3C1LCBIQVW67H,3478,/static/images/2kfaces/Google_1_Sherry Mcmichael_11_oval.jpg,0,8,22,live
126,A1V2H0UF94ATWY:3G2UL9A02FLDCHJ4B3C1LCBIQVW67H,3815,/static/images/2kfaces/Google_1_Shelley Lund_5_oval.jpg,0,8,23,live
127,A1V2H0UF94ATWY:3G2UL9A02FLDCHJ4B3C1LCBIQVW67H,2647,/static/images/2kfaces/Google_1_Cindy Morehead_5_oval.jpg,0,8,24,live
128,A1V2H0UF94ATWY:3G2UL9A02FLDCHJ4B3C1LCBIQVW67H,2543,/static/images/2kfaces/Google_1_Frank Whitehouse_3_oval.jpg,0,6,25,live
129,A1V2H0UF94ATWY:3G2UL9A02FLDCHJ4B3C1LCBIQVW67H,3302,/static/images/2kfaces/Google_1_Douglas Tanguay_9_oval.jpg,0,7,26,live
130,A1V2H0UF94ATWY:3G2UL9A02FLDCHJ4B3C1LCBIQVW67H,5194,/static/images/2kfaces/Google_1_Steve Stamm_1_oval.jpg,0,9,28,live
131,A1V2H0UF94ATWY:3G2UL9A02FLDCHJ4B3C1LCBIQVW67H,3342,/static/images/2kfaces/Google_1_Cheryl Griffin_15_oval.jpg,0,8,29,live
132,A1V2H0UF94ATWY:3G2UL9A02FLDCHJ4B3C1LCBIQVW67H,3504,/static/images/2kfaces/Google_1_Matthew Vanbuskirk_1_oval.jpg,0,8,30,live
133,A1V2H0UF94ATWY:3G2UL9A02FLDCHJ4B3C1LCBIQVW67H,5470,/static/images/2kfaces/Google_1_Eric Osuna_3_oval.jpg,0,8,31,live
134,A1V2H0UF94ATWY:3G2UL9A02FLDCHJ4B3C1LCBIQVW67H,4583,/static/images/2kfaces/Google_1_Donna Asberry_5_oval.jpg,0,7,32,live
135,A1V2H0UF94ATWY:3G2UL9A02FLDCHJ4B3C1LCBIQVW67H,5079,/static/images/2kfaces/Google_1_Eva Kirkman_15_oval.jpg,0,7,33,live
136,A1V2H0UF94ATWY:3G2UL9A02FLDCHJ4B3C1LCBIQVW67H,3823,/static/images/2kfaces/Google_1_Paul Horst_15_oval.jpg,0,8,34,live
137,A1V2H0UF94ATWY:3G2UL9A02FLDCHJ4B3C1LCBIQVW67H,4559,/static/images/2kfaces/Google_1_Bryan Brunner_3_oval.jpg,0,8,35,live
138,A1V2H0UF94ATWY:3G2UL9A02FLDCHJ4B3C1LCBIQVW67H,2983,/static/images/2kfaces/Google_1_Kathleen Sartain_1_oval.jpg,0,7,36,live
139,A1V2H0UF94ATWY:3G2UL9A02FLDCHJ4B3C1LCBIQVW67H,2559,/static/images/2kfaces/Alice_Mckellar_11_oval.jpg,0,8,37,live
140,A1V2H0UF94ATWY:3G2UL9A02FLDCHJ4B3C1LCBIQVW67H,3836,/static/images/2kfaces/Google_1_Kenneth Cabral_19_oval.jpg,0,7,39,live
141,A1V2H0UF94ATWY:3G2UL9A02FLDCHJ4B3C1LCBIQVW67H,3287,/static/images/2kfaces/Google_1_Timothy Galvan_11_oval.jpg,0,9,40,live
142,A1V2H0UF94ATWY:3G2UL9A02FLDCHJ4B3C1LCBIQVW67H,3558,/static/images/2kfaces/Google_1_Alma Poor_7_oval.jpg,0,9,41,live
143,A1V2H0UF94ATWY:3G2UL9A02FLDCHJ4B3C1LCBIQVW67H,3543,/static/images/2kfaces/Google_1_Ernest Crump_3_oval.jpg,0,6,42,live
144,A1V2H0UF94ATWY:3G2UL9A02FLDCHJ4B3C1LCBIQVW67H,2863,/static/images/2kfaces/Google_1_Mark Houser_17_oval.jpg,0,8,43,live
145,A1V2H0UF94ATWY:3G2UL9A02FLDCHJ4B3C1LCBIQVW67H,3855,/static/images/2kfaces/Google_1_Antonio Benn_12_oval.jpg,0,8,44,live
146,A1V2H0UF94ATWY:3G2UL9A02FLDCHJ4B3C1LCBIQVW67H,2998,/static/images/2kfaces/Google_1_Gary Perri_3_oval.jpg,0,8,45,live
147,A1V2H0UF94ATWY:3G2UL9A02FLDCHJ4B3C1LCBIQVW67H,4712,/static/images/2kfaces/Google_1_Florence Melton_1_oval.jpg,0,6,46,live
148,A1V2H0UF94ATWY:3G2UL9A02FLDCHJ4B3C1LCBIQVW67H,4801,/static/images/2kfaces/Google_1_Gertrude Bayne_11_oval.jpg,0,7,47,live
149,A1V2H0UF94ATWY:3G2UL9A02FLDCHJ4B3C1LCBIQVW67H,3156,/static/images/2kfaces/Google_1_Vera Becker_5_oval.jpg,0,6,48,live
150,A1V2H0UF94ATWY:3G2UL9A02FLDCHJ4B3C1LCBIQVW67H,5796,/static/images/2kfaces/Google_1_Ryan Marvel_15_oval.jpg,0,8,50,live
151,A1V2H0UF94ATWY:3G2UL9A02FLDCHJ4B3C1LCBIQVW67H,3846,/static/images/2kfaces/Google_1_Paul Reno_1_oval.jpg,0,8,51,live
152,A1V2H0UF94ATWY:3G2UL9A02FLDCHJ4B3C1LCBIQVW67H,5256,/static/images/2kfaces/Google_1_Gary Nance_3_oval.jpg,0,6,52,live
153,A1V2H0UF94ATWY:3G2UL9A02FLDCHJ4B3C1LCBIQVW67H,2653,/static/images/2kfaces/Google_1_Andrew Diggs_9_oval.jpg,0,7,53,live
154,A1V2H0UF94ATWY:3G2UL9A02FLDCHJ4B3C1LCBIQVW67H,5334,/static/images/2kfaces/Google_1_Sara Guajardo_1_oval.jpg,0,7,54,live
155,A1V2H0UF94ATWY:3G2UL9A02FLDCHJ4B3C1LCBIQVW67H,6303,/static/images/2kfaces/Google_1_Sarah Woodcock_3_oval.jpg,0,6,55,live
156,A1V2H0UF94ATWY:3G2UL9A02FLDCHJ4B3C1LCBIQVW67H,3599,/static/images/2kfaces/Google_1_Gregory Arriola_3_oval.jpg,0,8,56,live
157,A1V2H0UF94ATWY:3G2UL9A02FLDCHJ4B3C1LCBIQVW67H,2846,/static/images/2kfaces/Google_1_Samuel Paschal_17_oval.jpg,0,6,57,live
158,A1V2H0UF94ATWY:3G2UL9A02FLDCHJ4B3C1LCBIQVW67H,3319,/static/images/2kfaces/Google_1_Erika Fletcher_1_oval.jpg,0,6,58,live
159,A1V2H0UF94ATWY:3G2UL9A02FLDCHJ4B3C1LCBIQVW67H,3167,/static/images/2kfaces/Google_1_Gloria Canada_13_oval.jpg,0,6,59,live
160,A1V2H0UF94ATWY:3G2UL9A02FLDCHJ4B3C1LCBIQVW67H,2743,/static/images/2kfaces/Google_1_Alma Poor_7_oval.jpg,1,8,63,live
161,A1V2H0UF94ATWY:3G2UL9A02FLDCHJ4B3C1LCBIQVW67H,3431,/static/images/2kfaces/Google_1_Eric Osuna_3_oval.jpg,1,7,64,live
162,A1V2H0UF94ATWY:3G2UL9A02FLDCHJ4B3C1LCBIQVW67H,9719,/static/images/2kfaces/Google_1_Samuel Paschal_17_oval.jpg,1,6,65,live
163,A1V2H0UF94ATWY:3G2UL9A02FLDCHJ4B3C1LCBIQVW67H,5111,/static/images/2kfaces/Google_1_Tina Middleton_7_oval.jpg,1,7,66,live
164,A1V2H0UF94ATWY:3G2UL9A02FLDCHJ4B3C1LCBIQVW67H,3368,/static/images/2kfaces/Google_1_Ronald Driver_19_oval.jpg,1,7,67,live
165,A1V2H0UF94ATWY:3G2UL9A02FLDCHJ4B3C1LCBIQVW67H,4135,/static/images/2kfaces/Google_1_Samuel Goff_1_oval.jpg,1,7,68,live
166,A1V2H0UF94ATWY:3G2UL9A02FLDCHJ4B3C1LCBIQVW67H,4350,/static/images/2kfaces/Google_1_Frank Luke_9_oval.jpg,1,6,69,live
167,A1V2H0UF94ATWY:3G2UL9A02FLDCHJ4B3C1LCBIQVW67H,7598,/static/images/2kfaces/Google_1_Henry Gumm_19_oval.jpg,1,8,70,live
168,A1V2H0UF94ATWY:3G2UL9A02FLDCHJ4B3C1LCBIQVW67H,3647,/static/images/2kfaces/Google_1_Ernest Crump_3_oval.jpg,1,6,71,live
169,A1V2H0UF94ATWY:3G2UL9A02FLDCHJ4B3C1LCBIQVW67H,3007,/static/images/2kfaces/Google_1_Antonio Benn_12_oval.jpg,1,8,72,live
170,A1V2H0UF94ATWY:3G2UL9A02FLDCHJ4B3C1LCBIQVW67H,3675,/static/images/2kfaces/Google_1_Vera Becker_5_oval.jpg,1,7,74,live
171,A1V2H0UF94ATWY:3G2UL9A02FLDCHJ4B3C1LCBIQVW67H,4126,/static/images/2kfaces/Google_1_Frank Whitehouse_3_oval.jpg,1,6,75,live
172,A1V2H0UF94ATWY:3G2UL9A02FLDCHJ4B3C1LCBIQVW67H,3151,/static/images/2kfaces/Google_1_Donna Asberry_5_oval.jpg,1,8,76,live
173,A1V2H0UF94ATWY:3G2UL9A02FLDCHJ4B3C1LCBIQVW67H,3472,/static/images/2kfaces/Google_1_Louis Mceachern_7_oval.jpg,1,6,77,live
174,A1V2H0UF94ATWY:3G2UL9A02FLDCHJ4B3C1LCBIQVW67H,2936,/static/images/2kfaces/Google_1_Bryan Brunner_3_oval.jpg,1,7,78,live
175,A1V2H0UF94ATWY:3G2UL9A02FLDCHJ4B3C1LCBIQVW67H,2480,/static/images/2kfaces/Google_1_Cheryl Griffin_15_oval.jpg,1,8,79,live
176,A1V2H0UF94ATWY:3G2UL9A02FLDCHJ4B3C1LCBIQVW67H,2975,/static/images/2kfaces/Google_1_Kathleen Sartain_1_oval.jpg,1,6,80,live
177,A1V2H0UF94ATWY:3G2UL9A02FLDCHJ4B3C1LCBIQVW67H,4120,/static/images/2kfaces/Google_1_Eva Kirkman_15_oval.jpg,1,7,81,live
178,A1V2H0UF94ATWY:3G2UL9A02FLDCHJ4B3C1LCBIQVW67H,2558,/static/images/2kfaces/Google_1_Matthew Vanbuskirk_1_oval.jpg,1,7,82,live
179,A1V2H0UF94ATWY:3G2UL9A02FLDCHJ4B3C1LCBIQVW67H,2992,/static/images/2kfaces/Google_1_Florence Melton_1_oval.jpg,1,6,83,live
180,A1V2H0UF94ATWY:3G2UL9A02FLDCHJ4B3C1LCBIQVW67H,4041,/static/images/2kfaces/Google_1_Cindy Morehead_5_oval.jpg,1,8,85,live
181,A1V2H0UF94ATWY:3G2UL9A02FLDCHJ4B3C1LCBIQVW67H,3391,/static/images/2kfaces/Google_1_Carole Bentley_7_oval.jpg,1,8,86,live
182,A1V2H0UF94ATWY:3G2UL9A02FLDCHJ4B3C1LCBIQVW67H,3158,/static/images/2kfaces/Google_1_Andrew Diggs_9_oval.jpg,1,7,87,live
183,A1V2H0UF94ATWY:3G2UL9A02FLDCHJ4B3C1LCBIQVW67H,3470,/static/images/2kfaces/Google_1_Sara Guajardo_1_oval.jpg,1,7,88,live
184,A1V2H0UF94ATWY:3G2UL9A02FLDCHJ4B3C1LCBIQVW67H,3295,/static/images/2kfaces/Google_1_Sherry Mcmichael_11_oval.jpg,1,8,89,live
185,A1V2H0UF94ATWY:3G2UL9A02FLDCHJ4B3C1LCBIQVW67H,2599,/static/images/2kfaces/Google_1_Kenneth Rigsby_15_oval.jpg,1,7,90,live
186,A1V2H0UF94ATWY:3G2UL9A02FLDCHJ4B3C1LCBIQVW67H,6584,/static/images/2kfaces/Google_1_Valerie Noble_9_oval.jpg,1,7,91,live
187,A1V2H0UF94ATWY:3G2UL9A02FLDCHJ4B3C1LCBIQVW67H,4631,/static/images/2kfaces/Google_1_Gertrude Bayne_11_oval.jpg,1,6,92,live
188,A1V2H0UF94ATWY:3G2UL9A02FLDCHJ4B3C1LCBIQVW67H,2725,/static/images/2kfaces/Google_1_Mark Houser_17_oval.jpg,1,8,93,live
189,A1V2H0UF94ATWY:3G2UL9A02FLDCHJ4B3C1LCBIQVW67H,2632,/static/images/2kfaces/Google_1_Gary Nance_3_oval.jpg,1,6,94,live
190,A1V2H0UF94ATWY:3G2UL9A02FLDCHJ4B3C1LCBIQVW67H,3660,/static/images/2kfaces/Google_1_Sarah Woodcock_3_oval.jpg,1,6,96,live
191,A1V2H0UF94ATWY:3G2UL9A02FLDCHJ4B3C1LCBIQVW67H,4366,/static/images/2kfaces/Google_1_Marjorie Rule_3_oval.jpg,1,8,97,live
192,A1V2H0UF94ATWY:3G2UL9A02FLDCHJ4B3C1LCBIQVW67H,2350,/static/images/2kfaces/Google_1_Douglas Tanguay_9_oval.jpg,1,7,98,live
193,A1V2H0UF94ATWY:3G2UL9A02FLDCHJ4B3C1LCBIQVW67H,3608,/static/images/2kfaces/Google_1_Steve Stamm_1_oval.jpg,1,8,99,live
194,A1V2H0UF94ATWY:3G2UL9A02FLDCHJ4B3C1LCBIQVW67H,5974,/static/images/2kfaces/Google_1_Gregory Arriola_3_oval.jpg,1,9,100,live
195,A1V2H0UF94ATWY:3G2UL9A02FLDCHJ4B3C1LCBIQVW67H,3510,/static/images/2kfaces/Google_1_Norman Westfall_5_oval.jpg,1,8,101,live
196,A1V2H0UF94ATWY:3G2UL9A02FLDCHJ4B3C1LCBIQVW67H,2006,/static/images/2kfaces/Google_1_Shelley Lund_5_oval.jpg,1,7,102,live
197,A1V2H0UF94ATWY:3G2UL9A02FLDCHJ4B3C1LCBIQVW67H,2463,/static/images/2kfaces/Google_1_Timothy Galvan_11_oval.jpg,1,8,103,live
198,A1V2H0UF94ATWY:3G2UL9A02FLDCHJ4B3C1LCBIQVW67H,2839,/static/images/2kfaces/Alice_Mckellar_11_oval.jpg,1,8,104,live
199,A1V2H0UF94ATWY:3G2UL9A02FLDCHJ4B3C1LCBIQVW67H,4342,/static/images/2kfaces/Google_1_Jonathan Marek_5_oval.jpg,1,7,105,live
200,A1V2H0UF94ATWY:3G2UL9A02FLDCHJ4B3C1LCBIQVW67H,10635,/static/images/2kfaces/Google_1_Gary Perri_3_oval.jpg,1,7,107,live
201,A1V2H0UF94ATWY:3G2UL9A02FLDCHJ4B3C1LCBIQVW67H,3238,/static/images/2kfaces/Google_1_Kenneth Cabral_19_oval.jpg,1,7,108,live
202,A1V2H0UF94ATWY:3G2UL9A02FLDCHJ4B3C1LCBIQVW67H,2510,/static/images/2kfaces/Google_1_Paul Reno_1_oval.jpg,1,7,109,live
203,A1V2H0UF94ATWY:3G2UL9A02FLDCHJ4B3C1LCBIQVW67H,2984,/static/images/2kfaces/Google_1_Gloria Canada_13_oval.jpg,1,7,110,live
204,A1V2H0UF94ATWY:3G2UL9A02FLDCHJ4B3C1LCBIQVW67H,4319,/static/images/2kfaces/Google_1_Ryan Marvel_15_oval.jpg,1,8,111,live
205,A1V2H0UF94ATWY:3G2UL9A02FLDCHJ4B3C1LCBIQVW67H,2479,/static/images/2kfaces/Bryan_Shanklin_9_oval.jpg,1,7,112,live
206,A1V2H0UF94ATWY:3G2UL9A02FLDCHJ4B3C1LCBIQVW67H,3055,/static/images/2kfaces/Google_1_Erika Fletcher_1_oval.jpg,1,6,113,live
207,A1V2H0UF94ATWY:3G2UL9A02FLDCHJ4B3C1LCBIQVW67H,3023,/static/images/2kfaces/Google_1_Russell Gillam_17_oval.jpg,1,6,114,live
208,A1V2H0UF94ATWY:3G2UL9A02FLDCHJ4B3C1LCBIQVW67H,4639,/static/images/2kfaces/Google_1_Claudia Rohrer_13_oval.jpg,1,6,115,live
209,A1V2H0UF94ATWY:3G2UL9A02FLDCHJ4B3C1LCBIQVW67H,2455,/static/images/2kfaces/Google_1_Paul Horst_15_oval.jpg,1,8,116,live
210,A2TZKV4CB8K6XF:3S0TNUHWKVPGX432VVCL5IH5I2TD89,5183,/static/images/2kfaces/Google_1_Alma Poor_7_oval.jpg,0,6,6,live
211,A2TZKV4CB8K6XF:3S0TNUHWKVPGX432VVCL5IH5I2TD89,2574,/static/images/2kfaces/Google_1_Erika Fletcher_1_oval.jpg,0,4,7,live
212,A2TZKV4CB8K6XF:3S0TNUHWKVPGX432VVCL5IH5I2TD89,1829,/static/images/2kfaces/Google_1_Frank Luke_9_oval.jpg,0,4,8,live
213,A2TZKV4CB8K6XF:3S0TNUHWKVPGX432VVCL5IH5I2TD89,1545,/static/images/2kfaces/Google_1_Gary Perri_3_oval.jpg,0,4,9,live
214,A2TZKV4CB8K6XF:3S0TNUHWKVPGX432VVCL5IH5I2TD89,1719,/static/images/2kfaces/Google_1_Jonathan Marek_5_oval.jpg,0,4,10,live
215,A2TZKV4CB8K6XF:3S0TNUHWKVPGX432VVCL5IH5I2TD89,2214,/static/images/2kfaces/Google_1_Vera Becker_5_oval.jpg,0,4,11,live
216,A2TZKV4CB8K6XF:3S0TNUHWKVPGX432VVCL5IH5I2TD89,2543,/static/images/2kfaces/Google_1_Gary Nance_3_oval.jpg,0,4,12,live
217,A2TZKV4CB8K6XF:3S0TNUHWKVPGX432VVCL5IH5I2TD89,2398,/static/images/2kfaces/Google_1_Eric Osuna_3_oval.jpg,0,6,13,live
218,A2TZKV4CB8K6XF:3S0TNUHWKVPGX432VVCL5IH5I2TD89,1863,/static/images/2kfaces/Google_1_Gertrude Bayne_11_oval.jpg,0,3,14,live
219,A2TZKV4CB8K6XF:3S0TNUHWKVPGX432VVCL5IH5I2TD89,1901,/static/images/2kfaces/Google_1_Ryan Marvel_15_oval.jpg,0,3,15,live
220,A2TZKV4CB8K6XF:3S0TNUHWKVPGX432VVCL5IH5I2TD89,1619,/static/images/2kfaces/Google_1_Matthew Vanbuskirk_1_oval.jpg,0,4,17,live
221,A2TZKV4CB8K6XF:3S0TNUHWKVPGX432VVCL5IH5I2TD89,1296,/static/images/2kfaces/Google_1_Timothy Galvan_11_oval.jpg,0,4,18,live
222,A2TZKV4CB8K6XF:3S0TNUHWKVPGX432VVCL5IH5I2TD89,1813,/static/images/2kfaces/Google_1_Paul Horst_15_oval.jpg,0,4,19,live
223,A2TZKV4CB8K6XF:3S0TNUHWKVPGX432VVCL5IH5I2TD89,1919,/static/images/2kfaces/Google_1_Carole Bentley_7_oval.jpg,0,5,20,live
224,A2TZKV4CB8K6XF:3S0TNUHWKVPGX432VVCL5IH5I2TD89,2014,/static/images/2kfaces/Google_1_Paul Reno_1_oval.jpg,0,4,21,live
225,A2TZKV4CB8K6XF:3S0TNUHWKVPGX432VVCL5IH5I2TD89,2471,/static/images/2kfaces/Google_1_Samuel Paschal_17_oval.jpg,0,3,22,live
226,A2TZKV4CB8K6XF:3S0TNUHWKVPGX432VVCL5IH5I2TD89,1951,/static/images/2kfaces/Google_1_Gloria Canada_13_oval.jpg,0,2,23,live
227,A2TZKV4CB8K6XF:3S0TNUHWKVPGX432VVCL5IH5I2TD89,2422,/static/images/2kfaces/Google_1_Sarah Woodcock_3_oval.jpg,0,1,24,live
228,A2TZKV4CB8K6XF:3S0TNUHWKVPGX432VVCL5IH5I2TD89,1503,/static/images/2kfaces/Google_1_Gregory Arriola_3_oval.jpg,0,3,25,live
229,A2TZKV4CB8K6XF:3S0TNUHWKVPGX432VVCL5IH5I2TD89,1517,/static/images/2kfaces/Alice_Mckellar_11_oval.jpg,0,4,26,live
230,A2TZKV4CB8K6XF:3S0TNUHWKVPGX432VVCL5IH5I2TD89,1993,/static/images/2kfaces/Google_1_Kenneth Cabral_19_oval.jpg,0,4,28,live
231,A2TZKV4CB8K6XF:3S0TNUHWKVPGX432VVCL5IH5I2TD89,1373,/static/images/2kfaces/Google_1_Claudia Rohrer_13_oval.jpg,0,4,29,live
232,A2TZKV4CB8K6XF:3S0TNUHWKVPGX432VVCL5IH5I2TD89,2615,/static/images/2kfaces/Google_1_Tina Middleton_7_oval.jpg,0,2,30,live
233,A2TZKV4CB8K6XF:3S0TNUHWKVPGX432VVCL5IH5I2TD89,1688,/static/images/2kfaces/Google_1_Steve Stamm_1_oval.jpg,0,5,31,live
234,A2TZKV4CB8K6XF:3S0TNUHWKVPGX432VVCL5IH5I2TD89,1533,/static/images/2kfaces/Google_1_Ernest Crump_3_oval.jpg,0,2,32,live
235,A2TZKV4CB8K6XF:3S0TNUHWKVPGX432VVCL5IH5I2TD89,2053,/static/images/2kfaces/Google_1_Andrew Diggs_9_oval.jpg,0,5,33,live
236,A2TZKV4CB8K6XF:3S0TNUHWKVPGX432VVCL5IH5I2TD89,2590,/static/images/2kfaces/Google_1_Douglas Tanguay_9_oval.jpg,0,3,34,live
237,A2TZKV4CB8K6XF:3S0TNUHWKVPGX432VVCL5IH5I2TD89,1703,/static/images/2kfaces/Google_1_Kathleen Sartain_1_oval.jpg,0,3,35,live
238,A2TZKV4CB8K6XF:3S0TNUHWKVPGX432VVCL5IH5I2TD89,1526,/static/images/2kfaces/Google_1_Louis Mceachern_7_oval.jpg,0,2,36,live
239,A2TZKV4CB8K6XF:3S0TNUHWKVPGX432VVCL5IH5I2TD89,2144,/static/images/2kfaces/Google_1_Donna Asberry_5_oval.jpg,0,4,37,live
240,A2TZKV4CB8K6XF:3S0TNUHWKVPGX432VVCL5IH5I2TD89,2029,/static/images/2kfaces/Google_1_Russell Gillam_17_oval.jpg,0,3,39,live
241,A2TZKV4CB8K6XF:3S0TNUHWKVPGX432VVCL5IH5I2TD89,1766,/static/images/2kfaces/Google_1_Sherry Mcmichael_11_oval.jpg,0,2,40,live
242,A2TZKV4CB8K6XF:3S0TNUHWKVPGX432VVCL5IH5I2TD89,1782,/static/images/2kfaces/Bryan_Shanklin_9_oval.jpg,0,3,41,live
243,A2TZKV4CB8K6XF:3S0TNUHWKVPGX432VVCL5IH5I2TD89,1971,/static/images/2kfaces/Google_1_Sara Guajardo_1_oval.jpg,0,3,42,live
244,A2TZKV4CB8K6XF:3S0TNUHWKVPGX432VVCL5IH5I2TD89,1690,/static/images/2kfaces/Google_1_Marjorie Rule_3_oval.jpg,0,4,43,live
245,A2TZKV4CB8K6XF:3S0TNUHWKVPGX432VVCL5IH5I2TD89,1687,/static/images/2kfaces/Google_1_Norman Westfall_5_oval.jpg,0,5,44,live
246,A2TZKV4CB8K6XF:3S0TNUHWKVPGX432VVCL5IH5I2TD89,1390,/static/images/2kfaces/Google_1_Bryan Brunner_3_oval.jpg,0,2,45,live
247,A2TZKV4CB8K6XF:3S0TNUHWKVPGX432VVCL5IH5I2TD89,1950,/static/images/2kfaces/Google_1_Antonio Benn_12_oval.jpg,0,6,46,live
248,A2TZKV4CB8K6XF:3S0TNUHWKVPGX432VVCL5IH5I2TD89,1743,/static/images/2kfaces/Google_1_Frank Whitehouse_3_oval.jpg,0,3,47,live
249,A2TZKV4CB8K6XF:3S0TNUHWKVPGX432VVCL5IH5I2TD89,1837,/static/images/2kfaces/Google_1_Valerie Noble_9_oval.jpg,0,4,48,live
250,A2TZKV4CB8K6XF:3S0TNUHWKVPGX432VVCL5IH5I2TD89,1427,/static/images/2kfaces/Google_1_Shelley Lund_5_oval.jpg,0,3,50,live
251,A2TZKV4CB8K6XF:3S0TNUHWKVPGX432VVCL5IH5I2TD89,2184,/static/images/2kfaces/Google_1_Cindy Morehead_5_oval.jpg,0,1,51,live
252,A2TZKV4CB8K6XF:3S0TNUHWKVPGX432VVCL5IH5I2TD89,2087,/static/images/2kfaces/Google_1_Henry Gumm_19_oval.jpg,0,4,52,live
253,A2TZKV4CB8K6XF:3S0TNUHWKVPGX432VVCL5IH5I2TD89,1640,/static/images/2kfaces/Google_1_Ronald Driver_19_oval.jpg,0,3,53,live
254,A2TZKV4CB8K6XF:3S0TNUHWKVPGX432VVCL5IH5I2TD89,1655,/static/images/2kfaces/Google_1_Eva Kirkman_15_oval.jpg,0,4,54,live
255,A2TZKV4CB8K6XF:3S0TNUHWKVPGX432VVCL5IH5I2TD89,1559,/static/images/2kfaces/Google_1_Mark Houser_17_oval.jpg,0,3,55,live
256,A2TZKV4CB8K6XF:3S0TNUHWKVPGX432VVCL5IH5I2TD89,1749,/static/images/2kfaces/Google_1_Kenneth Rigsby_15_oval.jpg,0,5,56,live
257,A2TZKV4CB8K6XF:3S0TNUHWKVPGX432VVCL5IH5I2TD89,1318,/static/images/2kfaces/Google_1_Samuel Goff_1_oval.jpg,0,2,57,live
258,A2TZKV4CB8K6XF:3S0TNUHWKVPGX432VVCL5IH5I2TD89,1231,/static/images/2kfaces/Google_1_Florence Melton_1_oval.jpg,0,2,58,live
259,A2TZKV4CB8K6XF:3S0TNUHWKVPGX432VVCL5IH5I2TD89,1842,/static/images/2kfaces/Google_1_Cheryl Griffin_15_oval.jpg,0,5,59,live
260,A2TZKV4CB8K6XF:3S0TNUHWKVPGX432VVCL5IH5I2TD89,3980,/static/images/2kfaces/Google_1_Mark Houser_17_oval.jpg,1,4,63,live
261,A2TZKV4CB8K6XF:3S0TNUHWKVPGX432VVCL5IH5I2TD89,1766,/static/images/2kfaces/Alice_Mckellar_11_oval.jpg,1,6,64,live
262,A2TZKV4CB8K6XF:3S0TNUHWKVPGX432VVCL5IH5I2TD89,1327,/static/images/2kfaces/Google_1_Samuel Paschal_17_oval.jpg,1,2,65,live
263,A2TZKV4CB8K6XF:3S0TNUHWKVPGX432VVCL5IH5I2TD89,1966,/static/images/2kfaces/Google_1_Antonio Benn_12_oval.jpg,1,6,66,live
264,A2TZKV4CB8K6XF:3S0TNUHWKVPGX432VVCL5IH5I2TD89,1935,/static/images/2kfaces/Google_1_Alma Poor_7_oval.jpg,1,5,67,live
265,A2TZKV4CB8K6XF:3S0TNUHWKVPGX432VVCL5IH5I2TD89,1295,/static/images/2kfaces/Google_1_Kathleen Sartain_1_oval.jpg,1,2,68,live
266,A2TZKV4CB8K6XF:3S0TNUHWKVPGX432VVCL5IH5I2TD89,1476,/static/images/2kfaces/Google_1_Matthew Vanbuskirk_1_oval.jpg,1,4,69,live
267,A2TZKV4CB8K6XF:3S0TNUHWKVPGX432VVCL5IH5I2TD89,1364,/static/images/2kfaces/Google_1_Eva Kirkman_15_oval.jpg,1,2,70,live
268,A2TZKV4CB8K6XF:3S0TNUHWKVPGX432VVCL5IH5I2TD89,1551,/static/images/2kfaces/Google_1_Norman Westfall_5_oval.jpg,1,2,71,live
269,A2TZKV4CB8K6XF:3S0TNUHWKVPGX432VVCL5IH5I2TD89,2647,/static/images/2kfaces/Google_1_Frank Luke_9_oval.jpg,1,2,72,live
270,A2TZKV4CB8K6XF:3S0TNUHWKVPGX432VVCL5IH5I2TD89,1668,/static/images/2kfaces/Google_1_Vera Becker_5_oval.jpg,1,2,74,live
271,A2TZKV4CB8K6XF:3S0TNUHWKVPGX432VVCL5IH5I2TD89,1598,/static/images/2kfaces/Google_1_Ronald Driver_19_oval.jpg,1,2,75,live
272,A2TZKV4CB8K6XF:3S0TNUHWKVPGX432VVCL5IH5I2TD89,1494,/static/images/2kfaces/Google_1_Cheryl Griffin_15_oval.jpg,1,3,76,live
273,A2TZKV4CB8K6XF:3S0TNUHWKVPGX432VVCL5IH5I2TD89,5982,/static/images/2kfaces/Google_1_Ryan Marvel_15_oval.jpg,1,2,77,live
274,A2TZKV4CB8K6XF:3S0TNUHWKVPGX432VVCL5IH5I2TD89,1991,/static/images/2kfaces/Google_1_Paul Reno_1_oval.jpg,1,5,78,live
275,A2TZKV4CB8K6XF:3S0TNUHWKVPGX432VVCL5IH5I2TD89,1239,/static/images/2kfaces/Google_1_Sara Guajardo_1_oval.jpg,1,2,79,live
276,A2TZKV4CB8K6XF:3S0TNUHWKVPGX432VVCL5IH5I2TD89,1701,/static/images/2kfaces/Google_1_Jonathan Marek_5_oval.jpg,1,2,80,live
277,A2TZKV4CB8K6XF:3S0TNUHWKVPGX432VVCL5IH5I2TD89,1800,/static/images/2kfaces/Google_1_Gary Perri_3_oval.jpg,1,4,81,live
278,A2TZKV4CB8K6XF:3S0TNUHWKVPGX432VVCL5IH5I2TD89,1661,/static/images/2kfaces/Google_1_Marjorie Rule_3_oval.jpg,1,4,82,live
279,A2TZKV4CB8K6XF:3S0TNUHWKVPGX432VVCL5IH5I2TD89,1927,/static/images/2kfaces/Bryan_Shanklin_9_oval.jpg,1,4,83,live
280,A2TZKV4CB8K6XF:3S0TNUHWKVPGX432VVCL5IH5I2TD89,23173,/static/images/2kfaces/Google_1_Sarah Woodcock_3_oval.jpg,1,4,85,live
281,A2TZKV4CB8K6XF:3S0TNUHWKVPGX432VVCL5IH5I2TD89,2334,/static/images/2kfaces/Google_1_Samuel Goff_1_oval.jpg,1,2,86,live
282,A2TZKV4CB8K6XF:3S0TNUHWKVPGX432VVCL5IH5I2TD89,1533,/static/images/2kfaces/Google_1_Gregory Arriola_3_oval.jpg,1,3,87,live
283,A2TZKV4CB8K6XF:3S0TNUHWKVPGX432VVCL5IH5I2TD89,1630,/static/images/2kfaces/Google_1_Tina Middleton_7_oval.jpg,1,4,88,live
284,A2TZKV4CB8K6XF:3S0TNUHWKVPGX432VVCL5IH5I2TD89,1302,/static/images/2kfaces/Google_1_Ernest Crump_3_oval.jpg,1,3,89,live
285,A2TZKV4CB8K6XF:3S0TNUHWKVPGX432VVCL5IH5I2TD89,1711,/static/images/2kfaces/Google_1_Donna Asberry_5_oval.jpg,1,3,90,live
286,A2TZKV4CB8K6XF:3S0TNUHWKVPGX432VVCL5IH5I2TD89,2046,/static/images/2kfaces/Google_1_Steve Stamm_1_oval.jpg,1,5,91,live
287,A2TZKV4CB8K6XF:3S0TNUHWKVPGX432VVCL5IH5I2TD89,1744,/static/images/2kfaces/Google_1_Kenneth Rigsby_15_oval.jpg,1,5,92,live
288,A2TZKV4CB8K6XF:3S0TNUHWKVPGX432VVCL5IH5I2TD89,1869,/static/images/2kfaces/Google_1_Shelley Lund_5_oval.jpg,1,5,93,live
289,A2TZKV4CB8K6XF:3S0TNUHWKVPGX432VVCL5IH5I2TD89,1783,/static/images/2kfaces/Google_1_Erika Fletcher_1_oval.jpg,1,2,94,live
290,A2TZKV4CB8K6XF:3S0TNUHWKVPGX432VVCL5IH5I2TD89,1471,/static/images/2kfaces/Google_1_Louis Mceachern_7_oval.jpg,1,3,96,live
291,A2TZKV4CB8K6XF:3S0TNUHWKVPGX432VVCL5IH5I2TD89,1181,/static/images/2kfaces/Google_1_Carole Bentley_7_oval.jpg,1,4,97,live
292,A2TZKV4CB8K6XF:3S0TNUHWKVPGX432VVCL5IH5I2TD89,1333,/static/images/2kfaces/Google_1_Gloria Canada_13_oval.jpg,1,3,98,live
293,A2TZKV4CB8K6XF:3S0TNUHWKVPGX432VVCL5IH5I2TD89,1326,/static/images/2kfaces/Google_1_Claudia Rohrer_13_oval.jpg,1,3,99,live
294,A2TZKV4CB8K6XF:3S0TNUHWKVPGX432VVCL5IH5I2TD89,1991,/static/images/2kfaces/Google_1_Douglas Tanguay_9_oval.jpg,1,5,100,live
295,A2TZKV4CB8K6XF:3S0TNUHWKVPGX432VVCL5IH5I2TD89,1563,/static/images/2kfaces/Google_1_Florence Melton_1_oval.jpg,1,2,101,live
296,A2TZKV4CB8K6XF:3S0TNUHWKVPGX432VVCL5IH5I2TD89,1496,/static/images/2kfaces/Google_1_Paul Horst_15_oval.jpg,1,3,102,live
297,A2TZKV4CB8K6XF:3S0TNUHWKVPGX432VVCL5IH5I2TD89,2053,/static/images/2kfaces/Google_1_Valerie Noble_9_oval.jpg,1,5,103,live
298,A2TZKV4CB8K6XF:3S0TNUHWKVPGX432VVCL5IH5I2TD89,1710,/static/images/2kfaces/Google_1_Russell Gillam_17_oval.jpg,1,2,104,live
299,A2TZKV4CB8K6XF:3S0TNUHWKVPGX432VVCL5IH5I2TD89,3287,/static/images/2kfaces/Google_1_Cindy Morehead_5_oval.jpg,1,1,105,live
300,A2TZKV4CB8K6XF:3S0TNUHWKVPGX432VVCL5IH5I2TD89,1477,/static/images/2kfaces/Google_1_Frank Whitehouse_3_oval.jpg,1,3,107,live
301,A2TZKV4CB8K6XF:3S0TNUHWKVPGX432VVCL5IH5I2TD89,1239,/static/images/2kfaces/Google_1_Timothy Galvan_11_oval.jpg,1,2,108,live
302,A2TZKV4CB8K6XF:3S0TNUHWKVPGX432VVCL5IH5I2TD89,2262,/static/images/2kfaces/Google_1_Sherry Mcmichael_11_oval.jpg,1,5,109,live
303,A2TZKV4CB8K6XF:3S0TNUHWKVPGX432VVCL5IH5I2TD89,1736,/static/images/2kfaces/Google_1_Andrew Diggs_9_oval.jpg,1,4,110,live
304,A2TZKV4CB8K6XF:3S0TNUHWKVPGX432VVCL5IH5I2TD89,1471,/static/images/2kfaces/Google_1_Gertrude Bayne_11_oval.jpg,1,4,111,live
305,A2TZKV4CB8K6XF:3S0TNUHWKVPGX432VVCL5IH5I2TD89,1125,/static/images/2kfaces/Google_1_Bryan Brunner_3_oval.jpg,1,2,112,live
306,A2TZKV4CB8K6XF:3S0TNUHWKVPGX432VVCL5IH5I2TD89,1415,/static/images/2kfaces/Google_1_Kenneth Cabral_19_oval.jpg,1,3,113,live
307,A2TZKV4CB8K6XF:3S0TNUHWKVPGX432VVCL5IH5I2TD89,1445,/static/images/2kfaces/Google_1_Henry Gumm_19_oval.jpg,1,4,114,live
308,A2TZKV4CB8K6XF:3S0TNUHWKVPGX432VVCL5IH5I2TD89,1430,/static/images/2kfaces/Google_1_Eric Osuna_3_oval.jpg,1,3,115,live
309,A2TZKV4CB8K6XF:3S0TNUHWKVPGX432VVCL5IH5I2TD89,2638,/static/images/2kfaces/Google_1_Gary Nance_3_oval.jpg,1,3,116,live
310,APL21ZIGWMI6T:3PJUZCGDJ8N4UEQLJF7JJMYFRGA89H,4963,/static/images/2kfaces/Google_1_Gertrude Bayne_11_oval.jpg,0,4,6,live
311,APL21ZIGWMI6T:3PJUZCGDJ8N4UEQLJF7JJMYFRGA89H,3759,/static/images/2kfaces/Google_1_Samuel Goff_1_oval.jpg,0,4,7,live
312,APL21ZIGWMI6T:3PJUZCGDJ8N4UEQLJF7JJMYFRGA89H,3869,/static/images/2kfaces/Google_1_Vera Becker_5_oval.jpg,0,6,8,live
313,APL21ZIGWMI6T:3PJUZCGDJ8N4UEQLJF7JJMYFRGA89H,4154,/static/images/2kfaces/Google_1_Donna Asberry_5_oval.jpg,0,7,9,live
314,APL21ZIGWMI6T:3PJUZCGDJ8N4UEQLJF7JJMYFRGA89H,4089,/static/images/2kfaces/Google_1_Sara Guajardo_1_oval.jpg,0,6,10,live
315,APL21ZIGWMI6T:3PJUZCGDJ8N4UEQLJF7JJMYFRGA89H,2947,/static/images/2kfaces/Google_1_Paul Horst_15_oval.jpg,0,7,11,live
316,APL21ZIGWMI6T:3PJUZCGDJ8N4UEQLJF7JJMYFRGA89H,2554,/static/images/2kfaces/Alice_Mckellar_11_oval.jpg,0,8,12,live
317,APL21ZIGWMI6T:3PJUZCGDJ8N4UEQLJF7JJMYFRGA89H,5980,/static/images/2kfaces/Google_1_Gary Nance_3_oval.jpg,0,8,13,live
318,APL21ZIGWMI6T:3PJUZCGDJ8N4UEQLJF7JJMYFRGA89H,4153,/static/images/2kfaces/Google_1_Marjorie Rule_3_oval.jpg,0,7,14,live
319,APL21ZIGWMI6T:3PJUZCGDJ8N4UEQLJF7JJMYFRGA89H,3627,/static/images/2kfaces/Bryan_Shanklin_9_oval.jpg,0,7,15,live
320,APL21ZIGWMI6T:3PJUZCGDJ8N4UEQLJF7JJMYFRGA89H,3669,/static/images/2kfaces/Google_1_Eric Osuna_3_oval.jpg,0,8,17,live
321,APL21ZIGWMI6T:3PJUZCGDJ8N4UEQLJF7JJMYFRGA89H,4737,/static/images/2kfaces/Google_1_Timothy Galvan_11_oval.jpg,0,8,18,live
322,APL21ZIGWMI6T:3PJUZCGDJ8N4UEQLJF7JJMYFRGA89H,3420,/static/images/2kfaces/Google_1_Cheryl Griffin_15_oval.jpg,0,7,19,live
323,APL21ZIGWMI6T:3PJUZCGDJ8N4UEQLJF7JJMYFRGA89H,4273,/static/images/2kfaces/Google_1_Claudia Rohrer_13_oval.jpg,0,3,20,live
324,APL21ZIGWMI6T:3PJUZCGDJ8N4UEQLJF7JJMYFRGA89H,3785,/static/images/2kfaces/Google_1_Douglas Tanguay_9_oval.jpg,0,5,21,live
325,APL21ZIGWMI6T:3PJUZCGDJ8N4UEQLJF7JJMYFRGA89H,3226,/static/images/2kfaces/Google_1_Kenneth Cabral_19_oval.jpg,0,3,22,live
326,APL21ZIGWMI6T:3PJUZCGDJ8N4UEQLJF7JJMYFRGA89H,3149,/static/images/2kfaces/Google_1_Alma Poor_7_oval.jpg,0,6,23,live
327,APL21ZIGWMI6T:3PJUZCGDJ8N4UEQLJF7JJMYFRGA89H,6316,/static/images/2kfaces/Google_1_Jonathan Marek_5_oval.jpg,0,4,24,live
328,APL21ZIGWMI6T:3PJUZCGDJ8N4UEQLJF7JJMYFRGA89H,4321,/static/images/2kfaces/Google_1_Shelley Lund_5_oval.jpg,0,7,25,live
329,APL21ZIGWMI6T:3PJUZCGDJ8N4UEQLJF7JJMYFRGA89H,3006,/static/images/2kfaces/Google_1_Henry Gumm_19_oval.jpg,0,7,26,live
330,APL21ZIGWMI6T:3PJUZCGDJ8N4UEQLJF7JJMYFRGA89H,3087,/static/images/2kfaces/Google_1_Eva Kirkman_15_oval.jpg,0,6,28,live
331,APL21ZIGWMI6T:3PJUZCGDJ8N4UEQLJF7JJMYFRGA89H,4568,/static/images/2kfaces/Google_1_Andrew Diggs_9_oval.jpg,0,8,29,live
332,APL21ZIGWMI6T:3PJUZCGDJ8N4UEQLJF7JJMYFRGA89H,3802,/static/images/2kfaces/Google_1_Frank Luke_9_oval.jpg,0,8,30,live
333,APL21ZIGWMI6T:3PJUZCGDJ8N4UEQLJF7JJMYFRGA89H,2585,/static/images/2kfaces/Google_1_Steve Stamm_1_oval.jpg,0,7,31,live
334,APL21ZIGWMI6T:3PJUZCGDJ8N4UEQLJF7JJMYFRGA89H,3513,/static/images/2kfaces/Google_1_Ronald Driver_19_oval.jpg,0,6,32,live
335,APL21ZIGWMI6T:3PJUZCGDJ8N4UEQLJF7JJMYFRGA89H,3171,/static/images/2kfaces/Google_1_Russell Gillam_17_oval.jpg,0,4,33,live
336,APL21ZIGWMI6T:3PJUZCGDJ8N4UEQLJF7JJMYFRGA89H,2903,/static/images/2kfaces/Google_1_Sarah Woodcock_3_oval.jpg,0,7,34,live
337,APL21ZIGWMI6T:3PJUZCGDJ8N4UEQLJF7JJMYFRGA89H,4223,/static/images/2kfaces/Google_1_Carole Bentley_7_oval.jpg,0,8,35,live
338,APL21ZIGWMI6T:3PJUZCGDJ8N4UEQLJF7JJMYFRGA89H,3881,/static/images/2kfaces/Google_1_Cindy Morehead_5_oval.jpg,0,8,36,live
339,APL21ZIGWMI6T:3PJUZCGDJ8N4UEQLJF7JJMYFRGA89H,2946,/static/images/2kfaces/Google_1_Paul Reno_1_oval.jpg,0,9,37,live
340,APL21ZIGWMI6T:3PJUZCGDJ8N4UEQLJF7JJMYFRGA89H,4753,/static/images/2kfaces/Google_1_Samuel Paschal_17_oval.jpg,0,5,39,live
341,APL21ZIGWMI6T:3PJUZCGDJ8N4UEQLJF7JJMYFRGA89H,2879,/static/images/2kfaces/Google_1_Tina Middleton_7_oval.jpg,0,7,40,live
342,APL21ZIGWMI6T:3PJUZCGDJ8N4UEQLJF7JJMYFRGA89H,5057,/static/images/2kfaces/Google_1_Louis Mceachern_7_oval.jpg,0,3,41,live
343,APL21ZIGWMI6T:3PJUZCGDJ8N4UEQLJF7JJMYFRGA89H,3801,/static/images/2kfaces/Google_1_Matthew Vanbuskirk_1_oval.jpg,0,7,42,live
344,APL21ZIGWMI6T:3PJUZCGDJ8N4UEQLJF7JJMYFRGA89H,3992,/static/images/2kfaces/Google_1_Ernest Crump_3_oval.jpg,0,3,43,live
345,APL21ZIGWMI6T:3PJUZCGDJ8N4UEQLJF7JJMYFRGA89H,9354,/static/images/2kfaces/Google_1_Ryan Marvel_15_oval.jpg,0,7,44,live
346,APL21ZIGWMI6T:3PJUZCGDJ8N4UEQLJF7JJMYFRGA89H,3772,/static/images/2kfaces/Google_1_Antonio Benn_12_oval.jpg,0,9,45,live
347,APL21ZIGWMI6T:3PJUZCGDJ8N4UEQLJF7JJMYFRGA89H,2902,/static/images/2kfaces/Google_1_Kenneth Rigsby_15_oval.jpg,0,6,46,live
348,APL21ZIGWMI6T:3PJUZCGDJ8N4UEQLJF7JJMYFRGA89H,3954,/static/images/2kfaces/Google_1_Sherry Mcmichael_11_oval.jpg,0,8,47,live
349,APL21ZIGWMI6T:3PJUZCGDJ8N4UEQLJF7JJMYFRGA89H,3431,/static/images/2kfaces/Google_1_Kathleen Sartain_1_oval.jpg,0,5,48,live
350,APL21ZIGWMI6T:3PJUZCGDJ8N4UEQLJF7JJMYFRGA89H,6015,/static/images/2kfaces/Google_1_Bryan Brunner_3_oval.jpg,0,7,50,live
351,APL21ZIGWMI6T:3PJUZCGDJ8N4UEQLJF7JJMYFRGA89H,4072,/static/images/2kfaces/Google_1_Norman Westfall_5_oval.jpg,0,8,51,live
352,APL21ZIGWMI6T:3PJUZCGDJ8N4UEQLJF7JJMYFRGA89H,3003,/static/images/2kfaces/Google_1_Gloria Canada_13_oval.jpg,0,6,52,live
353,APL21ZIGWMI6T:3PJUZCGDJ8N4UEQLJF7JJMYFRGA89H,2801,/static/images/2kfaces/Google_1_Gregory Arriola_3_oval.jpg,0,8,53,live
354,APL21ZIGWMI6T:3PJUZCGDJ8N4UEQLJF7JJMYFRGA89H,4256,/static/images/2kfaces/Google_1_Valerie Noble_9_oval.jpg,0,8,54,live
355,APL21ZIGWMI6T:3PJUZCGDJ8N4UEQLJF7JJMYFRGA89H,2943,/static/images/2kfaces/Google_1_Florence Melton_1_oval.jpg,0,6,55,live
356,APL21ZIGWMI6T:3PJUZCGDJ8N4UEQLJF7JJMYFRGA89H,3010,/static/images/2kfaces/Google_1_Gary Perri_3_oval.jpg,0,6,56,live
357,APL21ZIGWMI6T:3PJUZCGDJ8N4UEQLJF7JJMYFRGA89H,3047,/static/images/2kfaces/Google_1_Mark Houser_17_oval.jpg,0,9,57,live
358,APL21ZIGWMI6T:3PJUZCGDJ8N4UEQLJF7JJMYFRGA89H,3057,/static/images/2kfaces/Google_1_Frank Whitehouse_3_oval.jpg,0,3,58,live
359,APL21ZIGWMI6T:3PJUZCGDJ8N4UEQLJF7JJMYFRGA89H,3722,/static/images/2kfaces/Google_1_Erika Fletcher_1_oval.jpg,0,2,59,live
360,APL21ZIGWMI6T:3PJUZCGDJ8N4UEQLJF7JJMYFRGA89H,4449,/static/images/2kfaces/Google_1_Norman Westfall_5_oval.jpg,1,6,63,live
361,APL21ZIGWMI6T:3PJUZCGDJ8N4UEQLJF7JJMYFRGA89H,3026,/static/images/2kfaces/Google_1_Jonathan Marek_5_oval.jpg,1,5,64,live
362,APL21ZIGWMI6T:3PJUZCGDJ8N4UEQLJF7JJMYFRGA89H,3949,/static/images/2kfaces/Google_1_Gertrude Bayne_11_oval.jpg,1,4,65,live
363,APL21ZIGWMI6T:3PJUZCGDJ8N4UEQLJF7JJMYFRGA89H,3327,/static/images/2kfaces/Google_1_Gary Nance_3_oval.jpg,1,6,66,live
364,APL21ZIGWMI6T:3PJUZCGDJ8N4UEQLJF7JJMYFRGA89H,4212,/static/images/2kfaces/Google_1_Eva Kirkman_15_oval.jpg,1,6,67,live
365,APL21ZIGWMI6T:3PJUZCGDJ8N4UEQLJF7JJMYFRGA89H,15265,/static/images/2kfaces/Google_1_Samuel Goff_1_oval.jpg,1,3,68,live
366,APL21ZIGWMI6T:3PJUZCGDJ8N4UEQLJF7JJMYFRGA89H,3439,/static/images/2kfaces/Google_1_Eric Osuna_3_oval.jpg,1,9,69,live
367,APL21ZIGWMI6T:3PJUZCGDJ8N4UEQLJF7JJMYFRGA89H,2577,/static/images/2kfaces/Google_1_Timothy Galvan_11_oval.jpg,1,8,70,live
368,APL21ZIGWMI6T:3PJUZCGDJ8N4UEQLJF7JJMYFRGA89H,3305,/static/images/2kfaces/Google_1_Bryan Brunner_3_oval.jpg,1,6,71,live
369,APL21ZIGWMI6T:3PJUZCGDJ8N4UEQLJF7JJMYFRGA89H,3928,/static/images/2kfaces/Google_1_Ronald Driver_19_oval.jpg,1,5,72,live
370,APL21ZIGWMI6T:3PJUZCGDJ8N4UEQLJF7JJMYFRGA89H,4834,/static/images/2kfaces/Google_1_Andrew Diggs_9_oval.jpg,1,8,74,live
371,APL21ZIGWMI6T:3PJUZCGDJ8N4UEQLJF7JJMYFRGA89H,2871,/static/images/2kfaces/Google_1_Douglas Tanguay_9_oval.jpg,1,6,75,live
372,APL21ZIGWMI6T:3PJUZCGDJ8N4UEQLJF7JJMYFRGA89H,3683,/static/images/2kfaces/Google_1_Paul Horst_15_oval.jpg,1,7,76,live
373,APL21ZIGWMI6T:3PJUZCGDJ8N4UEQLJF7JJMYFRGA89H,9536,/static/images/2kfaces/Google_1_Kenneth Cabral_19_oval.jpg,1,2,77,live
374,APL21ZIGWMI6T:3PJUZCGDJ8N4UEQLJF7JJMYFRGA89H,3350,/static/images/2kfaces/Google_1_Tina Middleton_7_oval.jpg,1,8,78,live
375,APL21ZIGWMI6T:3PJUZCGDJ8N4UEQLJF7JJMYFRGA89H,13077,/static/images/2kfaces/Google_1_Antonio Benn_12_oval.jpg,1,9,79,live
376,APL21ZIGWMI6T:3PJUZCGDJ8N4UEQLJF7JJMYFRGA89H,3064,/static/images/2kfaces/Google_1_Donna Asberry_5_oval.jpg,1,8,80,live
377,APL21ZIGWMI6T:3PJUZCGDJ8N4UEQLJF7JJMYFRGA89H,3031,/static/images/2kfaces/Google_1_Valerie Noble_9_oval.jpg,1,7,81,live
378,APL21ZIGWMI6T:3PJUZCGDJ8N4UEQLJF7JJMYFRGA89H,3291,/static/images/2kfaces/Google_1_Marjorie Rule_3_oval.jpg,1,6,82,live
379,APL21ZIGWMI6T:3PJUZCGDJ8N4UEQLJF7JJMYFRGA89H,4650,/static/images/2kfaces/Google_1_Cindy Morehead_5_oval.jpg,1,7,83,live
380,APL21ZIGWMI6T:3PJUZCGDJ8N4UEQLJF7JJMYFRGA89H,4515,/static/images/2kfaces/Google_1_Matthew Vanbuskirk_1_oval.jpg,1,7,85,live
381,APL21ZIGWMI6T:3PJUZCGDJ8N4UEQLJF7JJMYFRGA89H,3143,/static/images/2kfaces/Google_1_Gregory Arriola_3_oval.jpg,1,8,86,live
382,APL21ZIGWMI6T:3PJUZCGDJ8N4UEQLJF7JJMYFRGA89H,2951,/static/images/2kfaces/Google_1_Gary Perri_3_oval.jpg,1,8,87,live
383,APL21ZIGWMI6T:3PJUZCGDJ8N4UEQLJF7JJMYFRGA89H,4551,/static/images/2kfaces/Google_1_Sarah Woodcock_3_oval.jpg,1,6,88,live
384,APL21ZIGWMI6T:3PJUZCGDJ8N4UEQLJF7JJMYFRGA89H,4317,/static/images/2kfaces/Google_1_Mark Houser_17_oval.jpg,1,8,89,live
385,APL21ZIGWMI6T:3PJUZCGDJ8N4UEQLJF7JJMYFRGA89H,3647,/static/images/2kfaces/Google_1_Erika Fletcher_1_oval.jpg,1,2,90,live
386,APL21ZIGWMI6T:3PJUZCGDJ8N4UEQLJF7JJMYFRGA89H,4350,/static/images/2kfaces/Google_1_Frank Whitehouse_3_oval.jpg,1,1,91,live
387,APL21ZIGWMI6T:3PJUZCGDJ8N4UEQLJF7JJMYFRGA89H,3504,/static/images/2kfaces/Google_1_Paul Reno_1_oval.jpg,1,8,92,live
388,APL21ZIGWMI6T:3PJUZCGDJ8N4UEQLJF7JJMYFRGA89H,2863,/static/images/2kfaces/Google_1_Henry Gumm_19_oval.jpg,1,7,93,live
389,APL21ZIGWMI6T:3PJUZCGDJ8N4UEQLJF7JJMYFRGA89H,4258,/static/images/2kfaces/Google_1_Florence Melton_1_oval.jpg,1,6,94,live
390,APL21ZIGWMI6T:3PJUZCGDJ8N4UEQLJF7JJMYFRGA89H,2806,/static/images/2kfaces/Google_1_Claudia Rohrer_13_oval.jpg,1,3,96,live
391,APL21ZIGWMI6T:3PJUZCGDJ8N4UEQLJF7JJMYFRGA89H,3949,/static/images/2kfaces/Google_1_Kathleen Sartain_1_oval.jpg,1,4,97,live
392,APL21ZIGWMI6T:3PJUZCGDJ8N4UEQLJF7JJMYFRGA89H,3087,/static/images/2kfaces/Google_1_Ernest Crump_3_oval.jpg,1,3,98,live
393,APL21ZIGWMI6T:3PJUZCGDJ8N4UEQLJF7JJMYFRGA89H,3079,/static/images/2kfaces/Google_1_Samuel Paschal_17_oval.jpg,1,4,99,live
394,APL21ZIGWMI6T:3PJUZCGDJ8N4UEQLJF7JJMYFRGA89H,2843,/static/images/2kfaces/Google_1_Russell Gillam_17_oval.jpg,1,2,100,live
395,APL21ZIGWMI6T:3PJUZCGDJ8N4UEQLJF7JJMYFRGA89H,2776,/static/images/2kfaces/Google_1_Kenneth Rigsby_15_oval.jpg,1,5,101,live
396,APL21ZIGWMI6T:3PJUZCGDJ8N4UEQLJF7JJMYFRGA89H,3535,/static/images/2kfaces/Google_1_Gloria Canada_13_oval.jpg,1,6,102,live
397,APL21ZIGWMI6T:3PJUZCGDJ8N4UEQLJF7JJMYFRGA89H,2707,/static/images/2kfaces/Google_1_Carole Bentley_7_oval.jpg,1,7,103,live
398,APL21ZIGWMI6T:3PJUZCGDJ8N4UEQLJF7JJMYFRGA89H,5077,/static/images/2kfaces/Google_1_Frank Luke_9_oval.jpg,1,7,104,live
399,APL21ZIGWMI6T:3PJUZCGDJ8N4UEQLJF7JJMYFRGA89H,4049,/static/images/2kfaces/Google_1_Sherry Mcmichael_11_oval.jpg,1,8,105,live
400,APL21ZIGWMI6T:3PJUZCGDJ8N4UEQLJF7JJMYFRGA89H,3283,/static/images/2kfaces/Google_1_Sara Guajardo_1_oval.jpg,1,3,107,live
401,APL21ZIGWMI6T:3PJUZCGDJ8N4UEQLJF7JJMYFRGA89H,4272,/static/images/2kfaces/Google_1_Ryan Marvel_15_oval.jpg,1,6,108,live
402,APL21ZIGWMI6T:3PJUZCGDJ8N4UEQLJF7JJMYFRGA89H,3773,/static/images/2kfaces/Google_1_Vera Becker_5_oval.jpg,1,7,109,live
403,APL21ZIGWMI6T:3PJUZCGDJ8N4UEQLJF7JJMYFRGA89H,2494,/static/images/2kfaces/Google_1_Steve Stamm_1_oval.jpg,1,7,110,live
404,APL21ZIGWMI6T:3PJUZCGDJ8N4UEQLJF7JJMYFRGA89H,2958,/static/images/2kfaces/Google_1_Louis Mceachern_7_oval.jpg,1,4,111,live
405,APL21ZIGWMI6T:3PJUZCGDJ8N4UEQLJF7JJMYFRGA89H,2737,/static/images/2kfaces/Alice_Mckellar_11_oval.jpg,1,8,112,live
406,APL21ZIGWMI6T:3PJUZCGDJ8N4UEQLJF7JJMYFRGA89H,2591,/static/images/2kfaces/Bryan_Shanklin_9_oval.jpg,1,7,113,live
407,APL21ZIGWMI6T:3PJUZCGDJ8N4UEQLJF7JJMYFRGA89H,4069,/static/images/2kfaces/Google_1_Cheryl Griffin_15_oval.jpg,1,8,114,live
408,APL21ZIGWMI6T:3PJUZCGDJ8N4UEQLJF7JJMYFRGA89H,10185,/static/images/2kfaces/Google_1_Alma Poor_7_oval.jpg,1,7,115,live
409,APL21ZIGWMI6T:3PJUZCGDJ8N4UEQLJF7JJMYFRGA89H,2694,/static/images/2kfaces/Google_1_Shelley Lund_5_oval.jpg,1,8,116,live
410,A125KW9P18V5Z1:3AAPLD8UCEOG740SKP66NZSQO62THG,7261,/static/images/2kfaces/Google_1_Kenneth Rigsby_15_oval.jpg,0,6,6,live
411,A125KW9P18V5Z1:3AAPLD8UCEOG740SKP66NZSQO62THG,3926,/static/images/2kfaces/Google_1_Marjorie Rule_3_oval.jpg,0,7,7,live
412,A125KW9P18V5Z1:3AAPLD8UCEOG740SKP66NZSQO62THG,3132,/static/images/2kfaces/Google_1_Frank Whitehouse_3_oval.jpg,0,3,8,live
413,A125KW9P18V5Z1:3AAPLD8UCEOG740SKP66NZSQO62THG,2331,/static/images/2kfaces/Google_1_Andrew Diggs_9_oval.jpg,0,4,9,live
414,A125KW9P18V5Z1:3AAPLD8UCEOG740SKP66NZSQO62THG,4328,/static/images/2kfaces/Google_1_Ryan Marvel_15_oval.jpg,0,8,10,live
415,A125KW9P18V5Z1:3AAPLD8UCEOG740SKP66NZSQO62THG,3671,/static/images/2kfaces/Google_1_Norman Westfall_5_oval.jpg,0,6,11,live
416,A125KW9P18V5Z1:3AAPLD8UCEOG740SKP66NZSQO62THG,3611,/static/images/2kfaces/Google_1_Douglas Tanguay_9_oval.jpg,0,6,12,live
417,A125KW9P18V5Z1:3AAPLD8UCEOG740SKP66NZSQO62THG,2498,/static/images/2kfaces/Google_1_Shelley Lund_5_oval.jpg,0,5,13,live
418,A125KW9P18V5Z1:3AAPLD8UCEOG740SKP66NZSQO62THG,2836,/static/images/2kfaces/Bryan_Shanklin_9_oval.jpg,0,4,14,live
419,A125KW9P18V5Z1:3AAPLD8UCEOG740SKP66NZSQO62THG,3024,/static/images/2kfaces/Google_1_Eric Osuna_3_oval.jpg,0,6,15,live
420,A125KW9P18V5Z1:3AAPLD8UCEOG740SKP66NZSQO62THG,4614,/static/images/2kfaces/Google_1_Mark Houser_17_oval.jpg,0,7,17,live
421,A125KW9P18V5Z1:3AAPLD8UCEOG740SKP66NZSQO62THG,2213,/static/images/2kfaces/Google_1_Paul Horst_15_oval.jpg,0,5,18,live
422,A125KW9P18V5Z1:3AAPLD8UCEOG740SKP66NZSQO62THG,3802,/static/images/2kfaces/Google_1_Frank Luke_9_oval.jpg,0,3,19,live
423,A125KW9P18V5Z1:3AAPLD8UCEOG740SKP66NZSQO62THG,3339,/static/images/2kfaces/Google_1_Jonathan Marek_5_oval.jpg,0,4,20,live
424,A125KW9P18V5Z1:3AAPLD8UCEOG740SKP66NZSQO62THG,2849,/static/images/2kfaces/Google_1_Vera Becker_5_oval.jpg,0,5,21,live
425,A125KW9P18V5Z1:3AAPLD8UCEOG740SKP66NZSQO62THG,2052,/static/images/2kfaces/Google_1_Antonio Benn_12_oval.jpg,0,6,22,live
426,A125KW9P18V5Z1:3AAPLD8UCEOG740SKP66NZSQO62THG,2564,/static/images/2kfaces/Google_1_Samuel Paschal_17_oval.jpg,0,4,23,live
427,A125KW9P18V5Z1:3AAPLD8UCEOG740SKP66NZSQO62THG,2513,/static/images/2kfaces/Google_1_Steve Stamm_1_oval.jpg,0,5,24,live
428,A125KW9P18V5Z1:3AAPLD8UCEOG740SKP66NZSQO62THG,2294,/static/images/2kfaces/Google_1_Tina Middleton_7_oval.jpg,0,6,25,live
429,A125KW9P18V5Z1:3AAPLD8UCEOG740SKP66NZSQO62THG,2798,/static/images/2kfaces/Google_1_Russell Gillam_17_oval.jpg,0,4,26,live
430,A125KW9P18V5Z1:3AAPLD8UCEOG740SKP66NZSQO62THG,2487,/static/images/2kfaces/Google_1_Florence Melton_1_oval.jpg,0,4,28,live
431,A125KW9P18V5Z1:3AAPLD8UCEOG740SKP66NZSQO62THG,2261,/static/images/2kfaces/Alice_Mckellar_11_oval.jpg,0,5,29,live
432,A125KW9P18V5Z1:3AAPLD8UCEOG740SKP66NZSQO62THG,3737,/static/images/2kfaces/Google_1_Bryan Brunner_3_oval.jpg,0,5,30,live
433,A125KW9P18V5Z1:3AAPLD8UCEOG740SKP66NZSQO62THG,2336,/static/images/2kfaces/Google_1_Cheryl Griffin_15_oval.jpg,0,6,31,live
434,A125KW9P18V5Z1:3AAPLD8UCEOG740SKP66NZSQO62THG,2507,/static/images/2kfaces/Google_1_Sara Guajardo_1_oval.jpg,0,6,32,live
435,A125KW9P18V5Z1:3AAPLD8UCEOG740SKP66NZSQO62THG,3766,/static/images/2kfaces/Google_1_Kathleen Sartain_1_oval.jpg,0,5,33,live
436,A125KW9P18V5Z1:3AAPLD8UCEOG740SKP66NZSQO62THG,3147,/static/images/2kfaces/Google_1_Ronald Driver_19_oval.jpg,0,6,34,live
437,A125KW9P18V5Z1:3AAPLD8UCEOG740SKP66NZSQO62THG,2446,/static/images/2kfaces/Google_1_Henry Gumm_19_oval.jpg,0,6,35,live
438,A125KW9P18V5Z1:3AAPLD8UCEOG740SKP66NZSQO62THG,3020,/static/images/2kfaces/Google_1_Valerie Noble_9_oval.jpg,0,5,36,live
439,A125KW9P18V5Z1:3AAPLD8UCEOG740SKP66NZSQO62THG,2606,/static/images/2kfaces/Google_1_Sarah Woodcock_3_oval.jpg,0,4,37,live
440,A125KW9P18V5Z1:3AAPLD8UCEOG740SKP66NZSQO62THG,5530,/static/images/2kfaces/Google_1_Alma Poor_7_oval.jpg,0,7,39,live
441,A125KW9P18V5Z1:3AAPLD8UCEOG740SKP66NZSQO62THG,3040,/static/images/2kfaces/Google_1_Erika Fletcher_1_oval.jpg,0,5,40,live
442,A125KW9P18V5Z1:3AAPLD8UCEOG740SKP66NZSQO62THG,2887,/static/images/2kfaces/Google_1_Cindy Morehead_5_oval.jpg,0,4,41,live
443,A125KW9P18V5Z1:3AAPLD8UCEOG740SKP66NZSQO62THG,2897,/static/images/2kfaces/Google_1_Carole Bentley_7_oval.jpg,0,6,42,live
444,A125KW9P18V5Z1:3AAPLD8UCEOG740SKP66NZSQO62THG,4024,/static/images/2kfaces/Google_1_Gertrude Bayne_11_oval.jpg,0,4,43,live
445,A125KW9P18V5Z1:3AAPLD8UCEOG740SKP66NZSQO62THG,2489,/static/images/2kfaces/Google_1_Gary Nance_3_oval.jpg,0,7,44,live
446,A125KW9P18V5Z1:3AAPLD8UCEOG740SKP66NZSQO62THG,2770,/static/images/2kfaces/Google_1_Gloria Canada_13_oval.jpg,0,4,45,live
447,A125KW9P18V5Z1:3AAPLD8UCEOG740SKP66NZSQO62THG,3456,/static/images/2kfaces/Google_1_Sherry Mcmichael_11_oval.jpg,0,5,46,live
448,A125KW9P18V5Z1:3AAPLD8UCEOG740SKP66NZSQO62THG,2302,/static/images/2kfaces/Google_1_Matthew Vanbuskirk_1_oval.jpg,0,6,47,live
449,A125KW9P18V5Z1:3AAPLD8UCEOG740SKP66NZSQO62THG,2951,/static/images/2kfaces/Google_1_Donna Asberry_5_oval.jpg,0,4,48,live
450,A125KW9P18V5Z1:3AAPLD8UCEOG740SKP66NZSQO62THG,4066,/static/images/2kfaces/Google_1_Samuel Goff_1_oval.jpg,0,3,50,live
451,A125KW9P18V5Z1:3AAPLD8UCEOG740SKP66NZSQO62THG,3481,/static/images/2kfaces/Google_1_Eva Kirkman_15_oval.jpg,0,7,51,live
452,A125KW9P18V5Z1:3AAPLD8UCEOG740SKP66NZSQO62THG,2865,/static/images/2kfaces/Google_1_Louis Mceachern_7_oval.jpg,0,2,52,live
453,A125KW9P18V5Z1:3AAPLD8UCEOG740SKP66NZSQO62THG,2600,/static/images/2kfaces/Google_1_Gary Perri_3_oval.jpg,0,4,53,live
454,A125KW9P18V5Z1:3AAPLD8UCEOG740SKP66NZSQO62THG,2198,/static/images/2kfaces/Google_1_Ernest Crump_3_oval.jpg,0,5,54,live
455,A125KW9P18V5Z1:3AAPLD8UCEOG740SKP66NZSQO62THG,3144,/static/images/2kfaces/Google_1_Claudia Rohrer_13_oval.jpg,0,2,55,live
456,A125KW9P18V5Z1:3AAPLD8UCEOG740SKP66NZSQO62THG,3594,/static/images/2kfaces/Google_1_Timothy Galvan_11_oval.jpg,0,4,56,live
457,A125KW9P18V5Z1:3AAPLD8UCEOG740SKP66NZSQO62THG,3187,/static/images/2kfaces/Google_1_Kenneth Cabral_19_oval.jpg,0,3,57,live
458,A125KW9P18V5Z1:3AAPLD8UCEOG740SKP66NZSQO62THG,3640,/static/images/2kfaces/Google_1_Paul Reno_1_oval.jpg,0,7,58,live
459,A125KW9P18V5Z1:3AAPLD8UCEOG740SKP66NZSQO62THG,3249,/static/images/2kfaces/Google_1_Gregory Arriola_3_oval.jpg,0,5,59,live
460,A125KW9P18V5Z1:3AAPLD8UCEOG740SKP66NZSQO62THG,10347,/static/images/2kfaces/Google_1_Matthew Vanbuskirk_1_oval.jpg,1,7,63,live
461,A125KW9P18V5Z1:3AAPLD8UCEOG740SKP66NZSQO62THG,1919,/static/images/2kfaces/Google_1_Cindy Morehead_5_oval.jpg,1,4,64,live
462,A125KW9P18V5Z1:3AAPLD8UCEOG740SKP66NZSQO62THG,2471,/static/images/2kfaces/Google_1_Norman Westfall_5_oval.jpg,1,5,65,live
463,A125KW9P18V5Z1:3AAPLD8UCEOG740SKP66NZSQO62THG,1800,/static/images/2kfaces/Google_1_Timothy Galvan_11_oval.jpg,1,4,66,live
464,A125KW9P18V5Z1:3AAPLD8UCEOG740SKP66NZSQO62THG,2207,/static/images/2kfaces/Google_1_Andrew Diggs_9_oval.jpg,1,4,67,live
465,A125KW9P18V5Z1:3AAPLD8UCEOG740SKP66NZSQO62THG,1967,/static/images/2kfaces/Google_1_Ernest Crump_3_oval.jpg,1,5,68,live
466,A125KW9P18V5Z1:3AAPLD8UCEOG740SKP66NZSQO62THG,2097,/static/images/2kfaces/Google_1_Marjorie Rule_3_oval.jpg,1,6,69,live
467,A125KW9P18V5Z1:3AAPLD8UCEOG740SKP66NZSQO62THG,2982,/static/images/2kfaces/Alice_Mckellar_11_oval.jpg,1,6,70,live
468,A125KW9P18V5Z1:3AAPLD8UCEOG740SKP66NZSQO62THG,1953,/static/images/2kfaces/Google_1_Eric Osuna_3_oval.jpg,1,6,71,live
469,A125KW9P18V5Z1:3AAPLD8UCEOG740SKP66NZSQO62THG,1861,/static/images/2kfaces/Google_1_Eva Kirkman_15_oval.jpg,1,7,72,live
470,A125KW9P18V5Z1:3AAPLD8UCEOG740SKP66NZSQO62THG,2415,/static/images/2kfaces/Google_1_Kenneth Rigsby_15_oval.jpg,1,4,74,live
471,A125KW9P18V5Z1:3AAPLD8UCEOG740SKP66NZSQO62THG,1917,/static/images/2kfaces/Google_1_Kenneth Cabral_19_oval.jpg,1,2,75,live
472,A125KW9P18V5Z1:3AAPLD8UCEOG740SKP66NZSQO62THG,3790,/static/images/2kfaces/Google_1_Gary Perri_3_oval.jpg,1,5,76,live
473,A125KW9P18V5Z1:3AAPLD8UCEOG740SKP66NZSQO62THG,3261,/static/images/2kfaces/Google_1_Samuel Goff_1_oval.jpg,1,3,77,live
474,A125KW9P18V5Z1:3AAPLD8UCEOG740SKP66NZSQO62THG,2151,/static/images/2kfaces/Google_1_Gloria Canada_13_oval.jpg,1,4,78,live
475,A125KW9P18V5Z1:3AAPLD8UCEOG740SKP66NZSQO62THG,2527,/static/images/2kfaces/Google_1_Carole Bentley_7_oval.jpg,1,6,79,live
476,A125KW9P18V5Z1:3AAPLD8UCEOG740SKP66NZSQO62THG,4497,/static/images/2kfaces/Google_1_Paul Reno_1_oval.jpg,1,7,80,live
477,A125KW9P18V5Z1:3AAPLD8UCEOG740SKP66NZSQO62THG,2818,/static/images/2kfaces/Google_1_Claudia Rohrer_13_oval.jpg,1,2,81,live
478,A125KW9P18V5Z1:3AAPLD8UCEOG740SKP66NZSQO62THG,2226,/static/images/2kfaces/Google_1_Mark Houser_17_oval.jpg,1,8,82,live
479,A125KW9P18V5Z1:3AAPLD8UCEOG740SKP66NZSQO62THG,2680,/static/images/2kfaces/Google_1_Bryan Brunner_3_oval.jpg,1,5,83,live
480,A125KW9P18V5Z1:3AAPLD8UCEOG740SKP66NZSQO62THG,2296,/static/images/2kfaces/Google_1_Donna Asberry_5_oval.jpg,1,4,85,live
481,A125KW9P18V5Z1:3AAPLD8UCEOG740SKP66NZSQO62THG,2002,/static/images/2kfaces/Google_1_Alma Poor_7_oval.jpg,1,7,86,live
482,A125KW9P18V5Z1:3AAPLD8UCEOG740SKP66NZSQO62THG,2082,/static/images/2kfaces/Google_1_Tina Middleton_7_oval.jpg,1,6,87,live
483,A125KW9P18V5Z1:3AAPLD8UCEOG740SKP66NZSQO62THG,4275,/static/images/2kfaces/Google_1_Samuel Paschal_17_oval.jpg,1,3,88,live
484,A125KW9P18V5Z1:3AAPLD8UCEOG740SKP66NZSQO62THG,2130,/static/images/2kfaces/Google_1_Sarah Woodcock_3_oval.jpg,1,4,89,live
485,A125KW9P18V5Z1:3AAPLD8UCEOG740SKP66NZSQO62THG,2265,/static/images/2kfaces/Google_1_Sherry Mcmichael_11_oval.jpg,1,5,90,live
486,A125KW9P18V5Z1:3AAPLD8UCEOG740SKP66NZSQO62THG,2098,/static/images/2kfaces/Google_1_Shelley Lund_5_oval.jpg,1,4,91,live
487,A125KW9P18V5Z1:3AAPLD8UCEOG740SKP66NZSQO62THG,2209,/static/images/2kfaces/Google_1_Gregory Arriola_3_oval.jpg,1,5,92,live
488,A125KW9P18V5Z1:3AAPLD8UCEOG740SKP66NZSQO62THG,2835,/static/images/2kfaces/Google_1_Ronald Driver_19_oval.jpg,1,7,93,live
489,A125KW9P18V5Z1:3AAPLD8UCEOG740SKP66NZSQO62THG,2193,/static/images/2kfaces/Google_1_Russell Gillam_17_oval.jpg,1,4,94,live
490,A125KW9P18V5Z1:3AAPLD8UCEOG740SKP66NZSQO62THG,2107,/static/images/2kfaces/Google_1_Gary Nance_3_oval.jpg,1,7,96,live
491,A125KW9P18V5Z1:3AAPLD8UCEOG740SKP66NZSQO62THG,2760,/static/images/2kfaces/Google_1_Ryan Marvel_15_oval.jpg,1,8,97,live
492,A125KW9P18V5Z1:3AAPLD8UCEOG740SKP66NZSQO62THG,2464,/static/images/2kfaces/Google_1_Sara Guajardo_1_oval.jpg,1,6,98,live
493,A125KW9P18V5Z1:3AAPLD8UCEOG740SKP66NZSQO62THG,2557,/static/images/2kfaces/Google_1_Douglas Tanguay_9_oval.jpg,1,7,99,live
494,A125KW9P18V5Z1:3AAPLD8UCEOG740SKP66NZSQO62THG,2703,/static/images/2kfaces/Google_1_Erika Fletcher_1_oval.jpg,1,4,100,live
495,A125KW9P18V5Z1:3AAPLD8UCEOG740SKP66NZSQO62THG,2418,/static/images/2kfaces/Google_1_Steve Stamm_1_oval.jpg,1,5,101,live
496,A125KW9P18V5Z1:3AAPLD8UCEOG740SKP66NZSQO62THG,2159,/static/images/2kfaces/Google_1_Frank Whitehouse_3_oval.jpg,1,2,102,live
497,A125KW9P18V5Z1:3AAPLD8UCEOG740SKP66NZSQO62THG,2410,/static/images/2kfaces/Google_1_Florence Melton_1_oval.jpg,1,4,103,live
498,A125KW9P18V5Z1:3AAPLD8UCEOG740SKP66NZSQO62THG,2871,/static/images/2kfaces/Google_1_Valerie Noble_9_oval.jpg,1,7,104,live
499,A125KW9P18V5Z1:3AAPLD8UCEOG740SKP66NZSQO62THG,2078,/static/images/2kfaces/Google_1_Gertrude Bayne_11_oval.jpg,1,4,105,live
500,A125KW9P18V5Z1:3AAPLD8UCEOG740SKP66NZSQO62THG,2813,/static/images/2kfaces/Google_1_Frank Luke_9_oval.jpg,1,4,107,live
501,A125KW9P18V5Z1:3AAPLD8UCEOG740SKP66NZSQO62THG,3006,/static/images/2kfaces/Google_1_Cheryl Griffin_15_oval.jpg,1,7,108,live
502,A125KW9P18V5Z1:3AAPLD8UCEOG740SKP66NZSQO62THG,2142,/static/images/2kfaces/Google_1_Louis Mceachern_7_oval.jpg,1,2,109,live
503,A125KW9P18V5Z1:3AAPLD8UCEOG740SKP66NZSQO62THG,2323,/static/images/2kfaces/Google_1_Vera Becker_5_oval.jpg,1,4,110,live
504,A125KW9P18V5Z1:3AAPLD8UCEOG740SKP66NZSQO62THG,3164,/static/images/2kfaces/Google_1_Henry Gumm_19_oval.jpg,1,7,111,live
505,A125KW9P18V5Z1:3AAPLD8UCEOG740SKP66NZSQO62THG,2417,/static/images/2kfaces/Bryan_Shanklin_9_oval.jpg,1,4,112,live
506,A125KW9P18V5Z1:3AAPLD8UCEOG740SKP66NZSQO62THG,2081,/static/images/2kfaces/Google_1_Antonio Benn_12_oval.jpg,1,6,113,live
507,A125KW9P18V5Z1:3AAPLD8UCEOG740SKP66NZSQO62THG,2179,/static/images/2kfaces/Google_1_Jonathan Marek_5_oval.jpg,1,4,114,live
508,A125KW9P18V5Z1:3AAPLD8UCEOG740SKP66NZSQO62THG,2025,/static/images/2kfaces/Google_1_Kathleen Sartain_1_oval.jpg,1,5,115,live
509,A125KW9P18V5Z1:3AAPLD8UCEOG740SKP66NZSQO62THG,2110,/static/images/2kfaces/Google_1_Paul Horst_15_oval.jpg,1,5,116,live
510,A3LL096CAY5WHB:3X87C8JFV8IS5XMGEFOAM8O5DAKQSK,2656,/static/images/2kfaces/Google_1_Mark Houser_17_oval.jpg,0,8,6,live
511,A3LL096CAY5WHB:3X87C8JFV8IS5XMGEFOAM8O5DAKQSK,16800,/static/images/2kfaces/Google_1_Ernest Crump_3_oval.jpg,0,8,7,live
512,A3LL096CAY5WHB:3X87C8JFV8IS5XMGEFOAM8O5DAKQSK,2131,/static/images/2kfaces/Google_1_Kenneth Cabral_19_oval.jpg,0,7,8,live
513,A3LL096CAY5WHB:3X87C8JFV8IS5XMGEFOAM8O5DAKQSK,7666,/static/images/2kfaces/Google_1_Samuel Paschal_17_oval.jpg,0,7,9,live
514,A3LL096CAY5WHB:3X87C8JFV8IS5XMGEFOAM8O5DAKQSK,2320,/static/images/2kfaces/Google_1_Carole Bentley_7_oval.jpg,0,8,10,live
515,A3LL096CAY5WHB:3X87C8JFV8IS5XMGEFOAM8O5DAKQSK,5936,/static/images/2kfaces/Google_1_Kathleen Sartain_1_oval.jpg,0,6,11,live
516,A3LL096CAY5WHB:3X87C8JFV8IS5XMGEFOAM8O5DAKQSK,5094,/static/images/2kfaces/Google_1_Cheryl Griffin_15_oval.jpg,0,8,12,live
517,A3LL096CAY5WHB:3X87C8JFV8IS5XMGEFOAM8O5DAKQSK,6001,/static/images/2kfaces/Google_1_Ronald Driver_19_oval.jpg,0,7,13,live
518,A3LL096CAY5WHB:3X87C8JFV8IS5XMGEFOAM8O5DAKQSK,1528,/static/images/2kfaces/Google_1_Louis Mceachern_7_oval.jpg,0,9,14,live
519,A3LL096CAY5WHB:3X87C8JFV8IS5XMGEFOAM8O5DAKQSK,1277,/static/images/2kfaces/Google_1_Timothy Galvan_11_oval.jpg,0,7,15,live
520,A3LL096CAY5WHB:3X87C8JFV8IS5XMGEFOAM8O5DAKQSK,1792,/static/images/2kfaces/Google_1_Eva Kirkman_15_oval.jpg,0,8,17,live
521,A3LL096CAY5WHB:3X87C8JFV8IS5XMGEFOAM8O5DAKQSK,2402,/static/images/2kfaces/Google_1_Gary Perri_3_oval.jpg,0,6,18,live
522,A3LL096CAY5WHB:3X87C8JFV8IS5XMGEFOAM8O5DAKQSK,16850,/static/images/2kfaces/Google_1_Henry Gumm_19_oval.jpg,0,8,19,live
523,A3LL096CAY5WHB:3X87C8JFV8IS5XMGEFOAM8O5DAKQSK,1932,/static/images/2kfaces/Google_1_Matthew Vanbuskirk_1_oval.jpg,0,7,20,live
524,A3LL096CAY5WHB:3X87C8JFV8IS5XMGEFOAM8O5DAKQSK,1636,/static/images/2kfaces/Google_1_Alma Poor_7_oval.jpg,0,9,21,live
525,A3LL096CAY5WHB:3X87C8JFV8IS5XMGEFOAM8O5DAKQSK,1089,/static/images/2kfaces/Google_1_Florence Melton_1_oval.jpg,0,6,22,live
526,A3LL096CAY5WHB:3X87C8JFV8IS5XMGEFOAM8O5DAKQSK,2643,/static/images/2kfaces/Google_1_Claudia Rohrer_13_oval.jpg,0,7,23,live
527,A3LL096CAY5WHB:3X87C8JFV8IS5XMGEFOAM8O5DAKQSK,1496,/static/images/2kfaces/Google_1_Cindy Morehead_5_oval.jpg,0,5,24,live
528,A3LL096CAY5WHB:3X87C8JFV8IS5XMGEFOAM8O5DAKQSK,2592,/static/images/2kfaces/Google_1_Gregory Arriola_3_oval.jpg,0,8,25,live
529,A3LL096CAY5WHB:3X87C8JFV8IS5XMGEFOAM8O5DAKQSK,1307,/static/images/2kfaces/Google_1_Antonio Benn_12_oval.jpg,0,6,26,live
530,A3LL096CAY5WHB:3X87C8JFV8IS5XMGEFOAM8O5DAKQSK,1428,/static/images/2kfaces/Google_1_Donna Asberry_5_oval.jpg,0,7,28,live
531,A3LL096CAY5WHB:3X87C8JFV8IS5XMGEFOAM8O5DAKQSK,2047,/static/images/2kfaces/Google_1_Sarah Woodcock_3_oval.jpg,0,5,29,live
532,A3LL096CAY5WHB:3X87C8JFV8IS5XMGEFOAM8O5DAKQSK,1169,/static/images/2kfaces/Google_1_Douglas Tanguay_9_oval.jpg,0,7,30,live
533,A3LL096CAY5WHB:3X87C8JFV8IS5XMGEFOAM8O5DAKQSK,1607,/static/images/2kfaces/Google_1_Tina Middleton_7_oval.jpg,0,9,31,live
534,A3LL096CAY5WHB:3X87C8JFV8IS5XMGEFOAM8O5DAKQSK,1968,/static/images/2kfaces/Google_1_Sara Guajardo_1_oval.jpg,0,7,32,live
535,A3LL096CAY5WHB:3X87C8JFV8IS5XMGEFOAM8O5DAKQSK,1271,/static/images/2kfaces/Google_1_Vera Becker_5_oval.jpg,0,8,33,live
536,A3LL096CAY5WHB:3X87C8JFV8IS5XMGEFOAM8O5DAKQSK,1482,/static/images/2kfaces/Google_1_Gloria Canada_13_oval.jpg,0,5,34,live
537,A3LL096CAY5WHB:3X87C8JFV8IS5XMGEFOAM8O5DAKQSK,1156,/static/images/2kfaces/Google_1_Samuel Goff_1_oval.jpg,0,7,35,live
538,A3LL096CAY5WHB:3X87C8JFV8IS5XMGEFOAM8O5DAKQSK,1223,/static/images/2kfaces/Google_1_Kenneth Rigsby_15_oval.jpg,0,6,36,live
539,A3LL096CAY5WHB:3X87C8JFV8IS5XMGEFOAM8O5DAKQSK,2570,/static/images/2kfaces/Google_1_Paul Reno_1_oval.jpg,0,5,37,live
540,A3LL096CAY5WHB:3X87C8JFV8IS5XMGEFOAM8O5DAKQSK,6452,/static/images/2kfaces/Google_1_Norman Westfall_5_oval.jpg,0,8,39,live
541,A3LL096CAY5WHB:3X87C8JFV8IS5XMGEFOAM8O5DAKQSK,1262,/static/images/2kfaces/Google_1_Eric Osuna_3_oval.jpg,0,9,40,live
542,A3LL096CAY5WHB:3X87C8JFV8IS5XMGEFOAM8O5DAKQSK,1300,/static/images/2kfaces/Google_1_Andrew Diggs_9_oval.jpg,0,7,41,live
543,A3LL096CAY5WHB:3X87C8JFV8IS5XMGEFOAM8O5DAKQSK,2082,/static/images/2kfaces/Google_1_Gary Nance_3_oval.jpg,0,6,42,live
544,A3LL096CAY5WHB:3X87C8JFV8IS5XMGEFOAM8O5DAKQSK,1499,/static/images/2kfaces/Google_1_Frank Luke_9_oval.jpg,0,7,43,live
545,A3LL096CAY5WHB:3X87C8JFV8IS5XMGEFOAM8O5DAKQSK,1435,/static/images/2kfaces/Google_1_Russell Gillam_17_oval.jpg,0,8,44,live
546,A3LL096CAY5WHB:3X87C8JFV8IS5XMGEFOAM8O5DAKQSK,1558,/static/images/2kfaces/Google_1_Marjorie Rule_3_oval.jpg,0,5,45,live
547,A3LL096CAY5WHB:3X87C8JFV8IS5XMGEFOAM8O5DAKQSK,4155,/static/images/2kfaces/Google_1_Ryan Marvel_15_oval.jpg,0,8,46,live
548,A3LL096CAY5WHB:3X87C8JFV8IS5XMGEFOAM8O5DAKQSK,3427,/static/images/2kfaces/Google_1_Paul Horst_15_oval.jpg,0,7,47,live
549,A3LL096CAY5WHB:3X87C8JFV8IS5XMGEFOAM8O5DAKQSK,2499,/static/images/2kfaces/Google_1_Bryan Brunner_3_oval.jpg,0,5,48,live
550,A3LL096CAY5WHB:3X87C8JFV8IS5XMGEFOAM8O5DAKQSK,2330,/static/images/2kfaces/Google_1_Jonathan Marek_5_oval.jpg,0,8,50,live
551,A3LL096CAY5WHB:3X87C8JFV8IS5XMGEFOAM8O5DAKQSK,1985,/static/images/2kfaces/Google_1_Valerie Noble_9_oval.jpg,0,6,51,live
552,A3LL096CAY5WHB:3X87C8JFV8IS5XMGEFOAM8O5DAKQSK,2302,/static/images/2kfaces/Google_1_Steve Stamm_1_oval.jpg,0,9,52,live
553,A3LL096CAY5WHB:3X87C8JFV8IS5XMGEFOAM8O5DAKQSK,1223,/static/images/2kfaces/Google_1_Frank Whitehouse_3_oval.jpg,0,8,53,live
554,A3LL096CAY5WHB:3X87C8JFV8IS5XMGEFOAM8O5DAKQSK,1533,/static/images/2kfaces/Alice_Mckellar_11_oval.jpg,0,7,54,live
555,A3LL096CAY5WHB:3X87C8JFV8IS5XMGEFOAM8O5DAKQSK,1227,/static/images/2kfaces/Google_1_Sherry Mcmichael_11_oval.jpg,0,6,55,live
556,A3LL096CAY5WHB:3X87C8JFV8IS5XMGEFOAM8O5DAKQSK,1517,/static/images/2kfaces/Google_1_Gertrude Bayne_11_oval.jpg,0,5,56,live
557,A3LL096CAY5WHB:3X87C8JFV8IS5XMGEFOAM8O5DAKQSK,1958,/static/images/2kfaces/Google_1_Erika Fletcher_1_oval.jpg,0,7,57,live
558,A3LL096CAY5WHB:3X87C8JFV8IS5XMGEFOAM8O5DAKQSK,1229,/static/images/2kfaces/Bryan_Shanklin_9_oval.jpg,0,6,58,live
559,A3LL096CAY5WHB:3X87C8JFV8IS5XMGEFOAM8O5DAKQSK,2025,/static/images/2kfaces/Google_1_Shelley Lund_5_oval.jpg,0,8,59,live
560,A3LL096CAY5WHB:3X87C8JFV8IS5XMGEFOAM8O5DAKQSK,2125,/static/images/2kfaces/Google_1_Cindy Morehead_5_oval.jpg,1,7,63,live
561,A3LL096CAY5WHB:3X87C8JFV8IS5XMGEFOAM8O5DAKQSK,1185,/static/images/2kfaces/Google_1_Marjorie Rule_3_oval.jpg,1,8,64,live
562,A3LL096CAY5WHB:3X87C8JFV8IS5XMGEFOAM8O5DAKQSK,1079,/static/images/2kfaces/Google_1_Cheryl Griffin_15_oval.jpg,1,6,65,live
563,A3LL096CAY5WHB:3X87C8JFV8IS5XMGEFOAM8O5DAKQSK,2305,/static/images/2kfaces/Google_1_Matthew Vanbuskirk_1_oval.jpg,1,7,66,live
564,A3LL096CAY5WHB:3X87C8JFV8IS5XMGEFOAM8O5DAKQSK,1889,/static/images/2kfaces/Google_1_Shelley Lund_5_oval.jpg,1,8,67,live
565,A3LL096CAY5WHB:3X87C8JFV8IS5XMGEFOAM8O5DAKQSK,1229,/static/images/2kfaces/Google_1_Jonathan Marek_5_oval.jpg,1,6,68,live
566,A3LL096CAY5WHB:3X87C8JFV8IS5XMGEFOAM8O5DAKQSK,2102,/static/images/2kfaces/Google_1_Eva Kirkman_15_oval.jpg,1,5,69,live
567,A3LL096CAY5WHB:3X87C8JFV8IS5XMGEFOAM8O5DAKQSK,1995,/static/images/2kfaces/Google_1_Ernest Crump_3_oval.jpg,1,8,70,live
568,A3LL096CAY5WHB:3X87C8JFV8IS5XMGEFOAM8O5DAKQSK,1245,/static/images/2kfaces/Google_1_Steve Stamm_1_oval.jpg,1,7,71,live
569,A3LL096CAY5WHB:3X87C8JFV8IS5XMGEFOAM8O5DAKQSK,1474,/static/images/2kfaces/Google_1_Henry Gumm_19_oval.jpg,1,6,72,live
570,A3LL096CAY5WHB:3X87C8JFV8IS5XMGEFOAM8O5DAKQSK,2804,/static/images/2kfaces/Google_1_Louis Mceachern_7_oval.jpg,1,7,74,live
571,A3LL096CAY5WHB:3X87C8JFV8IS5XMGEFOAM8O5DAKQSK,2271,/static/images/2kfaces/Google_1_Erika Fletcher_1_oval.jpg,1,8,75,live
572,A3LL096CAY5WHB:3X87C8JFV8IS5XMGEFOAM8O5DAKQSK,3519,/static/images/2kfaces/Google_1_Sara Guajardo_1_oval.jpg,1,6,76,live
573,A3LL096CAY5WHB:3X87C8JFV8IS5XMGEFOAM8O5DAKQSK,1914,/static/images/2kfaces/Google_1_Frank Whitehouse_3_oval.jpg,1,9,77,live
574,A3LL096CAY5WHB:3X87C8JFV8IS5XMGEFOAM8O5DAKQSK,1786,/static/images/2kfaces/Google_1_Carole Bentley_7_oval.jpg,1,8,78,live
575,A3LL096CAY5WHB:3X87C8JFV8IS5XMGEFOAM8O5DAKQSK,1342,/static/images/2kfaces/Google_1_Gertrude Bayne_11_oval.jpg,1,7,79,live
576,A3LL096CAY5WHB:3X87C8JFV8IS5XMGEFOAM8O5DAKQSK,1124,/static/images/2kfaces/Google_1_Samuel Goff_1_oval.jpg,1,8,80,live
577,A3LL096CAY5WHB:3X87C8JFV8IS5XMGEFOAM8O5DAKQSK,2695,/static/images/2kfaces/Google_1_Tina Middleton_7_oval.jpg,1,6,81,live
578,A3LL096CAY5WHB:3X87C8JFV8IS5XMGEFOAM8O5DAKQSK,3291,/static/images/2kfaces/Google_1_Frank Luke_9_oval.jpg,1,8,82,live
579,A3LL096CAY5WHB:3X87C8JFV8IS5XMGEFOAM8O5DAKQSK,1693,/static/images/2kfaces/Google_1_Florence Melton_1_oval.jpg,1,9,83,live
580,A3LL096CAY5WHB:3X87C8JFV8IS5XMGEFOAM8O5DAKQSK,5496,/static/images/2kfaces/Google_1_Gregory Arriola_3_oval.jpg,1,8,85,live
581,A3LL096CAY5WHB:3X87C8JFV8IS5XMGEFOAM8O5DAKQSK,2600,/static/images/2kfaces/Google_1_Kenneth Cabral_19_oval.jpg,1,6,86,live
582,A3LL096CAY5WHB:3X87C8JFV8IS5XMGEFOAM8O5DAKQSK,5114,/static/images/2kfaces/Google_1_Mark Houser_17_oval.jpg,1,8,87,live
583,A3LL096CAY5WHB:3X87C8JFV8IS5XMGEFOAM8O5DAKQSK,2652,/static/images/2kfaces/Alice_Mckellar_11_oval.jpg,1,7,88,live
584,A3LL096CAY5WHB:3X87C8JFV8IS5XMGEFOAM8O5DAKQSK,2345,/static/images/2kfaces/Google_1_Paul Horst_15_oval.jpg,1,8,89,live
585,A3LL096CAY5WHB:3X87C8JFV8IS5XMGEFOAM8O5DAKQSK,2134,/static/images/2kfaces/Google_1_Russell Gillam_17_oval.jpg,1,6,90,live
586,A3LL096CAY5WHB:3X87C8JFV8IS5XMGEFOAM8O5DAKQSK,1604,/static/images/2kfaces/Google_1_Alma Poor_7_oval.jpg,1,8,91,live
587,A3LL096CAY5WHB:3X87C8JFV8IS5XMGEFOAM8O5DAKQSK,3073,/static/images/2kfaces/Google_1_Ronald Driver_19_oval.jpg,1,7,92,live
588,A3LL096CAY5WHB:3X87C8JFV8IS5XMGEFOAM8O5DAKQSK,9181,/static/images/2kfaces/Google_1_Douglas Tanguay_9_oval.jpg,1,7,93,live
589,A3LL096CAY5WHB:3X87C8JFV8IS5XMGEFOAM8O5DAKQSK,1188,/static/images/2kfaces/Google_1_Paul Reno_1_oval.jpg,1,8,94,live
590,A3LL096CAY5WHB:3X87C8JFV8IS5XMGEFOAM8O5DAKQSK,3221,/static/images/2kfaces/Google_1_Gloria Canada_13_oval.jpg,1,7,96,live
591,A3LL096CAY5WHB:3X87C8JFV8IS5XMGEFOAM8O5DAKQSK,1911,/static/images/2kfaces/Google_1_Eric Osuna_3_oval.jpg,1,6,97,live
592,A3LL096CAY5WHB:3X87C8JFV8IS5XMGEFOAM8O5DAKQSK,1469,/static/images/2kfaces/Bryan_Shanklin_9_oval.jpg,1,9,98,live
593,A3LL096CAY5WHB:3X87C8JFV8IS5XMGEFOAM8O5DAKQSK,2458,/static/images/2kfaces/Google_1_Sherry Mcmichael_11_oval.jpg,1,7,99,live
594,A3LL096CAY5WHB:3X87C8JFV8IS5XMGEFOAM8O5DAKQSK,1364,/static/images/2kfaces/Google_1_Antonio Benn_12_oval.jpg,1,6,100,live
595,A3LL096CAY5WHB:3X87C8JFV8IS5XMGEFOAM8O5DAKQSK,2005,/static/images/2kfaces/Google_1_Samuel Paschal_17_oval.jpg,1,8,101,live
596,A3LL096CAY5WHB:3X87C8JFV8IS5XMGEFOAM8O5DAKQSK,1690,/static/images/2kfaces/Google_1_Bryan Brunner_3_oval.jpg,1,6,102,live
597,A3LL096CAY5WHB:3X87C8JFV8IS5XMGEFOAM8O5DAKQSK,1566,/static/images/2kfaces/Google_1_Ryan Marvel_15_oval.jpg,1,7,103,live
598,A3LL096CAY5WHB:3X87C8JFV8IS5XMGEFOAM8O5DAKQSK,1429,/static/images/2kfaces/Google_1_Kenneth Rigsby_15_oval.jpg,1,8,104,live
599,A3LL096CAY5WHB:3X87C8JFV8IS5XMGEFOAM8O5DAKQSK,1813,/static/images/2kfaces/Google_1_Sarah Woodcock_3_oval.jpg,1,5,105,live
600,A3LL096CAY5WHB:3X87C8JFV8IS5XMGEFOAM8O5DAKQSK,4428,/static/images/2kfaces/Google_1_Timothy Galvan_11_oval.jpg,1,8,107,live
601,A3LL096CAY5WHB:3X87C8JFV8IS5XMGEFOAM8O5DAKQSK,1201,/static/images/2kfaces/Google_1_Andrew Diggs_9_oval.jpg,1,7,108,live
602,A3LL096CAY5WHB:3X87C8JFV8IS5XMGEFOAM8O5DAKQSK,1369,/static/images/2kfaces/Google_1_Norman Westfall_5_oval.jpg,1,9,109,live
603,A3LL096CAY5WHB:3X87C8JFV8IS5XMGEFOAM8O5DAKQSK,1707,/static/images/2kfaces/Google_1_Kathleen Sartain_1_oval.jpg,1,6,110,live
604,A3LL096CAY5WHB:3X87C8JFV8IS5XMGEFOAM8O5DAKQSK,2706,/static/images/2kfaces/Google_1_Valerie Noble_9_oval.jpg,1,7,111,live
605,A3LL096CAY5WHB:3X87C8JFV8IS5XMGEFOAM8O5DAKQSK,1591,/static/images/2kfaces/Google_1_Claudia Rohrer_13_oval.jpg,1,6,112,live
606,A3LL096CAY5WHB:3X87C8JFV8IS5XMGEFOAM8O5DAKQSK,3581,/static/images/2kfaces/Google_1_Donna Asberry_5_oval.jpg,1,7,113,live
607,A3LL096CAY5WHB:3X87C8JFV8IS5XMGEFOAM8O5DAKQSK,1734,/static/images/2kfaces/Google_1_Gary Nance_3_oval.jpg,1,6,114,live
608,A3LL096CAY5WHB:3X87C8JFV8IS5XMGEFOAM8O5DAKQSK,1861,/static/images/2kfaces/Google_1_Vera Becker_5_oval.jpg,1,8,115,live
609,A3LL096CAY5WHB:3X87C8JFV8IS5XMGEFOAM8O5DAKQSK,2370,/static/images/2kfaces/Google_1_Gary Perri_3_oval.jpg,1,7,116,live
610,A34142ZT9A8DJQ:3U4J9857OGIJIT0Z7UT9WSXA4XH7BF,2616,/static/images/2kfaces/Google_1_Andrew Diggs_9_oval.jpg,0,6,6,live
611,A34142ZT9A8DJQ:3U4J9857OGIJIT0Z7UT9WSXA4XH7BF,2670,/static/images/2kfaces/Google_1_Cindy Morehead_5_oval.jpg,0,7,7,live
612,A34142ZT9A8DJQ:3U4J9857OGIJIT0Z7UT9WSXA4XH7BF,2483,/static/images/2kfaces/Google_1_Russell Gillam_17_oval.jpg,0,7,8,live
613,A34142ZT9A8DJQ:3U4J9857OGIJIT0Z7UT9WSXA4XH7BF,2283,/static/images/2kfaces/Google_1_Sara Guajardo_1_oval.jpg,0,7,9,live
614,A34142ZT9A8DJQ:3U4J9857OGIJIT0Z7UT9WSXA4XH7BF,4051,/static/images/2kfaces/Google_1_Matthew Vanbuskirk_1_oval.jpg,0,7,10,live
615,A34142ZT9A8DJQ:3U4J9857OGIJIT0Z7UT9WSXA4XH7BF,2121,/static/images/2kfaces/Google_1_Gary Nance_3_oval.jpg,0,6,11,live
616,A34142ZT9A8DJQ:3U4J9857OGIJIT0Z7UT9WSXA4XH7BF,2365,/static/images/2kfaces/Google_1_Louis Mceachern_7_oval.jpg,0,6,12,live
617,A34142ZT9A8DJQ:3U4J9857OGIJIT0Z7UT9WSXA4XH7BF,3355,/static/images/2kfaces/Google_1_Carole Bentley_7_oval.jpg,0,7,13,live
618,A34142ZT9A8DJQ:3U4J9857OGIJIT0Z7UT9WSXA4XH7BF,2016,/static/images/2kfaces/Google_1_Henry Gumm_19_oval.jpg,0,7,14,live
619,A34142ZT9A8DJQ:3U4J9857OGIJIT0Z7UT9WSXA4XH7BF,2026,/static/images/2kfaces/Google_1_Bryan Brunner_3_oval.jpg,0,6,15,live
620,A34142ZT9A8DJQ:3U4J9857OGIJIT0Z7UT9WSXA4XH7BF,2801,/static/images/2kfaces/Google_1_Alma Poor_7_oval.jpg,0,8,17,live
621,A34142ZT9A8DJQ:3U4J9857OGIJIT0Z7UT9WSXA4XH7BF,2393,/static/images/2kfaces/Google_1_Gary Perri_3_oval.jpg,0,7,18,live
622,A34142ZT9A8DJQ:3U4J9857OGIJIT0Z7UT9WSXA4XH7BF,1775,/static/images/2kfaces/Google_1_Timothy Galvan_11_oval.jpg,0,7,19,live
623,A34142ZT9A8DJQ:3U4J9857OGIJIT0Z7UT9WSXA4XH7BF,1959,/static/images/2kfaces/Google_1_Antonio Benn_12_oval.jpg,0,8,20,live
624,A34142ZT9A8DJQ:3U4J9857OGIJIT0Z7UT9WSXA4XH7BF,2029,/static/images/2kfaces/Google_1_Florence Melton_1_oval.jpg,0,6,21,live
625,A34142ZT9A8DJQ:3U4J9857OGIJIT0Z7UT9WSXA4XH7BF,1870,/static/images/2kfaces/Google_1_Frank Luke_9_oval.jpg,0,5,22,live
626,A34142ZT9A8DJQ:3U4J9857OGIJIT0Z7UT9WSXA4XH7BF,1916,/static/images/2kfaces/Google_1_Gloria Canada_13_oval.jpg,0,5,23,live
627,A34142ZT9A8DJQ:3U4J9857OGIJIT0Z7UT9WSXA4XH7BF,2262,/static/images/2kfaces/Alice_Mckellar_11_oval.jpg,0,7,24,live
628,A34142ZT9A8DJQ:3U4J9857OGIJIT0Z7UT9WSXA4XH7BF,2277,/static/images/2kfaces/Google_1_Shelley Lund_5_oval.jpg,0,7,25,live
629,A34142ZT9A8DJQ:3U4J9857OGIJIT0Z7UT9WSXA4XH7BF,1764,/static/images/2kfaces/Google_1_Samuel Paschal_17_oval.jpg,0,6,26,live
630,A34142ZT9A8DJQ:3U4J9857OGIJIT0Z7UT9WSXA4XH7BF,2981,/static/images/2kfaces/Google_1_Ryan Marvel_15_oval.jpg,0,8,28,live
631,A34142ZT9A8DJQ:3U4J9857OGIJIT0Z7UT9WSXA4XH7BF,1675,/static/images/2kfaces/Google_1_Valerie Noble_9_oval.jpg,0,7,29,live
632,A34142ZT9A8DJQ:3U4J9857OGIJIT0Z7UT9WSXA4XH7BF,1933,/static/images/2kfaces/Google_1_Gertrude Bayne_11_oval.jpg,0,6,30,live
633,A34142ZT9A8DJQ:3U4J9857OGIJIT0Z7UT9WSXA4XH7BF,2231,/static/images/2kfaces/Google_1_Erika Fletcher_1_oval.jpg,0,5,31,live
634,A34142ZT9A8DJQ:3U4J9857OGIJIT0Z7UT9WSXA4XH7BF,1703,/static/images/2kfaces/Google_1_Norman Westfall_5_oval.jpg,0,6,32,live
635,A34142ZT9A8DJQ:3U4J9857OGIJIT0Z7UT9WSXA4XH7BF,1636,/static/images/2kfaces/Google_1_Claudia Rohrer_13_oval.jpg,0,4,33,live
636,A34142ZT9A8DJQ:3U4J9857OGIJIT0Z7UT9WSXA4XH7BF,1942,/static/images/2kfaces/Google_1_Kathleen Sartain_1_oval.jpg,0,7,34,live
637,A34142ZT9A8DJQ:3U4J9857OGIJIT0Z7UT9WSXA4XH7BF,1757,/static/images/2kfaces/Google_1_Kenneth Cabral_19_oval.jpg,0,6,35,live
638,A34142ZT9A8DJQ:3U4J9857OGIJIT0Z7UT9WSXA4XH7BF,2213,/static/images/2kfaces/Google_1_Steve Stamm_1_oval.jpg,0,7,36,live
639,A34142ZT9A8DJQ:3U4J9857OGIJIT0Z7UT9WSXA4XH7BF,1918,/static/images/2kfaces/Google_1_Sherry Mcmichael_11_oval.jpg,0,7,37,live
640,A34142ZT9A8DJQ:3U4J9857OGIJIT0Z7UT9WSXA4XH7BF,4259,/static/images/2kfaces/Google_1_Donna Asberry_5_oval.jpg,0,6,39,live
641,A34142ZT9A8DJQ:3U4J9857OGIJIT0Z7UT9WSXA4XH7BF,2045,/static/images/2kfaces/Google_1_Eva Kirkman_15_oval.jpg,0,6,40,live
642,A34142ZT9A8DJQ:3U4J9857OGIJIT0Z7UT9WSXA4XH7BF,1891,/static/images/2kfaces/Google_1_Ronald Driver_19_oval.jpg,0,7,41,live
643,A34142ZT9A8DJQ:3U4J9857OGIJIT0Z7UT9WSXA4XH7BF,2004,/static/images/2kfaces/Google_1_Jonathan Marek_5_oval.jpg,0,7,42,live
644,A34142ZT9A8DJQ:3U4J9857OGIJIT0Z7UT9WSXA4XH7BF,2706,/static/images/2kfaces/Google_1_Mark Houser_17_oval.jpg,0,7,43,live
645,A34142ZT9A8DJQ:3U4J9857OGIJIT0Z7UT9WSXA4XH7BF,1810,/static/images/2kfaces/Google_1_Ernest Crump_3_oval.jpg,0,6,44,live
646,A34142ZT9A8DJQ:3U4J9857OGIJIT0Z7UT9WSXA4XH7BF,2094,/static/images/2kfaces/Google_1_Samuel Goff_1_oval.jpg,0,6,45,live
647,A34142ZT9A8DJQ:3U4J9857OGIJIT0Z7UT9WSXA4XH7BF,1625,/static/images/2kfaces/Google_1_Eric Osuna_3_oval.jpg,0,7,46,live
648,A34142ZT9A8DJQ:3U4J9857OGIJIT0Z7UT9WSXA4XH7BF,2376,/static/images/2kfaces/Google_1_Sarah Woodcock_3_oval.jpg,0,6,47,live
649,A34142ZT9A8DJQ:3U4J9857OGIJIT0Z7UT9WSXA4XH7BF,2588,/static/images/2kfaces/Google_1_Kenneth Rigsby_15_oval.jpg,0,6,48,live
650,A34142ZT9A8DJQ:3U4J9857OGIJIT0Z7UT9WSXA4XH7BF,1671,/static/images/2kfaces/Google_1_Marjorie Rule_3_oval.jpg,0,7,50,live
651,A34142ZT9A8DJQ:3U4J9857OGIJIT0Z7UT9WSXA4XH7BF,1318,/static/images/2kfaces/Google_1_Tina Middleton_7_oval.jpg,0,7,51,live
652,A34142ZT9A8DJQ:3U4J9857OGIJIT0Z7UT9WSXA4XH7BF,1544,/static/images/2kfaces/Google_1_Cheryl Griffin_15_oval.jpg,0,8,52,live
653,A34142ZT9A8DJQ:3U4J9857OGIJIT0Z7UT9WSXA4XH7BF,1621,/static/images/2kfaces/Google_1_Frank Whitehouse_3_oval.jpg,0,6,53,live
654,A34142ZT9A8DJQ:3U4J9857OGIJIT0Z7UT9WSXA4XH7BF,1707,/static/images/2kfaces/Google_1_Vera Becker_5_oval.jpg,0,7,54,live
655,A34142ZT9A8DJQ:3U4J9857OGIJIT0Z7UT9WSXA4XH7BF,1369,/static/images/2kfaces/Google_1_Paul Horst_15_oval.jpg,0,7,55,live
656,A34142ZT9A8DJQ:3U4J9857OGIJIT0Z7UT9WSXA4XH7BF,1567,/static/images/2kfaces/Bryan_Shanklin_9_oval.jpg,0,6,56,live
657,A34142ZT9A8DJQ:3U4J9857OGIJIT0Z7UT9WSXA4XH7BF,1479,/static/images/2kfaces/Google_1_Paul Reno_1_oval.jpg,0,7,57,live
658,A34142ZT9A8DJQ:3U4J9857OGIJIT0Z7UT9WSXA4XH7BF,1189,/static/images/2kfaces/Google_1_Douglas Tanguay_9_oval.jpg,0,7,58,live
659,A34142ZT9A8DJQ:3U4J9857OGIJIT0Z7UT9WSXA4XH7BF,1287,/static/images/2kfaces/Google_1_Gregory Arriola_3_oval.jpg,0,7,59,live
660,A34142ZT9A8DJQ:3U4J9857OGIJIT0Z7UT9WSXA4XH7BF,2914,/static/images/2kfaces/Google_1_Matthew Vanbuskirk_1_oval.jpg,1,7,63,live
661,A34142ZT9A8DJQ:3U4J9857OGIJIT0Z7UT9WSXA4XH7BF,1851,/static/images/2kfaces/Google_1_Gloria Canada_13_oval.jpg,1,6,64,live
662,A34142ZT9A8DJQ:3U4J9857OGIJIT0Z7UT9WSXA4XH7BF,2086,/static/images/2kfaces/Google_1_Andrew Diggs_9_oval.jpg,1,6,65,live
663,A34142ZT9A8DJQ:3U4J9857OGIJIT0Z7UT9WSXA4XH7BF,2017,/static/images/2kfaces/Google_1_Gertrude Bayne_11_oval.jpg,1,6,66,live
664,A34142ZT9A8DJQ:3U4J9857OGIJIT0Z7UT9WSXA4XH7BF,1476,/static/images/2kfaces/Google_1_Marjorie Rule_3_oval.jpg,1,7,67,live
665,A34142ZT9A8DJQ:3U4J9857OGIJIT0Z7UT9WSXA4XH7BF,1535,/static/images/2kfaces/Google_1_Douglas Tanguay_9_oval.jpg,1,7,68,live
666,A34142ZT9A8DJQ:3U4J9857OGIJIT0Z7UT9WSXA4XH7BF,2255,/static/images/2kfaces/Bryan_Shanklin_9_oval.jpg,1,6,69,live
667,A34142ZT9A8DJQ:3U4J9857OGIJIT0Z7UT9WSXA4XH7BF,1564,/static/images/2kfaces/Google_1_Shelley Lund_5_oval.jpg,1,7,70,live
668,A34142ZT9A8DJQ:3U4J9857OGIJIT0Z7UT9WSXA4XH7BF,1734,/static/images/2kfaces/Google_1_Paul Horst_15_oval.jpg,1,7,71,live
669,A34142ZT9A8DJQ:3U4J9857OGIJIT0Z7UT9WSXA4XH7BF,1782,/static/images/2kfaces/Google_1_Ernest Crump_3_oval.jpg,1,6,72,live
670,A34142ZT9A8DJQ:3U4J9857OGIJIT0Z7UT9WSXA4XH7BF,2212,/static/images/2kfaces/Google_1_Henry Gumm_19_oval.jpg,1,8,74,live
671,A34142ZT9A8DJQ:3U4J9857OGIJIT0Z7UT9WSXA4XH7BF,2008,/static/images/2kfaces/Google_1_Sherry Mcmichael_11_oval.jpg,1,7,75,live
672,A34142ZT9A8DJQ:3U4J9857OGIJIT0Z7UT9WSXA4XH7BF,1954,/static/images/2kfaces/Google_1_Jonathan Marek_5_oval.jpg,1,7,76,live
673,A34142ZT9A8DJQ:3U4J9857OGIJIT0Z7UT9WSXA4XH7BF,1544,/static/images/2kfaces/Google_1_Gary Perri_3_oval.jpg,1,7,77,live
674,A34142ZT9A8DJQ:3U4J9857OGIJIT0Z7UT9WSXA4XH7BF,1439,/static/images/2kfaces/Google_1_Gregory Arriola_3_oval.jpg,1,7,78,live
675,A34142ZT9A8DJQ:3U4J9857OGIJIT0Z7UT9WSXA4XH7BF,1598,/static/images/2kfaces/Google_1_Eric Osuna_3_oval.jpg,1,7,79,live
676,A34142ZT9A8DJQ:3U4J9857OGIJIT0Z7UT9WSXA4XH7BF,2665,/static/images/2kfaces/Google_1_Timothy Galvan_11_oval.jpg,1,7,80,live
677,A34142ZT9A8DJQ:3U4J9857OGIJIT0Z7UT9WSXA4XH7BF,1439,/static/images/2kfaces/Google_1_Sarah Woodcock_3_oval.jpg,1,6,81,live
678,A34142ZT9A8DJQ:3U4J9857OGIJIT0Z7UT9WSXA4XH7BF,1601,/static/images/2kfaces/Google_1_Gary Nance_3_oval.jpg,1,6,82,live
679,A34142ZT9A8DJQ:3U4J9857OGIJIT0Z7UT9WSXA4XH7BF,1449,/static/images/2kfaces/Google_1_Russell Gillam_17_oval.jpg,1,5,83,live
680,A34142ZT9A8DJQ:3U4J9857OGIJIT0Z7UT9WSXA4XH7BF,1635,/static/images/2kfaces/Google_1_Tina Middleton_7_oval.jpg,1,7,85,live
681,A34142ZT9A8DJQ:3U4J9857OGIJIT0Z7UT9WSXA4XH7BF,1141,/static/images/2kfaces/Google_1_Alma Poor_7_oval.jpg,1,7,86,live
682,A34142ZT9A8DJQ:3U4J9857OGIJIT0Z7UT9WSXA4XH7BF,1539,/static/images/2kfaces/Google_1_Mark Houser_17_oval.jpg,1,7,87,live
683,A34142ZT9A8DJQ:3U4J9857OGIJIT0Z7UT9WSXA4XH7BF,1448,/static/images/2kfaces/Google_1_Eva Kirkman_15_oval.jpg,1,7,88,live
684,A34142ZT9A8DJQ:3U4J9857OGIJIT0Z7UT9WSXA4XH7BF,1654,/static/images/2kfaces/Google_1_Valerie Noble_9_oval.jpg,1,7,89,live
685,A34142ZT9A8DJQ:3U4J9857OGIJIT0Z7UT9WSXA4XH7BF,2006,/static/images/2kfaces/Google_1_Carole Bentley_7_oval.jpg,1,7,90,live
686,A34142ZT9A8DJQ:3U4J9857OGIJIT0Z7UT9WSXA4XH7BF,1444,/static/images/2kfaces/Google_1_Cheryl Griffin_15_oval.jpg,1,8,91,live
687,A34142ZT9A8DJQ:3U4J9857OGIJIT0Z7UT9WSXA4XH7BF,2395,/static/images/2kfaces/Google_1_Kenneth Cabral_19_oval.jpg,1,6,92,live
688,A34142ZT9A8DJQ:3U4J9857OGIJIT0Z7UT9WSXA4XH7BF,1162,/static/images/2kfaces/Google_1_Sara Guajardo_1_oval.jpg,1,7,93,live
689,A34142ZT9A8DJQ:3U4J9857OGIJIT0Z7UT9WSXA4XH7BF,1527,/static/images/2kfaces/Google_1_Erika Fletcher_1_oval.jpg,1,6,94,live
690,A34142ZT9A8DJQ:3U4J9857OGIJIT0Z7UT9WSXA4XH7BF,1943,/static/images/2kfaces/Google_1_Norman Westfall_5_oval.jpg,1,7,96,live
691,A34142ZT9A8DJQ:3U4J9857OGIJIT0Z7UT9WSXA4XH7BF,1447,/static/images/2kfaces/Google_1_Samuel Paschal_17_oval.jpg,1,6,97,live
692,A34142ZT9A8DJQ:3U4J9857OGIJIT0Z7UT9WSXA4XH7BF,1370,/static/images/2kfaces/Google_1_Bryan Brunner_3_oval.jpg,1,7,98,live
693,A34142ZT9A8DJQ:3U4J9857OGIJIT0Z7UT9WSXA4XH7BF,1647,/static/images/2kfaces/Google_1_Antonio Benn_12_oval.jpg,1,8,99,live
694,A34142ZT9A8DJQ:3U4J9857OGIJIT0Z7UT9WSXA4XH7BF,1636,/static/images/2kfaces/Google_1_Claudia Rohrer_13_oval.jpg,1,5,100,live
695,A34142ZT9A8DJQ:3U4J9857OGIJIT0Z7UT9WSXA4XH7BF,1391,/static/images/2kfaces/Google_1_Louis Mceachern_7_oval.jpg,1,5,101,live
696,A34142ZT9A8DJQ:3U4J9857OGIJIT0Z7UT9WSXA4XH7BF,1588,/static/images/2kfaces/Google_1_Donna Asberry_5_oval.jpg,1,7,102,live
697,A34142ZT9A8DJQ:3U4J9857OGIJIT0Z7UT9WSXA4XH7BF,1906,/static/images/2kfaces/Google_1_Paul Reno_1_oval.jpg,1,7,103,live
698,A34142ZT9A8DJQ:3U4J9857OGIJIT0Z7UT9WSXA4XH7BF,1637,/static/images/2kfaces/Google_1_Cindy Morehead_5_oval.jpg,1,7,104,live
699,A34142ZT9A8DJQ:3U4J9857OGIJIT0Z7UT9WSXA4XH7BF,1752,/static/images/2kfaces/Google_1_Kenneth Rigsby_15_oval.jpg,1,6,105,live
700,A34142ZT9A8DJQ:3U4J9857OGIJIT0Z7UT9WSXA4XH7BF,2847,/static/images/2kfaces/Alice_Mckellar_11_oval.jpg,1,8,107,live
701,A34142ZT9A8DJQ:3U4J9857OGIJIT0Z7UT9WSXA4XH7BF,2515,/static/images/2kfaces/Google_1_Florence Melton_1_oval.jpg,1,6,108,live
702,A34142ZT9A8DJQ:3U4J9857OGIJIT0Z7UT9WSXA4XH7BF,2073,/static/images/2kfaces/Google_1_Vera Becker_5_oval.jpg,1,7,109,live
703,A34142ZT9A8DJQ:3U4J9857OGIJIT0Z7UT9WSXA4XH7BF,1710,/static/images/2kfaces/Google_1_Frank Whitehouse_3_oval.jpg,1,6,110,live
704,A34142ZT9A8DJQ:3U4J9857OGIJIT0Z7UT9WSXA4XH7BF,5064,/static/images/2kfaces/Google_1_Kathleen Sartain_1_oval.jpg,1,7,111,live
705,A34142ZT9A8DJQ:3U4J9857OGIJIT0Z7UT9WSXA4XH7BF,1737,/static/images/2kfaces/Google_1_Samuel Goff_1_oval.jpg,1,6,112,live
706,A34142ZT9A8DJQ:3U4J9857OGIJIT0Z7UT9WSXA4XH7BF,1929,/static/images/2kfaces/Google_1_Ryan Marvel_15_oval.jpg,1,7,113,live
707,A34142ZT9A8DJQ:3U4J9857OGIJIT0Z7UT9WSXA4XH7BF,1532,/static/images/2kfaces/Google_1_Ronald Driver_19_oval.jpg,1,7,114,live
708,A34142ZT9A8DJQ:3U4J9857OGIJIT0Z7UT9WSXA4XH7BF,3524,/static/images/2kfaces/Google_1_Frank Luke_9_oval.jpg,1,5,115,live
709,A34142ZT9A8DJQ:3U4J9857OGIJIT0Z7UT9WSXA4XH7BF,1777,/static/images/2kfaces/Google_1_Steve Stamm_1_oval.jpg,1,7,116,live
710,AK27D3SD6EZX6:3STRJBFXOYY79U10QA930R8IGN6TKK,2607,/static/images/2kfaces/Google_1_Carole Bentley_7_oval.jpg,0,7,6,live
711,AK27D3SD6EZX6:3STRJBFXOYY79U10QA930R8IGN6TKK,2530,/static/images/2kfaces/Google_1_Gary Nance_3_oval.jpg,0,7,7,live
712,AK27D3SD6EZX6:3STRJBFXOYY79U10QA930R8IGN6TKK,2622,/static/images/2kfaces/Google_1_Kathleen Sartain_1_oval.jpg,0,7,8,live
713,AK27D3SD6EZX6:3STRJBFXOYY79U10QA930R8IGN6TKK,2355,/static/images/2kfaces/Google_1_Andrew Diggs_9_oval.jpg,0,5,9,live
714,AK27D3SD6EZX6:3STRJBFXOYY79U10QA930R8IGN6TKK,6220,/static/images/2kfaces/Google_1_Louis Mceachern_7_oval.jpg,0,4,10,live
715,AK27D3SD6EZX6:3STRJBFXOYY79U10QA930R8IGN6TKK,3740,/static/images/2kfaces/Bryan_Shanklin_9_oval.jpg,0,6,11,live
716,AK27D3SD6EZX6:3STRJBFXOYY79U10QA930R8IGN6TKK,2229,/static/images/2kfaces/Google_1_Vera Becker_5_oval.jpg,0,6,12,live
717,AK27D3SD6EZX6:3STRJBFXOYY79U10QA930R8IGN6TKK,4018,/static/images/2kfaces/Google_1_Eva Kirkman_15_oval.jpg,0,6,13,live
718,AK27D3SD6EZX6:3STRJBFXOYY79U10QA930R8IGN6TKK,1891,/static/images/2kfaces/Google_1_Frank Luke_9_oval.jpg,0,6,14,live
719,AK27D3SD6EZX6:3STRJBFXOYY79U10QA930R8IGN6TKK,2029,/static/images/2kfaces/Alice_Mckellar_11_oval.jpg,0,7,15,live
720,AK27D3SD6EZX6:3STRJBFXOYY79U10QA930R8IGN6TKK,2960,/static/images/2kfaces/Google_1_Russell Gillam_17_oval.jpg,0,7,17,live
721,AK27D3SD6EZX6:3STRJBFXOYY79U10QA930R8IGN6TKK,2884,/static/images/2kfaces/Google_1_Gloria Canada_13_oval.jpg,0,5,18,live
722,AK27D3SD6EZX6:3STRJBFXOYY79U10QA930R8IGN6TKK,2108,/static/images/2kfaces/Google_1_Cindy Morehead_5_oval.jpg,0,4,19,live
723,AK27D3SD6EZX6:3STRJBFXOYY79U10QA930R8IGN6TKK,2084,/static/images/2kfaces/Google_1_Bryan Brunner_3_oval.jpg,0,4,20,live
724,AK27D3SD6EZX6:3STRJBFXOYY79U10QA930R8IGN6TKK,3439,/static/images/2kfaces/Google_1_Timothy Galvan_11_oval.jpg,0,8,21,live
725,AK27D3SD6EZX6:3STRJBFXOYY79U10QA930R8IGN6TKK,2450,/static/images/2kfaces/Google_1_Sara Guajardo_1_oval.jpg,0,7,22,live
726,AK27D3SD6EZX6:3STRJBFXOYY79U10QA930R8IGN6TKK,1797,/static/images/2kfaces/Google_1_Florence Melton_1_oval.jpg,0,7,23,live
727,AK27D3SD6EZX6:3STRJBFXOYY79U10QA930R8IGN6TKK,2956,/static/images/2kfaces/Google_1_Paul Horst_15_oval.jpg,0,7,24,live
728,AK27D3SD6EZX6:3STRJBFXOYY79U10QA930R8IGN6TKK,2893,/static/images/2kfaces/Google_1_Matthew Vanbuskirk_1_oval.jpg,0,8,25,live
729,AK27D3SD6EZX6:3STRJBFXOYY79U10QA930R8IGN6TKK,3324,/static/images/2kfaces/Google_1_Henry Gumm_19_oval.jpg,0,9,26,live
730,AK27D3SD6EZX6:3STRJBFXOYY79U10QA930R8IGN6TKK,2046,/static/images/2kfaces/Google_1_Douglas Tanguay_9_oval.jpg,0,7,28,live
731,AK27D3SD6EZX6:3STRJBFXOYY79U10QA930R8IGN6TKK,4405,/static/images/2kfaces/Google_1_Ryan Marvel_15_oval.jpg,0,9,29,live
732,AK27D3SD6EZX6:3STRJBFXOYY79U10QA930R8IGN6TKK,3317,/static/images/2kfaces/Google_1_Norman Westfall_5_oval.jpg,0,5,30,live
733,AK27D3SD6EZX6:3STRJBFXOYY79U10QA930R8IGN6TKK,2476,/static/images/2kfaces/Google_1_Eric Osuna_3_oval.jpg,0,4,31,live
734,AK27D3SD6EZX6:3STRJBFXOYY79U10QA930R8IGN6TKK,2148,/static/images/2kfaces/Google_1_Gary Perri_3_oval.jpg,0,6,32,live
735,AK27D3SD6EZX6:3STRJBFXOYY79U10QA930R8IGN6TKK,1942,/static/images/2kfaces/Google_1_Samuel Paschal_17_oval.jpg,0,6,33,live
736,AK27D3SD6EZX6:3STRJBFXOYY79U10QA930R8IGN6TKK,2954,/static/images/2kfaces/Google_1_Ernest Crump_3_oval.jpg,0,9,34,live
737,AK27D3SD6EZX6:3STRJBFXOYY79U10QA930R8IGN6TKK,2613,/static/images/2kfaces/Google_1_Kenneth Rigsby_15_oval.jpg,0,5,35,live
738,AK27D3SD6EZX6:3STRJBFXOYY79U10QA930R8IGN6TKK,2997,/static/images/2kfaces/Google_1_Tina Middleton_7_oval.jpg,0,8,36,live
739,AK27D3SD6EZX6:3STRJBFXOYY79U10QA930R8IGN6TKK,2172,/static/images/2kfaces/Google_1_Shelley Lund_5_oval.jpg,0,7,37,live
740,AK27D3SD6EZX6:3STRJBFXOYY79U10QA930R8IGN6TKK,3129,/static/images/2kfaces/Google_1_Antonio Benn_12_oval.jpg,0,8,39,live
741,AK27D3SD6EZX6:3STRJBFXOYY79U10QA930R8IGN6TKK,1931,/static/images/2kfaces/Google_1_Gertrude Bayne_11_oval.jpg,0,4,40,live
742,AK27D3SD6EZX6:3STRJBFXOYY79U10QA930R8IGN6TKK,3229,/static/images/2kfaces/Google_1_Claudia Rohrer_13_oval.jpg,0,1,41,live
743,AK27D3SD6EZX6:3STRJBFXOYY79U10QA930R8IGN6TKK,2589,/static/images/2kfaces/Google_1_Samuel Goff_1_oval.jpg,0,5,42,live
744,AK27D3SD6EZX6:3STRJBFXOYY79U10QA930R8IGN6TKK,2612,/static/images/2kfaces/Google_1_Alma Poor_7_oval.jpg,0,9,43,live
745,AK27D3SD6EZX6:3STRJBFXOYY79U10QA930R8IGN6TKK,2725,/static/images/2kfaces/Google_1_Donna Asberry_5_oval.jpg,0,7,44,live
746,AK27D3SD6EZX6:3STRJBFXOYY79U10QA930R8IGN6TKK,3700,/static/images/2kfaces/Google_1_Marjorie Rule_3_oval.jpg,0,7,45,live
747,AK27D3SD6EZX6:3STRJBFXOYY79U10QA930R8IGN6TKK,4012,/static/images/2kfaces/Google_1_Frank Whitehouse_3_oval.jpg,0,3,46,live
748,AK27D3SD6EZX6:3STRJBFXOYY79U10QA930R8IGN6TKK,2453,/static/images/2kfaces/Google_1_Gregory Arriola_3_oval.jpg,0,3,47,live
749,AK27D3SD6EZX6:3STRJBFXOYY79U10QA930R8IGN6TKK,4156,/static/images/2kfaces/Google_1_Paul Reno_1_oval.jpg,0,6,48,live
750,AK27D3SD6EZX6:3STRJBFXOYY79U10QA930R8IGN6TKK,2462,/static/images/2kfaces/Google_1_Cheryl Griffin_15_oval.jpg,0,9,50,live
751,AK27D3SD6EZX6:3STRJBFXOYY79U10QA930R8IGN6TKK,4004,/static/images/2kfaces/Google_1_Sherry Mcmichael_11_oval.jpg,0,5,51,live
752,AK27D3SD6EZX6:3STRJBFXOYY79U10QA930R8IGN6TKK,6283,/static/images/2kfaces/Google_1_Sarah Woodcock_3_oval.jpg,0,8,52,live
753,AK27D3SD6EZX6:3STRJBFXOYY79U10QA930R8IGN6TKK,1932,/static/images/2kfaces/Google_1_Steve Stamm_1_oval.jpg,0,7,53,live
754,AK27D3SD6EZX6:3STRJBFXOYY79U10QA930R8IGN6TKK,2860,/static/images/2kfaces/Google_1_Jonathan Marek_5_oval.jpg,0,5,54,live
755,AK27D3SD6EZX6:3STRJBFXOYY79U10QA930R8IGN6TKK,3317,/static/images/2kfaces/Google_1_Valerie Noble_9_oval.jpg,0,9,55,live
756,AK27D3SD6EZX6:3STRJBFXOYY79U10QA930R8IGN6TKK,3748,/static/images/2kfaces/Google_1_Erika Fletcher_1_oval.jpg,0,8,56,live
757,AK27D3SD6EZX6:3STRJBFXOYY79U10QA930R8IGN6TKK,1828,/static/images/2kfaces/Google_1_Mark Houser_17_oval.jpg,0,5,57,live
758,AK27D3SD6EZX6:3STRJBFXOYY79U10QA930R8IGN6TKK,2509,/static/images/2kfaces/Google_1_Kenneth Cabral_19_oval.jpg,0,5,58,live
759,AK27D3SD6EZX6:3STRJBFXOYY79U10QA930R8IGN6TKK,1612,/static/images/2kfaces/Google_1_Ronald Driver_19_oval.jpg,0,5,59,live
760,AK27D3SD6EZX6:3STRJBFXOYY79U10QA930R8IGN6TKK,2383,/static/images/2kfaces/Alice_Mckellar_11_oval.jpg,1,7,63,live
761,AK27D3SD6EZX6:3STRJBFXOYY79U10QA930R8IGN6TKK,1607,/static/images/2kfaces/Google_1_Douglas Tanguay_9_oval.jpg,1,7,64,live
762,AK27D3SD6EZX6:3STRJBFXOYY79U10QA930R8IGN6TKK,3292,/static/images/2kfaces/Google_1_Gertrude Bayne_11_oval.jpg,1,4,65,live
763,AK27D3SD6EZX6:3STRJBFXOYY79U10QA930R8IGN6TKK,3747,/static/images/2kfaces/Google_1_Matthew Vanbuskirk_1_oval.jpg,1,7,66,live
764,AK27D3SD6EZX6:3STRJBFXOYY79U10QA930R8IGN6TKK,3484,/static/images/2kfaces/Google_1_Bryan Brunner_3_oval.jpg,1,4,67,live
765,AK27D3SD6EZX6:3STRJBFXOYY79U10QA930R8IGN6TKK,2450,/static/images/2kfaces/Google_1_Samuel Paschal_17_oval.jpg,1,7,68,live
766,AK27D3SD6EZX6:3STRJBFXOYY79U10QA930R8IGN6TKK,1614,/static/images/2kfaces/Google_1_Ronald Driver_19_oval.jpg,1,5,69,live
767,AK27D3SD6EZX6:3STRJBFXOYY79U10QA930R8IGN6TKK,1877,/static/images/2kfaces/Google_1_Kathleen Sartain_1_oval.jpg,1,7,70,live
768,AK27D3SD6EZX6:3STRJBFXOYY79U10QA930R8IGN6TKK,1699,/static/images/2kfaces/Google_1_Donna Asberry_5_oval.jpg,1,7,71,live
769,AK27D3SD6EZX6:3STRJBFXOYY79U10QA930R8IGN6TKK,2483,/static/images/2kfaces/Google_1_Russell Gillam_17_oval.jpg,1,8,72,live
770,AK27D3SD6EZX6:3STRJBFXOYY79U10QA930R8IGN6TKK,4213,/static/images/2kfaces/Google_1_Cheryl Griffin_15_oval.jpg,1,8,74,live
771,AK27D3SD6EZX6:3STRJBFXOYY79U10QA930R8IGN6TKK,3027,/static/images/2kfaces/Google_1_Paul Reno_1_oval.jpg,1,6,75,live
772,AK27D3SD6EZX6:3STRJBFXOYY79U10QA930R8IGN6TKK,1652,/static/images/2kfaces/Google_1_Carole Bentley_7_oval.jpg,1,7,76,live
773,AK27D3SD6EZX6:3STRJBFXOYY79U10QA930R8IGN6TKK,1618,/static/images/2kfaces/Google_1_Kenneth Cabral_19_oval.jpg,1,5,77,live
774,AK27D3SD6EZX6:3STRJBFXOYY79U10QA930R8IGN6TKK,2012,/static/images/2kfaces/Google_1_Antonio Benn_12_oval.jpg,1,8,78,live
775,AK27D3SD6EZX6:3STRJBFXOYY79U10QA930R8IGN6TKK,2261,/static/images/2kfaces/Google_1_Gary Nance_3_oval.jpg,1,7,79,live
776,AK27D3SD6EZX6:3STRJBFXOYY79U10QA930R8IGN6TKK,1874,/static/images/2kfaces/Google_1_Frank Luke_9_oval.jpg,1,7,80,live
777,AK27D3SD6EZX6:3STRJBFXOYY79U10QA930R8IGN6TKK,2188,/static/images/2kfaces/Google_1_Sherry Mcmichael_11_oval.jpg,1,6,81,live
778,AK27D3SD6EZX6:3STRJBFXOYY79U10QA930R8IGN6TKK,2322,/static/images/2kfaces/Google_1_Andrew Diggs_9_oval.jpg,1,4,82,live
779,AK27D3SD6EZX6:3STRJBFXOYY79U10QA930R8IGN6TKK,2541,/static/images/2kfaces/Google_1_Alma Poor_7_oval.jpg,1,9,83,live
780,AK27D3SD6EZX6:3STRJBFXOYY79U10QA930R8IGN6TKK,2520,/static/images/2kfaces/Google_1_Timothy Galvan_11_oval.jpg,1,8,85,live
781,AK27D3SD6EZX6:3STRJBFXOYY79U10QA930R8IGN6TKK,2240,/static/images/2kfaces/Google_1_Sara Guajardo_1_oval.jpg,1,7,86,live
782,AK27D3SD6EZX6:3STRJBFXOYY79U10QA930R8IGN6TKK,1866,/static/images/2kfaces/Google_1_Eva Kirkman_15_oval.jpg,1,7,87,live
783,AK27D3SD6EZX6:3STRJBFXOYY79U10QA930R8IGN6TKK,2307,/static/images/2kfaces/Google_1_Marjorie Rule_3_oval.jpg,1,7,88,live
784,AK27D3SD6EZX6:3STRJBFXOYY79U10QA930R8IGN6TKK,4451,/static/images/2kfaces/Google_1_Kenneth Rigsby_15_oval.jpg,1,5,89,live
785,AK27D3SD6EZX6:3STRJBFXOYY79U10QA930R8IGN6TKK,4235,/static/images/2kfaces/Google_1_Gregory Arriola_3_oval.jpg,1,4,90,live
786,AK27D3SD6EZX6:3STRJBFXOYY79U10QA930R8IGN6TKK,1907,/static/images/2kfaces/Google_1_Louis Mceachern_7_oval.jpg,1,4,91,live
787,AK27D3SD6EZX6:3STRJBFXOYY79U10QA930R8IGN6TKK,2707,/static/images/2kfaces/Google_1_Tina Middleton_7_oval.jpg,1,9,92,live
788,AK27D3SD6EZX6:3STRJBFXOYY79U10QA930R8IGN6TKK,1716,/static/images/2kfaces/Google_1_Norman Westfall_5_oval.jpg,1,5,93,live
789,AK27D3SD6EZX6:3STRJBFXOYY79U10QA930R8IGN6TKK,1931,/static/images/2kfaces/Google_1_Claudia Rohrer_13_oval.jpg,1,1,94,live
790,AK27D3SD6EZX6:3STRJBFXOYY79U10QA930R8IGN6TKK,3249,/static/images/2kfaces/Google_1_Jonathan Marek_5_oval.jpg,1,5,96,live
791,AK27D3SD6EZX6:3STRJBFXOYY79U10QA930R8IGN6TKK,2219,/static/images/2kfaces/Google_1_Erika Fletcher_1_oval.jpg,1,8,97,live
792,AK27D3SD6EZX6:3STRJBFXOYY79U10QA930R8IGN6TKK,2387,/static/images/2kfaces/Google_1_Florence Melton_1_oval.jpg,1,7,98,live
793,AK27D3SD6EZX6:3STRJBFXOYY79U10QA930R8IGN6TKK,2036,/static/images/2kfaces/Google_1_Valerie Noble_9_oval.jpg,1,9,99,live
794,AK27D3SD6EZX6:3STRJBFXOYY79U10QA930R8IGN6TKK,5722,/static/images/2kfaces/Google_1_Shelley Lund_5_oval.jpg,1,7,100,live
795,AK27D3SD6EZX6:3STRJBFXOYY79U10QA930R8IGN6TKK,2115,/static/images/2kfaces/Google_1_Vera Becker_5_oval.jpg,1,7,101,live
796,AK27D3SD6EZX6:3STRJBFXOYY79U10QA930R8IGN6TKK,2056,/static/images/2kfaces/Google_1_Sarah Woodcock_3_oval.jpg,1,8,102,live
797,AK27D3SD6EZX6:3STRJBFXOYY79U10QA930R8IGN6TKK,3074,/static/images/2kfaces/Google_1_Gloria Canada_13_oval.jpg,1,6,103,live
798,AK27D3SD6EZX6:3STRJBFXOYY79U10QA930R8IGN6TKK,1803,/static/images/2kfaces/Bryan_Shanklin_9_oval.jpg,1,5,104,live
799,AK27D3SD6EZX6:3STRJBFXOYY79U10QA930R8IGN6TKK,1861,/static/images/2kfaces/Google_1_Ryan Marvel_15_oval.jpg,1,9,105,live
800,AK27D3SD6EZX6:3STRJBFXOYY79U10QA930R8IGN6TKK,2040,/static/images/2kfaces/Google_1_Samuel Goff_1_oval.jpg,1,5,107,live
801,AK27D3SD6EZX6:3STRJBFXOYY79U10QA930R8IGN6TKK,3931,/static/images/2kfaces/Google_1_Frank Whitehouse_3_oval.jpg,1,3,108,live
802,AK27D3SD6EZX6:3STRJBFXOYY79U10QA930R8IGN6TKK,3155,/static/images/2kfaces/Google_1_Henry Gumm_19_oval.jpg,1,9,109,live
803,AK27D3SD6EZX6:3STRJBFXOYY79U10QA930R8IGN6TKK,2788,/static/images/2kfaces/Google_1_Mark Houser_17_oval.jpg,1,5,110,live
804,AK27D3SD6EZX6:3STRJBFXOYY79U10QA930R8IGN6TKK,2515,/static/images/2kfaces/Google_1_Steve Stamm_1_oval.jpg,1,7,111,live
805,AK27D3SD6EZX6:3STRJBFXOYY79U10QA930R8IGN6TKK,1876,/static/images/2kfaces/Google_1_Ernest Crump_3_oval.jpg,1,8,112,live
806,AK27D3SD6EZX6:3STRJBFXOYY79U10QA930R8IGN6TKK,2019,/static/images/2kfaces/Google_1_Cindy Morehead_5_oval.jpg,1,4,113,live
807,AK27D3SD6EZX6:3STRJBFXOYY79U10QA930R8IGN6TKK,3428,/static/images/2kfaces/Google_1_Gary Perri_3_oval.jpg,1,6,114,live
808,AK27D3SD6EZX6:3STRJBFXOYY79U10QA930R8IGN6TKK,2103,/static/images/2kfaces/Google_1_Paul Horst_15_oval.jpg,1,6,115,live
