,subId,rt,imgName,rating,trial_index,debug_mode
0,ABL3H3O3BI8ZD:3IUZPWIU1QEZ1B5ULFEENBFIX08WKE,2498,136184_-0.5227272727272727.png,6,2,live
1,ABL3H3O3BI8ZD:3IUZPWIU1QEZ1B5ULFEENBFIX08WKE,1397,136222_0.053030303030303094.png,5,3,live
2,ABL3H3O3BI8ZD:3IUZPWIU1QEZ1B5ULFEENBFIX08WKE,2459,136216_-0.037878787878787845.png,4,4,live
3,ABL3H3O3BI8ZD:3IUZPWIU1QEZ1B5ULFEENBFIX08WKE,1065,136190_-0.4318181818181818.png,4,5,live
4,ABL3H3O3BI8ZD:3IUZPWIU1QEZ1B5ULFEENBFIX08WKE,4034,136172_-0.7045454545454546.png,7,6,live
5,ABL3H3O3BI8ZD:3IUZPWIU1QEZ1B5ULFEENBFIX08WKE,6224,136184_-0.5227272727272727.png,6,7,live
6,ABL3H3O3BI8ZD:3IUZPWIU1QEZ1B5ULFEENBFIX08WKE,1155,136236_0.26515151515151514.png,6,8,live
7,ABL3H3O3BI8ZD:3IUZPWIU1QEZ1B5ULFEENBFIX08WKE,1214,136220_0.022727272727272707.png,6,9,live
8,ABL3H3O3BI8ZD:3IUZPWIU1QEZ1B5ULFEENBFIX08WKE,1244,136173_-0.6893939393939394.png,6,10,live
9,ABL3H3O3BI8ZD:3IUZPWIU1QEZ1B5ULFEENBFIX08WKE,1155,136267_0.7348484848484849.png,6,11,live
10,ABL3H3O3BI8ZD:3IUZPWIU1QEZ1B5ULFEENBFIX08WKE,1351,136217_-0.022727272727272707.png,6,13,live
11,ABL3H3O3BI8ZD:3IUZPWIU1QEZ1B5ULFEENBFIX08WKE,1123,136213_-0.08333333333333326.png,6,14,live
12,ABL3H3O3BI8ZD:3IUZPWIU1QEZ1B5ULFEENBFIX08WKE,1139,136218_-0.007575757575757569.png,6,15,live
13,ABL3H3O3BI8ZD:3IUZPWIU1QEZ1B5ULFEENBFIX08WKE,1245,136189_-0.44696969696969696.png,6,16,live
14,ABL3H3O3BI8ZD:3IUZPWIU1QEZ1B5ULFEENBFIX08WKE,4514,136204_-0.21969696969696972.png,7,17,live
15,ABL3H3O3BI8ZD:3IUZPWIU1QEZ1B5ULFEENBFIX08WKE,1303,136265_0.7045454545454546.png,7,18,live
16,ABL3H3O3BI8ZD:3IUZPWIU1QEZ1B5ULFEENBFIX08WKE,1334,136267_0.7348484848484849.png,7,19,live
17,ABL3H3O3BI8ZD:3IUZPWIU1QEZ1B5ULFEENBFIX08WKE,1408,136204_-0.21969696969696972.png,8,20,live
18,ABL3H3O3BI8ZD:3IUZPWIU1QEZ1B5ULFEENBFIX08WKE,1154,136248_0.446969696969697.png,8,21,live
19,ABL3H3O3BI8ZD:3IUZPWIU1QEZ1B5ULFEENBFIX08WKE,2534,136212_-0.09848484848484851.png,6,22,live
20,ABL3H3O3BI8ZD:3IUZPWIU1QEZ1B5ULFEENBFIX08WKE,1696,136258_0.5984848484848486.png,5,24,live
21,ABL3H3O3BI8ZD:3IUZPWIU1QEZ1B5ULFEENBFIX08WKE,1034,136219_0.007575757575757569.png,5,25,live
22,ABL3H3O3BI8ZD:3IUZPWIU1QEZ1B5ULFEENBFIX08WKE,1078,136178_-0.6136363636363636.png,5,26,live
23,ABL3H3O3BI8ZD:3IUZPWIU1QEZ1B5ULFEENBFIX08WKE,4544,136226_0.11363636363636365.png,5,27,live
24,ABL3H3O3BI8ZD:3IUZPWIU1QEZ1B5ULFEENBFIX08WKE,1754,136245_0.4015151515151516.png,6,28,live
25,ABL3H3O3BI8ZD:3IUZPWIU1QEZ1B5ULFEENBFIX08WKE,1439,136245_0.4015151515151516.png,7,29,live
26,ABL3H3O3BI8ZD:3IUZPWIU1QEZ1B5ULFEENBFIX08WKE,1169,136225_0.09848484848484851.png,7,30,live
27,ABL3H3O3BI8ZD:3IUZPWIU1QEZ1B5ULFEENBFIX08WKE,1094,136236_0.26515151515151514.png,7,31,live
28,ABL3H3O3BI8ZD:3IUZPWIU1QEZ1B5ULFEENBFIX08WKE,1093,136230_0.1742424242424243.png,7,32,live
29,ABL3H3O3BI8ZD:3IUZPWIU1QEZ1B5ULFEENBFIX08WKE,1109,136205_-0.20454545454545459.png,7,33,live
30,ABL3H3O3BI8ZD:3IUZPWIU1QEZ1B5ULFEENBFIX08WKE,1066,136183_-0.5378787878787878.png,7,35,live
31,ABL3H3O3BI8ZD:3IUZPWIU1QEZ1B5ULFEENBFIX08WKE,1153,136176_-0.6439393939393939.png,7,36,live
32,ABL3H3O3BI8ZD:3IUZPWIU1QEZ1B5ULFEENBFIX08WKE,1290,136169_-0.75.png,7,37,live
33,ABL3H3O3BI8ZD:3IUZPWIU1QEZ1B5ULFEENBFIX08WKE,5579,136215_-0.05303030303030298.png,7,38,live
34,ABL3H3O3BI8ZD:3IUZPWIU1QEZ1B5ULFEENBFIX08WKE,1033,136195_-0.3560606060606061.png,7,39,live
35,ABL3H3O3BI8ZD:3IUZPWIU1QEZ1B5ULFEENBFIX08WKE,1094,136212_-0.09848484848484851.png,7,40,live
36,ABL3H3O3BI8ZD:3IUZPWIU1QEZ1B5ULFEENBFIX08WKE,4169,136256_0.5681818181818181.png,7,41,live
37,ABL3H3O3BI8ZD:3IUZPWIU1QEZ1B5ULFEENBFIX08WKE,1019,136207_-0.1742424242424242.png,7,42,live
38,ABL3H3O3BI8ZD:3IUZPWIU1QEZ1B5ULFEENBFIX08WKE,1138,136231_0.18939393939393945.png,7,43,live
39,ABL3H3O3BI8ZD:3IUZPWIU1QEZ1B5ULFEENBFIX08WKE,1243,136194_-0.3712121212121212.png,7,44,live
40,ABL3H3O3BI8ZD:3IUZPWIU1QEZ1B5ULFEENBFIX08WKE,1288,136237_0.2803030303030303.png,7,46,live
41,ABL3H3O3BI8ZD:3IUZPWIU1QEZ1B5ULFEENBFIX08WKE,1213,136251_0.49242424242424243.png,7,47,live
42,ABL3H3O3BI8ZD:3IUZPWIU1QEZ1B5ULFEENBFIX08WKE,1139,136180_-0.5833333333333333.png,7,48,live
43,ABL3H3O3BI8ZD:3IUZPWIU1QEZ1B5ULFEENBFIX08WKE,1094,136240_0.3257575757575757.png,7,49,live
44,ABL3H3O3BI8ZD:3IUZPWIU1QEZ1B5ULFEENBFIX08WKE,1109,136238_0.2954545454545454.png,7,50,live
45,ABL3H3O3BI8ZD:3IUZPWIU1QEZ1B5ULFEENBFIX08WKE,1109,136249_0.46212121212121215.png,7,51,live
46,ABL3H3O3BI8ZD:3IUZPWIU1QEZ1B5ULFEENBFIX08WKE,1034,136253_0.5227272727272727.png,7,52,live
47,ABL3H3O3BI8ZD:3IUZPWIU1QEZ1B5ULFEENBFIX08WKE,1199,136263_0.6742424242424243.png,7,53,live
48,ABL3H3O3BI8ZD:3IUZPWIU1QEZ1B5ULFEENBFIX08WKE,1078,136194_-0.3712121212121212.png,7,54,live
49,ABL3H3O3BI8ZD:3IUZPWIU1QEZ1B5ULFEENBFIX08WKE,1108,136200_-0.2803030303030303.png,7,55,live
50,ABL3H3O3BI8ZD:3IUZPWIU1QEZ1B5ULFEENBFIX08WKE,2675,136183_-0.5378787878787878.png,7,57,live
51,ABL3H3O3BI8ZD:3IUZPWIU1QEZ1B5ULFEENBFIX08WKE,1305,136193_-0.38636363636363635.png,7,58,live
52,ABL3H3O3BI8ZD:3IUZPWIU1QEZ1B5ULFEENBFIX08WKE,1318,136235_0.25.png,7,59,live
53,ABL3H3O3BI8ZD:3IUZPWIU1QEZ1B5ULFEENBFIX08WKE,1183,136249_0.46212121212121215.png,7,60,live
54,ABL3H3O3BI8ZD:3IUZPWIU1QEZ1B5ULFEENBFIX08WKE,1258,136242_0.3560606060606062.png,7,61,live
55,ABL3H3O3BI8ZD:3IUZPWIU1QEZ1B5ULFEENBFIX08WKE,1139,136254_0.5378787878787878.png,7,62,live
56,ABL3H3O3BI8ZD:3IUZPWIU1QEZ1B5ULFEENBFIX08WKE,1215,136175_-0.6590909090909091.png,7,63,live
57,ABL3H3O3BI8ZD:3IUZPWIU1QEZ1B5ULFEENBFIX08WKE,1183,136262_0.6590909090909092.png,7,64,live
58,ABL3H3O3BI8ZD:3IUZPWIU1QEZ1B5ULFEENBFIX08WKE,1184,136257_0.5833333333333335.png,7,65,live
59,ABL3H3O3BI8ZD:3IUZPWIU1QEZ1B5ULFEENBFIX08WKE,1123,136260_0.6287878787878789.png,7,66,live
60,ABL3H3O3BI8ZD:3IUZPWIU1QEZ1B5ULFEENBFIX08WKE,1169,136202_-0.25.png,7,68,live
61,ABL3H3O3BI8ZD:3IUZPWIU1QEZ1B5ULFEENBFIX08WKE,1229,136178_-0.6136363636363636.png,7,69,live
62,ABL3H3O3BI8ZD:3IUZPWIU1QEZ1B5ULFEENBFIX08WKE,1198,136247_0.4318181818181819.png,7,70,live
63,ABL3H3O3BI8ZD:3IUZPWIU1QEZ1B5ULFEENBFIX08WKE,1183,136193_-0.38636363636363635.png,7,71,live
64,ABL3H3O3BI8ZD:3IUZPWIU1QEZ1B5ULFEENBFIX08WKE,1199,136257_0.5833333333333335.png,7,72,live
65,ABL3H3O3BI8ZD:3IUZPWIU1QEZ1B5ULFEENBFIX08WKE,1229,136203_-0.23484848484848486.png,7,73,live
66,ABL3H3O3BI8ZD:3IUZPWIU1QEZ1B5ULFEENBFIX08WKE,1140,136232_0.20454545454545459.png,7,74,live
67,ABL3H3O3BI8ZD:3IUZPWIU1QEZ1B5ULFEENBFIX08WKE,1229,136216_-0.037878787878787845.png,7,75,live
68,ABL3H3O3BI8ZD:3IUZPWIU1QEZ1B5ULFEENBFIX08WKE,1288,136176_-0.6439393939393939.png,7,76,live
69,ABL3H3O3BI8ZD:3IUZPWIU1QEZ1B5ULFEENBFIX08WKE,1184,136208_-0.15909090909090906.png,7,77,live
70,ABL3H3O3BI8ZD:3IUZPWIU1QEZ1B5ULFEENBFIX08WKE,1528,136203_-0.23484848484848486.png,7,79,live
71,ABL3H3O3BI8ZD:3IUZPWIU1QEZ1B5ULFEENBFIX08WKE,1244,136187_-0.4772727272727273.png,7,80,live
72,ABL3H3O3BI8ZD:3IUZPWIU1QEZ1B5ULFEENBFIX08WKE,1154,136259_0.6136363636363638.png,7,81,live
73,ABL3H3O3BI8ZD:3IUZPWIU1QEZ1B5ULFEENBFIX08WKE,1170,136253_0.5227272727272727.png,7,82,live
74,ABL3H3O3BI8ZD:3IUZPWIU1QEZ1B5ULFEENBFIX08WKE,1258,136191_-0.41666666666666663.png,7,83,live
75,ABL3H3O3BI8ZD:3IUZPWIU1QEZ1B5ULFEENBFIX08WKE,2159,136192_-0.4015151515151515.png,8,84,live
76,ABL3H3O3BI8ZD:3IUZPWIU1QEZ1B5ULFEENBFIX08WKE,1064,136199_-0.2954545454545454.png,8,85,live
77,ABL3H3O3BI8ZD:3IUZPWIU1QEZ1B5ULFEENBFIX08WKE,1138,136185_-0.5075757575757576.png,8,86,live
78,ABL3H3O3BI8ZD:3IUZPWIU1QEZ1B5ULFEENBFIX08WKE,6403,136179_-0.5984848484848485.png,9,87,live
79,ABL3H3O3BI8ZD:3IUZPWIU1QEZ1B5ULFEENBFIX08WKE,4349,136181_-0.5681818181818181.png,8,88,live
80,ABL3H3O3BI8ZD:3IUZPWIU1QEZ1B5ULFEENBFIX08WKE,3817,136209_-0.14393939393939392.png,7,90,live
81,ABL3H3O3BI8ZD:3IUZPWIU1QEZ1B5ULFEENBFIX08WKE,3914,136255_0.553030303030303.png,8,91,live
82,ABL3H3O3BI8ZD:3IUZPWIU1QEZ1B5ULFEENBFIX08WKE,1154,136261_0.643939393939394.png,8,92,live
83,ABL3H3O3BI8ZD:3IUZPWIU1QEZ1B5ULFEENBFIX08WKE,1005,136227_0.12878787878787878.png,8,93,live
84,ABL3H3O3BI8ZD:3IUZPWIU1QEZ1B5ULFEENBFIX08WKE,1079,136223_0.06818181818181823.png,8,94,live
85,ABL3H3O3BI8ZD:3IUZPWIU1QEZ1B5ULFEENBFIX08WKE,1168,136268_0.75.png,8,95,live
86,ABL3H3O3BI8ZD:3IUZPWIU1QEZ1B5ULFEENBFIX08WKE,1184,136197_-0.32575757575757575.png,8,96,live
87,ABL3H3O3BI8ZD:3IUZPWIU1QEZ1B5ULFEENBFIX08WKE,1349,136266_0.7196969696969697.png,8,97,live
88,ABL3H3O3BI8ZD:3IUZPWIU1QEZ1B5ULFEENBFIX08WKE,1350,136224_0.08333333333333337.png,8,98,live
89,ABL3H3O3BI8ZD:3IUZPWIU1QEZ1B5ULFEENBFIX08WKE,1648,136264_0.6893939393939394.png,8,99,live
90,ABL3H3O3BI8ZD:3IUZPWIU1QEZ1B5ULFEENBFIX08WKE,2448,136196_-0.3409090909090909.png,8,101,live
91,ABL3H3O3BI8ZD:3IUZPWIU1QEZ1B5ULFEENBFIX08WKE,2609,136200_-0.2803030303030303.png,8,102,live
92,ABL3H3O3BI8ZD:3IUZPWIU1QEZ1B5ULFEENBFIX08WKE,4049,136229_0.15909090909090917.png,7,103,live
93,ABL3H3O3BI8ZD:3IUZPWIU1QEZ1B5ULFEENBFIX08WKE,9388,136250_0.4772727272727273.png,6,104,live
94,ABL3H3O3BI8ZD:3IUZPWIU1QEZ1B5ULFEENBFIX08WKE,11833,136180_-0.5833333333333333.png,5,105,live
95,ABL3H3O3BI8ZD:3IUZPWIU1QEZ1B5ULFEENBFIX08WKE,3705,136210_-0.12878787878787878.png,6,106,live
96,ABL3H3O3BI8ZD:3IUZPWIU1QEZ1B5ULFEENBFIX08WKE,8068,136266_0.7196969696969697.png,6,107,live
97,ABL3H3O3BI8ZD:3IUZPWIU1QEZ1B5ULFEENBFIX08WKE,1170,136258_0.5984848484848486.png,6,108,live
98,ABL3H3O3BI8ZD:3IUZPWIU1QEZ1B5ULFEENBFIX08WKE,4410,136177_-0.6287878787878788.png,7,109,live
99,ABL3H3O3BI8ZD:3IUZPWIU1QEZ1B5ULFEENBFIX08WKE,3163,136233_0.21969696969696972.png,7,110,live
100,AHNMLY8QCTPGB:3SLE99ER0PK22365QPLSNCQAR83ZBN,9456,136232_0.20454545454545459.png,1,2,live
101,AHNMLY8QCTPGB:3SLE99ER0PK22365QPLSNCQAR83ZBN,7338,136257_0.5833333333333335.png,2,3,live
102,AHNMLY8QCTPGB:3SLE99ER0PK22365QPLSNCQAR83ZBN,9076,136183_-0.5378787878787878.png,7,4,live
103,AHNMLY8QCTPGB:3SLE99ER0PK22365QPLSNCQAR83ZBN,7207,136266_0.7196969696969697.png,1,5,live
104,AHNMLY8QCTPGB:3SLE99ER0PK22365QPLSNCQAR83ZBN,6628,136231_0.18939393939393945.png,7,6,live
105,AHNMLY8QCTPGB:3SLE99ER0PK22365QPLSNCQAR83ZBN,3397,136255_0.553030303030303.png,1,7,live
106,AHNMLY8QCTPGB:3SLE99ER0PK22365QPLSNCQAR83ZBN,3868,136208_-0.15909090909090906.png,5,8,live
107,AHNMLY8QCTPGB:3SLE99ER0PK22365QPLSNCQAR83ZBN,3550,136180_-0.5833333333333333.png,2,9,live
108,AHNMLY8QCTPGB:3SLE99ER0PK22365QPLSNCQAR83ZBN,6341,136264_0.6893939393939394.png,3,10,live
109,AHNMLY8QCTPGB:3SLE99ER0PK22365QPLSNCQAR83ZBN,3692,136233_0.21969696969696972.png,1,11,live
110,AHNMLY8QCTPGB:3SLE99ER0PK22365QPLSNCQAR83ZBN,6537,136240_0.3257575757575757.png,3,13,live
111,AHNMLY8QCTPGB:3SLE99ER0PK22365QPLSNCQAR83ZBN,4596,136200_-0.2803030303030303.png,3,14,live
112,AHNMLY8QCTPGB:3SLE99ER0PK22365QPLSNCQAR83ZBN,6701,136217_-0.022727272727272707.png,7,15,live
113,AHNMLY8QCTPGB:3SLE99ER0PK22365QPLSNCQAR83ZBN,3573,136220_0.022727272727272707.png,1,16,live
114,AHNMLY8QCTPGB:3SLE99ER0PK22365QPLSNCQAR83ZBN,3229,136266_0.7196969696969697.png,1,17,live
115,AHNMLY8QCTPGB:3SLE99ER0PK22365QPLSNCQAR83ZBN,3500,136236_0.26515151515151514.png,2,18,live
116,AHNMLY8QCTPGB:3SLE99ER0PK22365QPLSNCQAR83ZBN,6052,136250_0.4772727272727273.png,6,19,live
117,AHNMLY8QCTPGB:3SLE99ER0PK22365QPLSNCQAR83ZBN,4173,136204_-0.21969696969696972.png,2,20,live
118,AHNMLY8QCTPGB:3SLE99ER0PK22365QPLSNCQAR83ZBN,4548,136200_-0.2803030303030303.png,3,21,live
119,AHNMLY8QCTPGB:3SLE99ER0PK22365QPLSNCQAR83ZBN,5054,136265_0.7045454545454546.png,8,22,live
120,AHNMLY8QCTPGB:3SLE99ER0PK22365QPLSNCQAR83ZBN,6621,136256_0.5681818181818181.png,8,24,live
121,AHNMLY8QCTPGB:3SLE99ER0PK22365QPLSNCQAR83ZBN,4141,136268_0.75.png,3,25,live
122,AHNMLY8QCTPGB:3SLE99ER0PK22365QPLSNCQAR83ZBN,5997,136229_0.15909090909090917.png,1,26,live
123,AHNMLY8QCTPGB:3SLE99ER0PK22365QPLSNCQAR83ZBN,5405,136194_-0.3712121212121212.png,4,27,live
124,AHNMLY8QCTPGB:3SLE99ER0PK22365QPLSNCQAR83ZBN,3869,136230_0.1742424242424243.png,1,28,live
125,AHNMLY8QCTPGB:3SLE99ER0PK22365QPLSNCQAR83ZBN,4412,136235_0.25.png,3,29,live
126,AHNMLY8QCTPGB:3SLE99ER0PK22365QPLSNCQAR83ZBN,5822,136263_0.6742424242424243.png,2,30,live
127,AHNMLY8QCTPGB:3SLE99ER0PK22365QPLSNCQAR83ZBN,5605,136189_-0.44696969696969696.png,8,31,live
128,AHNMLY8QCTPGB:3SLE99ER0PK22365QPLSNCQAR83ZBN,4029,136180_-0.5833333333333333.png,2,32,live
129,AHNMLY8QCTPGB:3SLE99ER0PK22365QPLSNCQAR83ZBN,4862,136261_0.643939393939394.png,3,33,live
130,AHNMLY8QCTPGB:3SLE99ER0PK22365QPLSNCQAR83ZBN,5076,136179_-0.5984848484848485.png,1,35,live
131,AHNMLY8QCTPGB:3SLE99ER0PK22365QPLSNCQAR83ZBN,4341,136203_-0.23484848484848486.png,2,36,live
132,AHNMLY8QCTPGB:3SLE99ER0PK22365QPLSNCQAR83ZBN,4492,136259_0.6136363636363638.png,3,37,live
133,AHNMLY8QCTPGB:3SLE99ER0PK22365QPLSNCQAR83ZBN,3445,136223_0.06818181818181823.png,1,38,live
134,AHNMLY8QCTPGB:3SLE99ER0PK22365QPLSNCQAR83ZBN,61093,136176_-0.6439393939393939.png,8,39,live
135,AHNMLY8QCTPGB:3SLE99ER0PK22365QPLSNCQAR83ZBN,5669,136237_0.2803030303030303.png,7,40,live
136,AHNMLY8QCTPGB:3SLE99ER0PK22365QPLSNCQAR83ZBN,3862,136224_0.08333333333333337.png,2,41,live
137,AHNMLY8QCTPGB:3SLE99ER0PK22365QPLSNCQAR83ZBN,6692,136245_0.4015151515151516.png,9,42,live
138,AHNMLY8QCTPGB:3SLE99ER0PK22365QPLSNCQAR83ZBN,3365,136193_-0.38636363636363635.png,8,43,live
139,AHNMLY8QCTPGB:3SLE99ER0PK22365QPLSNCQAR83ZBN,3430,136218_-0.007575757575757569.png,2,44,live
140,AHNMLY8QCTPGB:3SLE99ER0PK22365QPLSNCQAR83ZBN,8296,136257_0.5833333333333335.png,3,46,live
141,AHNMLY8QCTPGB:3SLE99ER0PK22365QPLSNCQAR83ZBN,3901,136215_-0.05303030303030298.png,7,47,live
142,AHNMLY8QCTPGB:3SLE99ER0PK22365QPLSNCQAR83ZBN,3324,136242_0.3560606060606062.png,1,48,live
143,AHNMLY8QCTPGB:3SLE99ER0PK22365QPLSNCQAR83ZBN,4380,136181_-0.5681818181818181.png,7,49,live
144,AHNMLY8QCTPGB:3SLE99ER0PK22365QPLSNCQAR83ZBN,3901,136260_0.6287878787878789.png,8,50,live
145,AHNMLY8QCTPGB:3SLE99ER0PK22365QPLSNCQAR83ZBN,3476,136247_0.4318181818181819.png,1,51,live
146,AHNMLY8QCTPGB:3SLE99ER0PK22365QPLSNCQAR83ZBN,5150,136226_0.11363636363636365.png,4,52,live
147,AHNMLY8QCTPGB:3SLE99ER0PK22365QPLSNCQAR83ZBN,4563,136175_-0.6590909090909091.png,8,53,live
148,AHNMLY8QCTPGB:3SLE99ER0PK22365QPLSNCQAR83ZBN,4990,136203_-0.23484848484848486.png,1,54,live
149,AHNMLY8QCTPGB:3SLE99ER0PK22365QPLSNCQAR83ZBN,5613,136267_0.7348484848484849.png,7,55,live
150,AHNMLY8QCTPGB:3SLE99ER0PK22365QPLSNCQAR83ZBN,4202,136238_0.2954545454545454.png,2,57,live
151,AHNMLY8QCTPGB:3SLE99ER0PK22365QPLSNCQAR83ZBN,3862,136222_0.053030303030303094.png,9,58,live
152,AHNMLY8QCTPGB:3SLE99ER0PK22365QPLSNCQAR83ZBN,4077,136212_-0.09848484848484851.png,1,59,live
153,AHNMLY8QCTPGB:3SLE99ER0PK22365QPLSNCQAR83ZBN,4610,136173_-0.6893939393939394.png,4,60,live
154,AHNMLY8QCTPGB:3SLE99ER0PK22365QPLSNCQAR83ZBN,3626,136199_-0.2954545454545454.png,7,61,live
155,AHNMLY8QCTPGB:3SLE99ER0PK22365QPLSNCQAR83ZBN,3740,136249_0.46212121212121215.png,2,62,live
156,AHNMLY8QCTPGB:3SLE99ER0PK22365QPLSNCQAR83ZBN,3646,136184_-0.5227272727272727.png,1,63,live
157,AHNMLY8QCTPGB:3SLE99ER0PK22365QPLSNCQAR83ZBN,4197,136196_-0.3409090909090909.png,1,64,live
158,AHNMLY8QCTPGB:3SLE99ER0PK22365QPLSNCQAR83ZBN,7398,136249_0.46212121212121215.png,2,65,live
159,AHNMLY8QCTPGB:3SLE99ER0PK22365QPLSNCQAR83ZBN,8141,136202_-0.25.png,8,66,live
160,AHNMLY8QCTPGB:3SLE99ER0PK22365QPLSNCQAR83ZBN,4736,136172_-0.7045454545454546.png,3,68,live
161,AHNMLY8QCTPGB:3SLE99ER0PK22365QPLSNCQAR83ZBN,3117,136187_-0.4772727272727273.png,2,69,live
162,AHNMLY8QCTPGB:3SLE99ER0PK22365QPLSNCQAR83ZBN,10733,136254_0.5378787878787878.png,1,70,live
163,AHNMLY8QCTPGB:3SLE99ER0PK22365QPLSNCQAR83ZBN,5460,136176_-0.6439393939393939.png,8,71,live
164,AHNMLY8QCTPGB:3SLE99ER0PK22365QPLSNCQAR83ZBN,3422,136253_0.5227272727272727.png,3,72,live
165,AHNMLY8QCTPGB:3SLE99ER0PK22365QPLSNCQAR83ZBN,3678,136212_-0.09848484848484851.png,1,73,live
166,AHNMLY8QCTPGB:3SLE99ER0PK22365QPLSNCQAR83ZBN,3778,136219_0.007575757575757569.png,7,74,live
167,AHNMLY8QCTPGB:3SLE99ER0PK22365QPLSNCQAR83ZBN,3436,136216_-0.037878787878787845.png,1,75,live
168,AHNMLY8QCTPGB:3SLE99ER0PK22365QPLSNCQAR83ZBN,5636,136216_-0.037878787878787845.png,1,76,live
169,AHNMLY8QCTPGB:3SLE99ER0PK22365QPLSNCQAR83ZBN,4150,136227_0.12878787878787878.png,7,77,live
170,AHNMLY8QCTPGB:3SLE99ER0PK22365QPLSNCQAR83ZBN,3566,136178_-0.6136363636363636.png,3,79,live
171,AHNMLY8QCTPGB:3SLE99ER0PK22365QPLSNCQAR83ZBN,5221,136177_-0.6287878787878788.png,4,80,live
172,AHNMLY8QCTPGB:3SLE99ER0PK22365QPLSNCQAR83ZBN,4764,136183_-0.5378787878787878.png,7,81,live
173,AHNMLY8QCTPGB:3SLE99ER0PK22365QPLSNCQAR83ZBN,5837,136236_0.26515151515151514.png,6,82,live
174,AHNMLY8QCTPGB:3SLE99ER0PK22365QPLSNCQAR83ZBN,3557,136190_-0.4318181818181818.png,1,83,live
175,AHNMLY8QCTPGB:3SLE99ER0PK22365QPLSNCQAR83ZBN,3693,136248_0.446969696969697.png,1,84,live
176,AHNMLY8QCTPGB:3SLE99ER0PK22365QPLSNCQAR83ZBN,4453,136194_-0.3712121212121212.png,7,85,live
177,AHNMLY8QCTPGB:3SLE99ER0PK22365QPLSNCQAR83ZBN,3883,136197_-0.32575757575757575.png,6,86,live
178,AHNMLY8QCTPGB:3SLE99ER0PK22365QPLSNCQAR83ZBN,5588,136195_-0.3560606060606061.png,1,87,live
179,AHNMLY8QCTPGB:3SLE99ER0PK22365QPLSNCQAR83ZBN,4489,136258_0.5984848484848486.png,4,88,live
180,AHNMLY8QCTPGB:3SLE99ER0PK22365QPLSNCQAR83ZBN,6894,136253_0.5227272727272727.png,6,90,live
181,AHNMLY8QCTPGB:3SLE99ER0PK22365QPLSNCQAR83ZBN,3103,136210_-0.12878787878787878.png,1,91,live
182,AHNMLY8QCTPGB:3SLE99ER0PK22365QPLSNCQAR83ZBN,3939,136205_-0.20454545454545459.png,2,92,live
183,AHNMLY8QCTPGB:3SLE99ER0PK22365QPLSNCQAR83ZBN,9123,136209_-0.14393939393939392.png,7,93,live
184,AHNMLY8QCTPGB:3SLE99ER0PK22365QPLSNCQAR83ZBN,3532,136258_0.5984848484848486.png,3,94,live
185,AHNMLY8QCTPGB:3SLE99ER0PK22365QPLSNCQAR83ZBN,5301,136193_-0.38636363636363635.png,8,95,live
186,AHNMLY8QCTPGB:3SLE99ER0PK22365QPLSNCQAR83ZBN,3539,136184_-0.5227272727272727.png,1,96,live
187,AHNMLY8QCTPGB:3SLE99ER0PK22365QPLSNCQAR83ZBN,5068,136207_-0.1742424242424242.png,2,97,live
188,AHNMLY8QCTPGB:3SLE99ER0PK22365QPLSNCQAR83ZBN,6601,136267_0.7348484848484849.png,7,98,live
189,AHNMLY8QCTPGB:3SLE99ER0PK22365QPLSNCQAR83ZBN,3366,136262_0.6590909090909092.png,1,99,live
190,AHNMLY8QCTPGB:3SLE99ER0PK22365QPLSNCQAR83ZBN,3240,136192_-0.4015151515151515.png,9,101,live
191,AHNMLY8QCTPGB:3SLE99ER0PK22365QPLSNCQAR83ZBN,3501,136169_-0.75.png,1,102,live
192,AHNMLY8QCTPGB:3SLE99ER0PK22365QPLSNCQAR83ZBN,4558,136225_0.09848484848484851.png,2,103,live
193,AHNMLY8QCTPGB:3SLE99ER0PK22365QPLSNCQAR83ZBN,3565,136213_-0.08333333333333326.png,3,104,live
194,AHNMLY8QCTPGB:3SLE99ER0PK22365QPLSNCQAR83ZBN,4941,136178_-0.6136363636363636.png,4,105,live
195,AHNMLY8QCTPGB:3SLE99ER0PK22365QPLSNCQAR83ZBN,3749,136185_-0.5075757575757576.png,1,106,live
196,AHNMLY8QCTPGB:3SLE99ER0PK22365QPLSNCQAR83ZBN,3678,136204_-0.21969696969696972.png,2,107,live
197,AHNMLY8QCTPGB:3SLE99ER0PK22365QPLSNCQAR83ZBN,6179,136245_0.4015151515151516.png,8,108,live
198,AHNMLY8QCTPGB:3SLE99ER0PK22365QPLSNCQAR83ZBN,4786,136191_-0.41666666666666663.png,9,109,live
199,AHNMLY8QCTPGB:3SLE99ER0PK22365QPLSNCQAR83ZBN,3556,136251_0.49242424242424243.png,8,110,live
200,A2UK1D5ALYM2CN:317HQ483I9ZI8M6STB2FECNECKGINZ,24674,136202_-0.25.png,7,2,live
201,A2UK1D5ALYM2CN:317HQ483I9ZI8M6STB2FECNECKGINZ,5024,136173_-0.6893939393939394.png,1,3,live
202,A2UK1D5ALYM2CN:317HQ483I9ZI8M6STB2FECNECKGINZ,3073,136224_0.08333333333333337.png,1,4,live
203,A2UK1D5ALYM2CN:317HQ483I9ZI8M6STB2FECNECKGINZ,7552,136236_0.26515151515151514.png,2,5,live
204,A2UK1D5ALYM2CN:317HQ483I9ZI8M6STB2FECNECKGINZ,2940,136249_0.46212121212121215.png,1,6,live
205,A2UK1D5ALYM2CN:317HQ483I9ZI8M6STB2FECNECKGINZ,3135,136184_-0.5227272727272727.png,1,7,live
206,A2UK1D5ALYM2CN:317HQ483I9ZI8M6STB2FECNECKGINZ,8424,136245_0.4015151515151516.png,7,8,live
207,A2UK1D5ALYM2CN:317HQ483I9ZI8M6STB2FECNECKGINZ,2658,136263_0.6742424242424243.png,1,9,live
208,A2UK1D5ALYM2CN:317HQ483I9ZI8M6STB2FECNECKGINZ,3849,136240_0.3257575757575757.png,1,10,live
209,A2UK1D5ALYM2CN:317HQ483I9ZI8M6STB2FECNECKGINZ,5451,136193_-0.38636363636363635.png,7,11,live
210,A2UK1D5ALYM2CN:317HQ483I9ZI8M6STB2FECNECKGINZ,4891,136176_-0.6439393939393939.png,1,13,live
211,A2UK1D5ALYM2CN:317HQ483I9ZI8M6STB2FECNECKGINZ,2421,136254_0.5378787878787878.png,1,14,live
212,A2UK1D5ALYM2CN:317HQ483I9ZI8M6STB2FECNECKGINZ,3065,136266_0.7196969696969697.png,1,15,live
213,A2UK1D5ALYM2CN:317HQ483I9ZI8M6STB2FECNECKGINZ,1875,136216_-0.037878787878787845.png,1,16,live
214,A2UK1D5ALYM2CN:317HQ483I9ZI8M6STB2FECNECKGINZ,2061,136249_0.46212121212121215.png,1,17,live
215,A2UK1D5ALYM2CN:317HQ483I9ZI8M6STB2FECNECKGINZ,2586,136235_0.25.png,1,18,live
216,A2UK1D5ALYM2CN:317HQ483I9ZI8M6STB2FECNECKGINZ,1929,136258_0.5984848484848486.png,1,19,live
217,A2UK1D5ALYM2CN:317HQ483I9ZI8M6STB2FECNECKGINZ,3591,136192_-0.4015151515151515.png,7,20,live
218,A2UK1D5ALYM2CN:317HQ483I9ZI8M6STB2FECNECKGINZ,7088,136194_-0.3712121212121212.png,4,21,live
219,A2UK1D5ALYM2CN:317HQ483I9ZI8M6STB2FECNECKGINZ,4369,136178_-0.6136363636363636.png,2,22,live
220,A2UK1D5ALYM2CN:317HQ483I9ZI8M6STB2FECNECKGINZ,2504,136220_0.022727272727272707.png,1,24,live
221,A2UK1D5ALYM2CN:317HQ483I9ZI8M6STB2FECNECKGINZ,2060,136250_0.4772727272727273.png,1,25,live
222,A2UK1D5ALYM2CN:317HQ483I9ZI8M6STB2FECNECKGINZ,2493,136175_-0.6590909090909091.png,1,26,live
223,A2UK1D5ALYM2CN:317HQ483I9ZI8M6STB2FECNECKGINZ,6526,136217_-0.022727272727272707.png,7,27,live
224,A2UK1D5ALYM2CN:317HQ483I9ZI8M6STB2FECNECKGINZ,2180,136248_0.446969696969697.png,1,28,live
225,A2UK1D5ALYM2CN:317HQ483I9ZI8M6STB2FECNECKGINZ,2114,136223_0.06818181818181823.png,1,29,live
226,A2UK1D5ALYM2CN:317HQ483I9ZI8M6STB2FECNECKGINZ,5842,136199_-0.2954545454545454.png,5,30,live
227,A2UK1D5ALYM2CN:317HQ483I9ZI8M6STB2FECNECKGINZ,5278,136253_0.5227272727272727.png,2,31,live
228,A2UK1D5ALYM2CN:317HQ483I9ZI8M6STB2FECNECKGINZ,3644,136177_-0.6287878787878788.png,2,32,live
229,A2UK1D5ALYM2CN:317HQ483I9ZI8M6STB2FECNECKGINZ,3028,136210_-0.12878787878787878.png,1,33,live
230,A2UK1D5ALYM2CN:317HQ483I9ZI8M6STB2FECNECKGINZ,4873,136251_0.49242424242424243.png,4,35,live
231,A2UK1D5ALYM2CN:317HQ483I9ZI8M6STB2FECNECKGINZ,2688,136225_0.09848484848484851.png,2,36,live
232,A2UK1D5ALYM2CN:317HQ483I9ZI8M6STB2FECNECKGINZ,3318,136213_-0.08333333333333326.png,2,37,live
233,A2UK1D5ALYM2CN:317HQ483I9ZI8M6STB2FECNECKGINZ,2036,136255_0.553030303030303.png,1,38,live
234,A2UK1D5ALYM2CN:317HQ483I9ZI8M6STB2FECNECKGINZ,3723,136267_0.7348484848484849.png,4,39,live
235,A2UK1D5ALYM2CN:317HQ483I9ZI8M6STB2FECNECKGINZ,2753,136197_-0.32575757575757575.png,1,40,live
236,A2UK1D5ALYM2CN:317HQ483I9ZI8M6STB2FECNECKGINZ,2160,136262_0.6590909090909092.png,1,41,live
237,A2UK1D5ALYM2CN:317HQ483I9ZI8M6STB2FECNECKGINZ,3073,136264_0.6893939393939394.png,2,42,live
238,A2UK1D5ALYM2CN:317HQ483I9ZI8M6STB2FECNECKGINZ,2132,136204_-0.21969696969696972.png,2,43,live
239,A2UK1D5ALYM2CN:317HQ483I9ZI8M6STB2FECNECKGINZ,3145,136172_-0.7045454545454546.png,2,44,live
240,A2UK1D5ALYM2CN:317HQ483I9ZI8M6STB2FECNECKGINZ,2896,136195_-0.3560606060606061.png,5,46,live
241,A2UK1D5ALYM2CN:317HQ483I9ZI8M6STB2FECNECKGINZ,5849,136176_-0.6439393939393939.png,2,47,live
242,A2UK1D5ALYM2CN:317HQ483I9ZI8M6STB2FECNECKGINZ,3683,136215_-0.05303030303030298.png,1,48,live
243,A2UK1D5ALYM2CN:317HQ483I9ZI8M6STB2FECNECKGINZ,9106,136212_-0.09848484848484851.png,5,49,live
244,A2UK1D5ALYM2CN:317HQ483I9ZI8M6STB2FECNECKGINZ,1976,136187_-0.4772727272727273.png,1,50,live
245,A2UK1D5ALYM2CN:317HQ483I9ZI8M6STB2FECNECKGINZ,3541,136256_0.5681818181818181.png,4,51,live
246,A2UK1D5ALYM2CN:317HQ483I9ZI8M6STB2FECNECKGINZ,2006,136212_-0.09848484848484851.png,5,52,live
247,A2UK1D5ALYM2CN:317HQ483I9ZI8M6STB2FECNECKGINZ,2242,136184_-0.5227272727272727.png,1,53,live
248,A2UK1D5ALYM2CN:317HQ483I9ZI8M6STB2FECNECKGINZ,3316,136238_0.2954545454545454.png,1,54,live
249,A2UK1D5ALYM2CN:317HQ483I9ZI8M6STB2FECNECKGINZ,3810,136193_-0.38636363636363635.png,4,55,live
250,A2UK1D5ALYM2CN:317HQ483I9ZI8M6STB2FECNECKGINZ,3057,136222_0.053030303030303094.png,4,57,live
251,A2UK1D5ALYM2CN:317HQ483I9ZI8M6STB2FECNECKGINZ,3047,136205_-0.20454545454545459.png,1,58,live
252,A2UK1D5ALYM2CN:317HQ483I9ZI8M6STB2FECNECKGINZ,1980,136216_-0.037878787878787845.png,1,59,live
253,A2UK1D5ALYM2CN:317HQ483I9ZI8M6STB2FECNECKGINZ,3300,136183_-0.5378787878787878.png,1,60,live
254,A2UK1D5ALYM2CN:317HQ483I9ZI8M6STB2FECNECKGINZ,5321,136194_-0.3712121212121212.png,2,61,live
255,A2UK1D5ALYM2CN:317HQ483I9ZI8M6STB2FECNECKGINZ,1849,136204_-0.21969696969696972.png,1,62,live
256,A2UK1D5ALYM2CN:317HQ483I9ZI8M6STB2FECNECKGINZ,2223,136242_0.3560606060606062.png,1,63,live
257,A2UK1D5ALYM2CN:317HQ483I9ZI8M6STB2FECNECKGINZ,3387,136267_0.7348484848484849.png,4,64,live
258,A2UK1D5ALYM2CN:317HQ483I9ZI8M6STB2FECNECKGINZ,2727,136203_-0.23484848484848486.png,1,65,live
259,A2UK1D5ALYM2CN:317HQ483I9ZI8M6STB2FECNECKGINZ,5439,136189_-0.44696969696969696.png,7,66,live
260,A2UK1D5ALYM2CN:317HQ483I9ZI8M6STB2FECNECKGINZ,6773,136226_0.11363636363636365.png,2,68,live
261,A2UK1D5ALYM2CN:317HQ483I9ZI8M6STB2FECNECKGINZ,2947,136268_0.75.png,4,69,live
262,A2UK1D5ALYM2CN:317HQ483I9ZI8M6STB2FECNECKGINZ,2286,136266_0.7196969696969697.png,1,70,live
263,A2UK1D5ALYM2CN:317HQ483I9ZI8M6STB2FECNECKGINZ,3349,136179_-0.5984848484848485.png,1,71,live
264,A2UK1D5ALYM2CN:317HQ483I9ZI8M6STB2FECNECKGINZ,2193,136232_0.20454545454545459.png,1,72,live
265,A2UK1D5ALYM2CN:317HQ483I9ZI8M6STB2FECNECKGINZ,5898,136245_0.4015151515151516.png,7,73,live
266,A2UK1D5ALYM2CN:317HQ483I9ZI8M6STB2FECNECKGINZ,3939,136257_0.5833333333333335.png,4,74,live
267,A2UK1D5ALYM2CN:317HQ483I9ZI8M6STB2FECNECKGINZ,2829,136229_0.15909090909090917.png,1,75,live
268,A2UK1D5ALYM2CN:317HQ483I9ZI8M6STB2FECNECKGINZ,2460,136208_-0.15909090909090906.png,4,76,live
269,A2UK1D5ALYM2CN:317HQ483I9ZI8M6STB2FECNECKGINZ,2113,136196_-0.3409090909090909.png,1,77,live
270,A2UK1D5ALYM2CN:317HQ483I9ZI8M6STB2FECNECKGINZ,4774,136183_-0.5378787878787878.png,1,79,live
271,A2UK1D5ALYM2CN:317HQ483I9ZI8M6STB2FECNECKGINZ,1832,136218_-0.007575757575757569.png,1,80,live
272,A2UK1D5ALYM2CN:317HQ483I9ZI8M6STB2FECNECKGINZ,4311,136237_0.2803030303030303.png,4,81,live
273,A2UK1D5ALYM2CN:317HQ483I9ZI8M6STB2FECNECKGINZ,2239,136185_-0.5075757575757576.png,1,82,live
274,A2UK1D5ALYM2CN:317HQ483I9ZI8M6STB2FECNECKGINZ,2627,136200_-0.2803030303030303.png,1,83,live
275,A2UK1D5ALYM2CN:317HQ483I9ZI8M6STB2FECNECKGINZ,2195,136247_0.4318181818181819.png,1,84,live
276,A2UK1D5ALYM2CN:317HQ483I9ZI8M6STB2FECNECKGINZ,2152,136190_-0.4318181818181818.png,1,85,live
277,A2UK1D5ALYM2CN:317HQ483I9ZI8M6STB2FECNECKGINZ,2279,136257_0.5833333333333335.png,4,86,live
278,A2UK1D5ALYM2CN:317HQ483I9ZI8M6STB2FECNECKGINZ,4656,136259_0.6136363636363638.png,4,87,live
279,A2UK1D5ALYM2CN:317HQ483I9ZI8M6STB2FECNECKGINZ,2759,136236_0.26515151515151514.png,5,88,live
280,A2UK1D5ALYM2CN:317HQ483I9ZI8M6STB2FECNECKGINZ,2453,136233_0.21969696969696972.png,1,90,live
281,A2UK1D5ALYM2CN:317HQ483I9ZI8M6STB2FECNECKGINZ,3308,136207_-0.1742424242424242.png,4,91,live
282,A2UK1D5ALYM2CN:317HQ483I9ZI8M6STB2FECNECKGINZ,2085,136180_-0.5833333333333333.png,1,92,live
283,A2UK1D5ALYM2CN:317HQ483I9ZI8M6STB2FECNECKGINZ,4160,136231_0.18939393939393945.png,5,93,live
284,A2UK1D5ALYM2CN:317HQ483I9ZI8M6STB2FECNECKGINZ,1990,136203_-0.23484848484848486.png,1,94,live
285,A2UK1D5ALYM2CN:317HQ483I9ZI8M6STB2FECNECKGINZ,2217,136253_0.5227272727272727.png,1,95,live
286,A2UK1D5ALYM2CN:317HQ483I9ZI8M6STB2FECNECKGINZ,3102,136209_-0.14393939393939392.png,4,96,live
287,A2UK1D5ALYM2CN:317HQ483I9ZI8M6STB2FECNECKGINZ,2128,136169_-0.75.png,1,97,live
288,A2UK1D5ALYM2CN:317HQ483I9ZI8M6STB2FECNECKGINZ,7535,136200_-0.2803030303030303.png,4,98,live
289,A2UK1D5ALYM2CN:317HQ483I9ZI8M6STB2FECNECKGINZ,5127,136265_0.7045454545454546.png,7,99,live
290,A2UK1D5ALYM2CN:317HQ483I9ZI8M6STB2FECNECKGINZ,3405,136178_-0.6136363636363636.png,1,101,live
291,A2UK1D5ALYM2CN:317HQ483I9ZI8M6STB2FECNECKGINZ,5432,136227_0.12878787878787878.png,4,102,live
292,A2UK1D5ALYM2CN:317HQ483I9ZI8M6STB2FECNECKGINZ,2351,136181_-0.5681818181818181.png,1,103,live
293,A2UK1D5ALYM2CN:317HQ483I9ZI8M6STB2FECNECKGINZ,2245,136258_0.5984848484848486.png,1,104,live
294,A2UK1D5ALYM2CN:317HQ483I9ZI8M6STB2FECNECKGINZ,2005,136180_-0.5833333333333333.png,1,105,live
295,A2UK1D5ALYM2CN:317HQ483I9ZI8M6STB2FECNECKGINZ,3544,136260_0.6287878787878789.png,2,106,live
296,A2UK1D5ALYM2CN:317HQ483I9ZI8M6STB2FECNECKGINZ,2123,136230_0.1742424242424243.png,1,107,live
297,A2UK1D5ALYM2CN:317HQ483I9ZI8M6STB2FECNECKGINZ,2319,136261_0.643939393939394.png,1,108,live
298,A2UK1D5ALYM2CN:317HQ483I9ZI8M6STB2FECNECKGINZ,13254,136219_0.007575757575757569.png,7,109,live
299,A2UK1D5ALYM2CN:317HQ483I9ZI8M6STB2FECNECKGINZ,6531,136191_-0.41666666666666663.png,7,110,live
300,A5FZ5GVLXECY1:3OS4RQUCRBMWXMF5PDRLKKASF3AFBG,8146,136266_0.7196969696969697.png,4,2,live
301,A5FZ5GVLXECY1:3OS4RQUCRBMWXMF5PDRLKKASF3AFBG,3244,136268_0.75.png,3,3,live
302,A5FZ5GVLXECY1:3OS4RQUCRBMWXMF5PDRLKKASF3AFBG,2388,136229_0.15909090909090917.png,4,4,live
303,A5FZ5GVLXECY1:3OS4RQUCRBMWXMF5PDRLKKASF3AFBG,2829,136245_0.4015151515151516.png,5,5,live
304,A5FZ5GVLXECY1:3OS4RQUCRBMWXMF5PDRLKKASF3AFBG,3012,136266_0.7196969696969697.png,3,6,live
305,A5FZ5GVLXECY1:3OS4RQUCRBMWXMF5PDRLKKASF3AFBG,2604,136216_-0.037878787878787845.png,3,7,live
306,A5FZ5GVLXECY1:3OS4RQUCRBMWXMF5PDRLKKASF3AFBG,3908,136217_-0.022727272727272707.png,6,8,live
307,A5FZ5GVLXECY1:3OS4RQUCRBMWXMF5PDRLKKASF3AFBG,3369,136237_0.2803030303030303.png,4,9,live
308,A5FZ5GVLXECY1:3OS4RQUCRBMWXMF5PDRLKKASF3AFBG,2141,136176_-0.6439393939393939.png,6,10,live
309,A5FZ5GVLXECY1:3OS4RQUCRBMWXMF5PDRLKKASF3AFBG,3341,136183_-0.5378787878787878.png,5,11,live
310,A5FZ5GVLXECY1:3OS4RQUCRBMWXMF5PDRLKKASF3AFBG,4288,136175_-0.6590909090909091.png,6,13,live
311,A5FZ5GVLXECY1:3OS4RQUCRBMWXMF5PDRLKKASF3AFBG,3509,136253_0.5227272727272727.png,5,14,live
312,A5FZ5GVLXECY1:3OS4RQUCRBMWXMF5PDRLKKASF3AFBG,2110,136253_0.5227272727272727.png,5,15,live
313,A5FZ5GVLXECY1:3OS4RQUCRBMWXMF5PDRLKKASF3AFBG,2619,136172_-0.7045454545454546.png,5,16,live
314,A5FZ5GVLXECY1:3OS4RQUCRBMWXMF5PDRLKKASF3AFBG,2902,136200_-0.2803030303030303.png,5,17,live
315,A5FZ5GVLXECY1:3OS4RQUCRBMWXMF5PDRLKKASF3AFBG,3199,136230_0.1742424242424243.png,5,18,live
316,A5FZ5GVLXECY1:3OS4RQUCRBMWXMF5PDRLKKASF3AFBG,3277,136222_0.053030303030303094.png,7,19,live
317,A5FZ5GVLXECY1:3OS4RQUCRBMWXMF5PDRLKKASF3AFBG,2108,136194_-0.3712121212121212.png,7,20,live
318,A5FZ5GVLXECY1:3OS4RQUCRBMWXMF5PDRLKKASF3AFBG,1653,136203_-0.23484848484848486.png,7,21,live
319,A5FZ5GVLXECY1:3OS4RQUCRBMWXMF5PDRLKKASF3AFBG,2381,136261_0.643939393939394.png,7,22,live
320,A5FZ5GVLXECY1:3OS4RQUCRBMWXMF5PDRLKKASF3AFBG,2311,136177_-0.6287878787878788.png,5,24,live
321,A5FZ5GVLXECY1:3OS4RQUCRBMWXMF5PDRLKKASF3AFBG,1781,136169_-0.75.png,6,25,live
322,A5FZ5GVLXECY1:3OS4RQUCRBMWXMF5PDRLKKASF3AFBG,1892,136255_0.553030303030303.png,5,26,live
323,A5FZ5GVLXECY1:3OS4RQUCRBMWXMF5PDRLKKASF3AFBG,1741,136247_0.4318181818181819.png,6,27,live
324,A5FZ5GVLXECY1:3OS4RQUCRBMWXMF5PDRLKKASF3AFBG,1333,136248_0.446969696969697.png,5,28,live
325,A5FZ5GVLXECY1:3OS4RQUCRBMWXMF5PDRLKKASF3AFBG,1373,136180_-0.5833333333333333.png,5,29,live
326,A5FZ5GVLXECY1:3OS4RQUCRBMWXMF5PDRLKKASF3AFBG,3917,136204_-0.21969696969696972.png,6,30,live
327,A5FZ5GVLXECY1:3OS4RQUCRBMWXMF5PDRLKKASF3AFBG,1502,136238_0.2954545454545454.png,6,31,live
328,A5FZ5GVLXECY1:3OS4RQUCRBMWXMF5PDRLKKASF3AFBG,2325,136184_-0.5227272727272727.png,6,32,live
329,A5FZ5GVLXECY1:3OS4RQUCRBMWXMF5PDRLKKASF3AFBG,1543,136262_0.6590909090909092.png,6,33,live
330,A5FZ5GVLXECY1:3OS4RQUCRBMWXMF5PDRLKKASF3AFBG,1761,136184_-0.5227272727272727.png,5,35,live
331,A5FZ5GVLXECY1:3OS4RQUCRBMWXMF5PDRLKKASF3AFBG,1637,136259_0.6136363636363638.png,6,36,live
332,A5FZ5GVLXECY1:3OS4RQUCRBMWXMF5PDRLKKASF3AFBG,3581,136245_0.4015151515151516.png,5,37,live
333,A5FZ5GVLXECY1:3OS4RQUCRBMWXMF5PDRLKKASF3AFBG,1493,136203_-0.23484848484848486.png,6,38,live
334,A5FZ5GVLXECY1:3OS4RQUCRBMWXMF5PDRLKKASF3AFBG,5812,136267_0.7348484848484849.png,7,39,live
335,A5FZ5GVLXECY1:3OS4RQUCRBMWXMF5PDRLKKASF3AFBG,1445,136200_-0.2803030303030303.png,6,40,live
336,A5FZ5GVLXECY1:3OS4RQUCRBMWXMF5PDRLKKASF3AFBG,1708,136176_-0.6439393939393939.png,4,41,live
337,A5FZ5GVLXECY1:3OS4RQUCRBMWXMF5PDRLKKASF3AFBG,1732,136233_0.21969696969696972.png,4,42,live
338,A5FZ5GVLXECY1:3OS4RQUCRBMWXMF5PDRLKKASF3AFBG,2941,136208_-0.15909090909090906.png,4,43,live
339,A5FZ5GVLXECY1:3OS4RQUCRBMWXMF5PDRLKKASF3AFBG,2340,136236_0.26515151515151514.png,6,44,live
340,A5FZ5GVLXECY1:3OS4RQUCRBMWXMF5PDRLKKASF3AFBG,1876,136179_-0.5984848484848485.png,5,46,live
341,A5FZ5GVLXECY1:3OS4RQUCRBMWXMF5PDRLKKASF3AFBG,1420,136232_0.20454545454545459.png,5,47,live
342,A5FZ5GVLXECY1:3OS4RQUCRBMWXMF5PDRLKKASF3AFBG,3020,136258_0.5984848484848486.png,5,48,live
343,A5FZ5GVLXECY1:3OS4RQUCRBMWXMF5PDRLKKASF3AFBG,4621,136212_-0.09848484848484851.png,5,49,live
344,A5FZ5GVLXECY1:3OS4RQUCRBMWXMF5PDRLKKASF3AFBG,1813,136249_0.46212121212121215.png,5,50,live
345,A5FZ5GVLXECY1:3OS4RQUCRBMWXMF5PDRLKKASF3AFBG,1476,136185_-0.5075757575757576.png,5,51,live
346,A5FZ5GVLXECY1:3OS4RQUCRBMWXMF5PDRLKKASF3AFBG,1573,136251_0.49242424242424243.png,5,52,live
347,A5FZ5GVLXECY1:3OS4RQUCRBMWXMF5PDRLKKASF3AFBG,2821,136183_-0.5378787878787878.png,5,53,live
348,A5FZ5GVLXECY1:3OS4RQUCRBMWXMF5PDRLKKASF3AFBG,1300,136187_-0.4772727272727273.png,5,54,live
349,A5FZ5GVLXECY1:3OS4RQUCRBMWXMF5PDRLKKASF3AFBG,2773,136178_-0.6136363636363636.png,5,55,live
350,A5FZ5GVLXECY1:3OS4RQUCRBMWXMF5PDRLKKASF3AFBG,1967,136197_-0.32575757575757575.png,6,57,live
351,A5FZ5GVLXECY1:3OS4RQUCRBMWXMF5PDRLKKASF3AFBG,2885,136236_0.26515151515151514.png,5,58,live
352,A5FZ5GVLXECY1:3OS4RQUCRBMWXMF5PDRLKKASF3AFBG,1861,136202_-0.25.png,5,59,live
353,A5FZ5GVLXECY1:3OS4RQUCRBMWXMF5PDRLKKASF3AFBG,1548,136227_0.12878787878787878.png,6,60,live
354,A5FZ5GVLXECY1:3OS4RQUCRBMWXMF5PDRLKKASF3AFBG,3104,136256_0.5681818181818181.png,6,61,live
355,A5FZ5GVLXECY1:3OS4RQUCRBMWXMF5PDRLKKASF3AFBG,1693,136173_-0.6893939393939394.png,6,62,live
356,A5FZ5GVLXECY1:3OS4RQUCRBMWXMF5PDRLKKASF3AFBG,2397,136194_-0.3712121212121212.png,5,63,live
357,A5FZ5GVLXECY1:3OS4RQUCRBMWXMF5PDRLKKASF3AFBG,2533,136250_0.4772727272727273.png,6,64,live
358,A5FZ5GVLXECY1:3OS4RQUCRBMWXMF5PDRLKKASF3AFBG,1621,136254_0.5378787878787878.png,6,65,live
359,A5FZ5GVLXECY1:3OS4RQUCRBMWXMF5PDRLKKASF3AFBG,4253,136231_0.18939393939393945.png,6,66,live
360,A5FZ5GVLXECY1:3OS4RQUCRBMWXMF5PDRLKKASF3AFBG,4643,136189_-0.44696969696969696.png,5,68,live
361,A5FZ5GVLXECY1:3OS4RQUCRBMWXMF5PDRLKKASF3AFBG,1636,136263_0.6742424242424243.png,6,69,live
362,A5FZ5GVLXECY1:3OS4RQUCRBMWXMF5PDRLKKASF3AFBG,1222,136213_-0.08333333333333326.png,6,70,live
363,A5FZ5GVLXECY1:3OS4RQUCRBMWXMF5PDRLKKASF3AFBG,1461,136240_0.3257575757575757.png,5,71,live
364,A5FZ5GVLXECY1:3OS4RQUCRBMWXMF5PDRLKKASF3AFBG,2437,136216_-0.037878787878787845.png,6,72,live
365,A5FZ5GVLXECY1:3OS4RQUCRBMWXMF5PDRLKKASF3AFBG,1661,136193_-0.38636363636363635.png,5,73,live
366,A5FZ5GVLXECY1:3OS4RQUCRBMWXMF5PDRLKKASF3AFBG,1614,136212_-0.09848484848484851.png,6,74,live
367,A5FZ5GVLXECY1:3OS4RQUCRBMWXMF5PDRLKKASF3AFBG,2085,136264_0.6893939393939394.png,5,75,live
368,A5FZ5GVLXECY1:3OS4RQUCRBMWXMF5PDRLKKASF3AFBG,1677,136204_-0.21969696969696972.png,6,76,live
369,A5FZ5GVLXECY1:3OS4RQUCRBMWXMF5PDRLKKASF3AFBG,1403,136267_0.7348484848484849.png,5,77,live
370,A5FZ5GVLXECY1:3OS4RQUCRBMWXMF5PDRLKKASF3AFBG,1776,136196_-0.3409090909090909.png,6,79,live
371,A5FZ5GVLXECY1:3OS4RQUCRBMWXMF5PDRLKKASF3AFBG,1317,136242_0.3560606060606062.png,5,80,live
372,A5FZ5GVLXECY1:3OS4RQUCRBMWXMF5PDRLKKASF3AFBG,1461,136193_-0.38636363636363635.png,6,81,live
373,A5FZ5GVLXECY1:3OS4RQUCRBMWXMF5PDRLKKASF3AFBG,3302,136219_0.007575757575757569.png,5,82,live
374,A5FZ5GVLXECY1:3OS4RQUCRBMWXMF5PDRLKKASF3AFBG,1581,136178_-0.6136363636363636.png,6,83,live
375,A5FZ5GVLXECY1:3OS4RQUCRBMWXMF5PDRLKKASF3AFBG,1694,136199_-0.2954545454545454.png,5,84,live
376,A5FZ5GVLXECY1:3OS4RQUCRBMWXMF5PDRLKKASF3AFBG,1584,136218_-0.007575757575757569.png,6,85,live
377,A5FZ5GVLXECY1:3OS4RQUCRBMWXMF5PDRLKKASF3AFBG,1315,136265_0.7045454545454546.png,5,86,live
378,A5FZ5GVLXECY1:3OS4RQUCRBMWXMF5PDRLKKASF3AFBG,1781,136225_0.09848484848484851.png,6,87,live
379,A5FZ5GVLXECY1:3OS4RQUCRBMWXMF5PDRLKKASF3AFBG,1756,136192_-0.4015151515151515.png,5,88,live
380,A5FZ5GVLXECY1:3OS4RQUCRBMWXMF5PDRLKKASF3AFBG,2123,136195_-0.3560606060606061.png,6,90,live
381,A5FZ5GVLXECY1:3OS4RQUCRBMWXMF5PDRLKKASF3AFBG,1166,136209_-0.14393939393939392.png,5,91,live
382,A5FZ5GVLXECY1:3OS4RQUCRBMWXMF5PDRLKKASF3AFBG,1318,136260_0.6287878787878789.png,6,92,live
383,A5FZ5GVLXECY1:3OS4RQUCRBMWXMF5PDRLKKASF3AFBG,1237,136258_0.5984848484848486.png,5,93,live
384,A5FZ5GVLXECY1:3OS4RQUCRBMWXMF5PDRLKKASF3AFBG,2146,136257_0.5833333333333335.png,6,94,live
385,A5FZ5GVLXECY1:3OS4RQUCRBMWXMF5PDRLKKASF3AFBG,1167,136226_0.11363636363636365.png,5,95,live
386,A5FZ5GVLXECY1:3OS4RQUCRBMWXMF5PDRLKKASF3AFBG,2262,136205_-0.20454545454545459.png,6,96,live
387,A5FZ5GVLXECY1:3OS4RQUCRBMWXMF5PDRLKKASF3AFBG,1805,136223_0.06818181818181823.png,5,97,live
388,A5FZ5GVLXECY1:3OS4RQUCRBMWXMF5PDRLKKASF3AFBG,1436,136180_-0.5833333333333333.png,6,98,live
389,A5FZ5GVLXECY1:3OS4RQUCRBMWXMF5PDRLKKASF3AFBG,1908,136220_0.022727272727272707.png,5,99,live
390,A5FZ5GVLXECY1:3OS4RQUCRBMWXMF5PDRLKKASF3AFBG,2386,136249_0.46212121212121215.png,6,101,live
391,A5FZ5GVLXECY1:3OS4RQUCRBMWXMF5PDRLKKASF3AFBG,2966,136190_-0.4318181818181818.png,5,102,live
392,A5FZ5GVLXECY1:3OS4RQUCRBMWXMF5PDRLKKASF3AFBG,1486,136210_-0.12878787878787878.png,6,103,live
393,A5FZ5GVLXECY1:3OS4RQUCRBMWXMF5PDRLKKASF3AFBG,1828,136224_0.08333333333333337.png,5,104,live
394,A5FZ5GVLXECY1:3OS4RQUCRBMWXMF5PDRLKKASF3AFBG,1774,136215_-0.05303030303030298.png,6,105,live
395,A5FZ5GVLXECY1:3OS4RQUCRBMWXMF5PDRLKKASF3AFBG,1797,136207_-0.1742424242424242.png,5,106,live
396,A5FZ5GVLXECY1:3OS4RQUCRBMWXMF5PDRLKKASF3AFBG,1750,136235_0.25.png,6,107,live
397,A5FZ5GVLXECY1:3OS4RQUCRBMWXMF5PDRLKKASF3AFBG,1765,136181_-0.5681818181818181.png,6,108,live
398,A5FZ5GVLXECY1:3OS4RQUCRBMWXMF5PDRLKKASF3AFBG,1355,136191_-0.41666666666666663.png,5,109,live
399,A5FZ5GVLXECY1:3OS4RQUCRBMWXMF5PDRLKKASF3AFBG,1814,136257_0.5833333333333335.png,6,110,live
400,A1ZOLH6MN0ZH9R:35LDD5557CB3WZBGHD8REDDRZYXMKG,5797,136238_0.2954545454545454.png,5,2,live
401,A1ZOLH6MN0ZH9R:35LDD5557CB3WZBGHD8REDDRZYXMKG,4463,136196_-0.3409090909090909.png,8,3,live
402,A1ZOLH6MN0ZH9R:35LDD5557CB3WZBGHD8REDDRZYXMKG,3086,136247_0.4318181818181819.png,7,4,live
403,A1ZOLH6MN0ZH9R:35LDD5557CB3WZBGHD8REDDRZYXMKG,2718,136231_0.18939393939393945.png,6,5,live
404,A1ZOLH6MN0ZH9R:35LDD5557CB3WZBGHD8REDDRZYXMKG,2911,136226_0.11363636363636365.png,4,6,live
405,A1ZOLH6MN0ZH9R:35LDD5557CB3WZBGHD8REDDRZYXMKG,3733,136178_-0.6136363636363636.png,7,7,live
406,A1ZOLH6MN0ZH9R:35LDD5557CB3WZBGHD8REDDRZYXMKG,5185,136192_-0.4015151515151515.png,6,8,live
407,A1ZOLH6MN0ZH9R:35LDD5557CB3WZBGHD8REDDRZYXMKG,5479,136207_-0.1742424242424242.png,7,9,live
408,A1ZOLH6MN0ZH9R:35LDD5557CB3WZBGHD8REDDRZYXMKG,3525,136176_-0.6439393939393939.png,8,10,live
409,A1ZOLH6MN0ZH9R:35LDD5557CB3WZBGHD8REDDRZYXMKG,25181,136225_0.09848484848484851.png,6,11,live
410,A1ZOLH6MN0ZH9R:35LDD5557CB3WZBGHD8REDDRZYXMKG,2400,136203_-0.23484848484848486.png,8,13,live
411,A1ZOLH6MN0ZH9R:35LDD5557CB3WZBGHD8REDDRZYXMKG,3943,136232_0.20454545454545459.png,4,14,live
412,A1ZOLH6MN0ZH9R:35LDD5557CB3WZBGHD8REDDRZYXMKG,2443,136253_0.5227272727272727.png,7,15,live
413,A1ZOLH6MN0ZH9R:35LDD5557CB3WZBGHD8REDDRZYXMKG,2278,136204_-0.21969696969696972.png,8,16,live
414,A1ZOLH6MN0ZH9R:35LDD5557CB3WZBGHD8REDDRZYXMKG,2547,136184_-0.5227272727272727.png,7,17,live
415,A1ZOLH6MN0ZH9R:35LDD5557CB3WZBGHD8REDDRZYXMKG,1769,136253_0.5227272727272727.png,6,18,live
416,A1ZOLH6MN0ZH9R:35LDD5557CB3WZBGHD8REDDRZYXMKG,1749,136251_0.49242424242424243.png,7,19,live
417,A1ZOLH6MN0ZH9R:35LDD5557CB3WZBGHD8REDDRZYXMKG,2499,136213_-0.08333333333333326.png,8,20,live
418,A1ZOLH6MN0ZH9R:35LDD5557CB3WZBGHD8REDDRZYXMKG,2208,136177_-0.6287878787878788.png,7,21,live
419,A1ZOLH6MN0ZH9R:35LDD5557CB3WZBGHD8REDDRZYXMKG,2347,136240_0.3257575757575757.png,7,22,live
420,A1ZOLH6MN0ZH9R:35LDD5557CB3WZBGHD8REDDRZYXMKG,3925,136259_0.6136363636363638.png,7,24,live
421,A1ZOLH6MN0ZH9R:35LDD5557CB3WZBGHD8REDDRZYXMKG,3764,136220_0.022727272727272707.png,8,25,live
422,A1ZOLH6MN0ZH9R:35LDD5557CB3WZBGHD8REDDRZYXMKG,2781,136258_0.5984848484848486.png,7,26,live
423,A1ZOLH6MN0ZH9R:35LDD5557CB3WZBGHD8REDDRZYXMKG,22469,136204_-0.21969696969696972.png,7,27,live
424,A1ZOLH6MN0ZH9R:35LDD5557CB3WZBGHD8REDDRZYXMKG,2991,136212_-0.09848484848484851.png,6,28,live
425,A1ZOLH6MN0ZH9R:35LDD5557CB3WZBGHD8REDDRZYXMKG,4253,136190_-0.4318181818181818.png,7,29,live
426,A1ZOLH6MN0ZH9R:35LDD5557CB3WZBGHD8REDDRZYXMKG,3279,136222_0.053030303030303094.png,6,30,live
427,A1ZOLH6MN0ZH9R:35LDD5557CB3WZBGHD8REDDRZYXMKG,3628,136216_-0.037878787878787845.png,6,31,live
428,A1ZOLH6MN0ZH9R:35LDD5557CB3WZBGHD8REDDRZYXMKG,2456,136183_-0.5378787878787878.png,6,32,live
429,A1ZOLH6MN0ZH9R:35LDD5557CB3WZBGHD8REDDRZYXMKG,2160,136195_-0.3560606060606061.png,6,33,live
430,A1ZOLH6MN0ZH9R:35LDD5557CB3WZBGHD8REDDRZYXMKG,49173,136209_-0.14393939393939392.png,7,35,live
431,A1ZOLH6MN0ZH9R:35LDD5557CB3WZBGHD8REDDRZYXMKG,5406,136266_0.7196969696969697.png,7,36,live
432,A1ZOLH6MN0ZH9R:35LDD5557CB3WZBGHD8REDDRZYXMKG,4174,136233_0.21969696969696972.png,7,37,live
433,A1ZOLH6MN0ZH9R:35LDD5557CB3WZBGHD8REDDRZYXMKG,2767,136248_0.446969696969697.png,7,38,live
434,A1ZOLH6MN0ZH9R:35LDD5557CB3WZBGHD8REDDRZYXMKG,12967,136191_-0.41666666666666663.png,4,39,live
435,A1ZOLH6MN0ZH9R:35LDD5557CB3WZBGHD8REDDRZYXMKG,60547,136193_-0.38636363636363635.png,7,40,live
436,A1ZOLH6MN0ZH9R:35LDD5557CB3WZBGHD8REDDRZYXMKG,2918,136208_-0.15909090909090906.png,4,41,live
437,A1ZOLH6MN0ZH9R:35LDD5557CB3WZBGHD8REDDRZYXMKG,3006,136236_0.26515151515151514.png,7,42,live
438,A1ZOLH6MN0ZH9R:35LDD5557CB3WZBGHD8REDDRZYXMKG,4032,136194_-0.3712121212121212.png,7,43,live
439,A1ZOLH6MN0ZH9R:35LDD5557CB3WZBGHD8REDDRZYXMKG,6174,136215_-0.05303030303030298.png,6,44,live
440,A1ZOLH6MN0ZH9R:35LDD5557CB3WZBGHD8REDDRZYXMKG,5507,136242_0.3560606060606062.png,8,46,live
441,A1ZOLH6MN0ZH9R:35LDD5557CB3WZBGHD8REDDRZYXMKG,5166,136176_-0.6439393939393939.png,7,47,live
442,A1ZOLH6MN0ZH9R:35LDD5557CB3WZBGHD8REDDRZYXMKG,4486,136263_0.6742424242424243.png,6,48,live
443,A1ZOLH6MN0ZH9R:35LDD5557CB3WZBGHD8REDDRZYXMKG,4749,136180_-0.5833333333333333.png,6,49,live
444,A1ZOLH6MN0ZH9R:35LDD5557CB3WZBGHD8REDDRZYXMKG,3565,136267_0.7348484848484849.png,7,50,live
445,A1ZOLH6MN0ZH9R:35LDD5557CB3WZBGHD8REDDRZYXMKG,2894,136187_-0.4772727272727273.png,6,51,live
446,A1ZOLH6MN0ZH9R:35LDD5557CB3WZBGHD8REDDRZYXMKG,3304,136266_0.7196969696969697.png,7,52,live
447,A1ZOLH6MN0ZH9R:35LDD5557CB3WZBGHD8REDDRZYXMKG,3051,136180_-0.5833333333333333.png,8,53,live
448,A1ZOLH6MN0ZH9R:35LDD5557CB3WZBGHD8REDDRZYXMKG,6122,136250_0.4772727272727273.png,5,54,live
449,A1ZOLH6MN0ZH9R:35LDD5557CB3WZBGHD8REDDRZYXMKG,4045,136194_-0.3712121212121212.png,8,55,live
450,A1ZOLH6MN0ZH9R:35LDD5557CB3WZBGHD8REDDRZYXMKG,5070,136199_-0.2954545454545454.png,7,57,live
451,A1ZOLH6MN0ZH9R:35LDD5557CB3WZBGHD8REDDRZYXMKG,5773,136260_0.6287878787878789.png,4,58,live
452,A1ZOLH6MN0ZH9R:35LDD5557CB3WZBGHD8REDDRZYXMKG,34262,136227_0.12878787878787878.png,7,59,live
453,A1ZOLH6MN0ZH9R:35LDD5557CB3WZBGHD8REDDRZYXMKG,4086,136202_-0.25.png,4,60,live
454,A1ZOLH6MN0ZH9R:35LDD5557CB3WZBGHD8REDDRZYXMKG,3558,136261_0.643939393939394.png,7,61,live
455,A1ZOLH6MN0ZH9R:35LDD5557CB3WZBGHD8REDDRZYXMKG,3303,136219_0.007575757575757569.png,6,62,live
456,A1ZOLH6MN0ZH9R:35LDD5557CB3WZBGHD8REDDRZYXMKG,2695,136265_0.7045454545454546.png,7,63,live
457,A1ZOLH6MN0ZH9R:35LDD5557CB3WZBGHD8REDDRZYXMKG,2661,136197_-0.32575757575757575.png,6,64,live
458,A1ZOLH6MN0ZH9R:35LDD5557CB3WZBGHD8REDDRZYXMKG,4046,136254_0.5378787878787878.png,7,65,live
459,A1ZOLH6MN0ZH9R:35LDD5557CB3WZBGHD8REDDRZYXMKG,2661,136264_0.6893939393939394.png,6,66,live
460,A1ZOLH6MN0ZH9R:35LDD5557CB3WZBGHD8REDDRZYXMKG,5022,136200_-0.2803030303030303.png,7,68,live
461,A1ZOLH6MN0ZH9R:35LDD5557CB3WZBGHD8REDDRZYXMKG,3084,136181_-0.5681818181818181.png,6,69,live
462,A1ZOLH6MN0ZH9R:35LDD5557CB3WZBGHD8REDDRZYXMKG,2461,136205_-0.20454545454545459.png,8,70,live
463,A1ZOLH6MN0ZH9R:35LDD5557CB3WZBGHD8REDDRZYXMKG,2006,136193_-0.38636363636363635.png,7,71,live
464,A1ZOLH6MN0ZH9R:35LDD5557CB3WZBGHD8REDDRZYXMKG,3366,136212_-0.09848484848484851.png,4,72,live
465,A1ZOLH6MN0ZH9R:35LDD5557CB3WZBGHD8REDDRZYXMKG,6190,136175_-0.6590909090909091.png,8,73,live
466,A1ZOLH6MN0ZH9R:35LDD5557CB3WZBGHD8REDDRZYXMKG,3334,136249_0.46212121212121215.png,7,74,live
467,A1ZOLH6MN0ZH9R:35LDD5557CB3WZBGHD8REDDRZYXMKG,2487,136184_-0.5227272727272727.png,6,75,live
468,A1ZOLH6MN0ZH9R:35LDD5557CB3WZBGHD8REDDRZYXMKG,4293,136172_-0.7045454545454546.png,7,76,live
469,A1ZOLH6MN0ZH9R:35LDD5557CB3WZBGHD8REDDRZYXMKG,2534,136256_0.5681818181818181.png,6,77,live
470,A1ZOLH6MN0ZH9R:35LDD5557CB3WZBGHD8REDDRZYXMKG,3405,136217_-0.022727272727272707.png,6,79,live
471,A1ZOLH6MN0ZH9R:35LDD5557CB3WZBGHD8REDDRZYXMKG,42013,136245_0.4015151515151516.png,7,80,live
472,A1ZOLH6MN0ZH9R:35LDD5557CB3WZBGHD8REDDRZYXMKG,4245,136200_-0.2803030303030303.png,7,81,live
473,A1ZOLH6MN0ZH9R:35LDD5557CB3WZBGHD8REDDRZYXMKG,2702,136267_0.7348484848484849.png,8,82,live
474,A1ZOLH6MN0ZH9R:35LDD5557CB3WZBGHD8REDDRZYXMKG,2702,136268_0.75.png,7,83,live
475,A1ZOLH6MN0ZH9R:35LDD5557CB3WZBGHD8REDDRZYXMKG,2599,136210_-0.12878787878787878.png,8,84,live
476,A1ZOLH6MN0ZH9R:35LDD5557CB3WZBGHD8REDDRZYXMKG,3661,136185_-0.5075757575757576.png,7,85,live
477,A1ZOLH6MN0ZH9R:35LDD5557CB3WZBGHD8REDDRZYXMKG,2232,136223_0.06818181818181823.png,8,86,live
478,A1ZOLH6MN0ZH9R:35LDD5557CB3WZBGHD8REDDRZYXMKG,2380,136230_0.1742424242424243.png,7,87,live
479,A1ZOLH6MN0ZH9R:35LDD5557CB3WZBGHD8REDDRZYXMKG,2190,136169_-0.75.png,6,88,live
480,A1ZOLH6MN0ZH9R:35LDD5557CB3WZBGHD8REDDRZYXMKG,1817,136224_0.08333333333333337.png,7,90,live
481,A1ZOLH6MN0ZH9R:35LDD5557CB3WZBGHD8REDDRZYXMKG,1783,136203_-0.23484848484848486.png,6,91,live
482,A1ZOLH6MN0ZH9R:35LDD5557CB3WZBGHD8REDDRZYXMKG,3758,136236_0.26515151515151514.png,4,92,live
483,A1ZOLH6MN0ZH9R:35LDD5557CB3WZBGHD8REDDRZYXMKG,7389,136249_0.46212121212121215.png,6,93,live
484,A1ZOLH6MN0ZH9R:35LDD5557CB3WZBGHD8REDDRZYXMKG,3326,136237_0.2803030303030303.png,8,94,live
485,A1ZOLH6MN0ZH9R:35LDD5557CB3WZBGHD8REDDRZYXMKG,2110,136173_-0.6893939393939394.png,7,95,live
486,A1ZOLH6MN0ZH9R:35LDD5557CB3WZBGHD8REDDRZYXMKG,4334,136245_0.4015151515151516.png,7,96,live
487,A1ZOLH6MN0ZH9R:35LDD5557CB3WZBGHD8REDDRZYXMKG,2590,136189_-0.44696969696969696.png,4,97,live
488,A1ZOLH6MN0ZH9R:35LDD5557CB3WZBGHD8REDDRZYXMKG,3248,136183_-0.5378787878787878.png,6,98,live
489,A1ZOLH6MN0ZH9R:35LDD5557CB3WZBGHD8REDDRZYXMKG,2543,136235_0.25.png,7,99,live
490,A1ZOLH6MN0ZH9R:35LDD5557CB3WZBGHD8REDDRZYXMKG,2061,136178_-0.6136363636363636.png,7,101,live
491,A1ZOLH6MN0ZH9R:35LDD5557CB3WZBGHD8REDDRZYXMKG,3909,136218_-0.007575757575757569.png,6,102,live
492,A1ZOLH6MN0ZH9R:35LDD5557CB3WZBGHD8REDDRZYXMKG,3807,136179_-0.5984848484848485.png,7,103,live
493,A1ZOLH6MN0ZH9R:35LDD5557CB3WZBGHD8REDDRZYXMKG,2961,136229_0.15909090909090917.png,7,104,live
494,A1ZOLH6MN0ZH9R:35LDD5557CB3WZBGHD8REDDRZYXMKG,7157,136257_0.5833333333333335.png,8,105,live
495,A1ZOLH6MN0ZH9R:35LDD5557CB3WZBGHD8REDDRZYXMKG,2791,136257_0.5833333333333335.png,7,106,live
496,A1ZOLH6MN0ZH9R:35LDD5557CB3WZBGHD8REDDRZYXMKG,3396,136216_-0.037878787878787845.png,4,107,live
497,A1ZOLH6MN0ZH9R:35LDD5557CB3WZBGHD8REDDRZYXMKG,2094,136258_0.5984848484848486.png,7,108,live
498,A1ZOLH6MN0ZH9R:35LDD5557CB3WZBGHD8REDDRZYXMKG,1757,136262_0.6590909090909092.png,6,109,live
499,A1ZOLH6MN0ZH9R:35LDD5557CB3WZBGHD8REDDRZYXMKG,2198,136255_0.553030303030303.png,7,110,live
500,ASZSPKARH2RXY:3XLBSAQ9Z6JF0R3FD89CIA4E8IG7ZD,4151,136256_0.5681818181818181.png,3,2,live
501,ASZSPKARH2RXY:3XLBSAQ9Z6JF0R3FD89CIA4E8IG7ZD,2091,136209_-0.14393939393939392.png,2,3,live
502,ASZSPKARH2RXY:3XLBSAQ9Z6JF0R3FD89CIA4E8IG7ZD,1711,136266_0.7196969696969697.png,1,4,live
503,ASZSPKARH2RXY:3XLBSAQ9Z6JF0R3FD89CIA4E8IG7ZD,3774,136245_0.4015151515151516.png,2,5,live
504,ASZSPKARH2RXY:3XLBSAQ9Z6JF0R3FD89CIA4E8IG7ZD,2204,136176_-0.6439393939393939.png,5,6,live
505,ASZSPKARH2RXY:3XLBSAQ9Z6JF0R3FD89CIA4E8IG7ZD,1871,136204_-0.21969696969696972.png,2,7,live
506,ASZSPKARH2RXY:3XLBSAQ9Z6JF0R3FD89CIA4E8IG7ZD,2118,136232_0.20454545454545459.png,3,8,live
507,ASZSPKARH2RXY:3XLBSAQ9Z6JF0R3FD89CIA4E8IG7ZD,1606,136220_0.022727272727272707.png,1,9,live
508,ASZSPKARH2RXY:3XLBSAQ9Z6JF0R3FD89CIA4E8IG7ZD,2183,136262_0.6590909090909092.png,2,10,live
509,ASZSPKARH2RXY:3XLBSAQ9Z6JF0R3FD89CIA4E8IG7ZD,1120,136255_0.553030303030303.png,2,11,live
510,ASZSPKARH2RXY:3XLBSAQ9Z6JF0R3FD89CIA4E8IG7ZD,2077,136263_0.6742424242424243.png,3,13,live
511,ASZSPKARH2RXY:3XLBSAQ9Z6JF0R3FD89CIA4E8IG7ZD,2289,136181_-0.5681818181818181.png,4,14,live
512,ASZSPKARH2RXY:3XLBSAQ9Z6JF0R3FD89CIA4E8IG7ZD,1996,136222_0.053030303030303094.png,6,15,live
513,ASZSPKARH2RXY:3XLBSAQ9Z6JF0R3FD89CIA4E8IG7ZD,1712,136184_-0.5227272727272727.png,4,16,live
514,ASZSPKARH2RXY:3XLBSAQ9Z6JF0R3FD89CIA4E8IG7ZD,1611,136194_-0.3712121212121212.png,4,17,live
515,ASZSPKARH2RXY:3XLBSAQ9Z6JF0R3FD89CIA4E8IG7ZD,1265,136212_-0.09848484848484851.png,4,18,live
516,ASZSPKARH2RXY:3XLBSAQ9Z6JF0R3FD89CIA4E8IG7ZD,1286,136265_0.7045454545454546.png,4,19,live
517,ASZSPKARH2RXY:3XLBSAQ9Z6JF0R3FD89CIA4E8IG7ZD,1088,136193_-0.38636363636363635.png,4,20,live
518,ASZSPKARH2RXY:3XLBSAQ9Z6JF0R3FD89CIA4E8IG7ZD,1571,136236_0.26515151515151514.png,4,21,live
519,ASZSPKARH2RXY:3XLBSAQ9Z6JF0R3FD89CIA4E8IG7ZD,1851,136264_0.6893939393939394.png,3,22,live
520,ASZSPKARH2RXY:3XLBSAQ9Z6JF0R3FD89CIA4E8IG7ZD,2055,136207_-0.1742424242424242.png,3,24,live
521,ASZSPKARH2RXY:3XLBSAQ9Z6JF0R3FD89CIA4E8IG7ZD,1983,136191_-0.41666666666666663.png,4,25,live
522,ASZSPKARH2RXY:3XLBSAQ9Z6JF0R3FD89CIA4E8IG7ZD,1571,136245_0.4015151515151516.png,4,26,live
523,ASZSPKARH2RXY:3XLBSAQ9Z6JF0R3FD89CIA4E8IG7ZD,4618,136185_-0.5075757575757576.png,1,27,live
524,ASZSPKARH2RXY:3XLBSAQ9Z6JF0R3FD89CIA4E8IG7ZD,2378,136216_-0.037878787878787845.png,1,28,live
525,ASZSPKARH2RXY:3XLBSAQ9Z6JF0R3FD89CIA4E8IG7ZD,1753,136258_0.5984848484848486.png,1,29,live
526,ASZSPKARH2RXY:3XLBSAQ9Z6JF0R3FD89CIA4E8IG7ZD,1074,136251_0.49242424242424243.png,1,30,live
527,ASZSPKARH2RXY:3XLBSAQ9Z6JF0R3FD89CIA4E8IG7ZD,1536,136213_-0.08333333333333326.png,2,31,live
528,ASZSPKARH2RXY:3XLBSAQ9Z6JF0R3FD89CIA4E8IG7ZD,2059,136249_0.46212121212121215.png,3,32,live
529,ASZSPKARH2RXY:3XLBSAQ9Z6JF0R3FD89CIA4E8IG7ZD,1936,136189_-0.44696969696969696.png,4,33,live
530,ASZSPKARH2RXY:3XLBSAQ9Z6JF0R3FD89CIA4E8IG7ZD,2731,136258_0.5984848484848486.png,1,35,live
531,ASZSPKARH2RXY:3XLBSAQ9Z6JF0R3FD89CIA4E8IG7ZD,2048,136178_-0.6136363636363636.png,1,36,live
532,ASZSPKARH2RXY:3XLBSAQ9Z6JF0R3FD89CIA4E8IG7ZD,1606,136169_-0.75.png,1,37,live
533,ASZSPKARH2RXY:3XLBSAQ9Z6JF0R3FD89CIA4E8IG7ZD,4291,136176_-0.6439393939393939.png,2,38,live
534,ASZSPKARH2RXY:3XLBSAQ9Z6JF0R3FD89CIA4E8IG7ZD,1802,136219_0.007575757575757569.png,1,39,live
535,ASZSPKARH2RXY:3XLBSAQ9Z6JF0R3FD89CIA4E8IG7ZD,1992,136259_0.6136363636363638.png,1,40,live
536,ASZSPKARH2RXY:3XLBSAQ9Z6JF0R3FD89CIA4E8IG7ZD,1120,136247_0.4318181818181819.png,1,41,live
537,ASZSPKARH2RXY:3XLBSAQ9Z6JF0R3FD89CIA4E8IG7ZD,1064,136173_-0.6893939393939394.png,1,42,live
538,ASZSPKARH2RXY:3XLBSAQ9Z6JF0R3FD89CIA4E8IG7ZD,1395,136257_0.5833333333333335.png,1,43,live
539,ASZSPKARH2RXY:3XLBSAQ9Z6JF0R3FD89CIA4E8IG7ZD,3192,136261_0.643939393939394.png,2,44,live
540,ASZSPKARH2RXY:3XLBSAQ9Z6JF0R3FD89CIA4E8IG7ZD,2396,136230_0.1742424242424243.png,1,46,live
541,ASZSPKARH2RXY:3XLBSAQ9Z6JF0R3FD89CIA4E8IG7ZD,2675,136257_0.5833333333333335.png,2,47,live
542,ASZSPKARH2RXY:3XLBSAQ9Z6JF0R3FD89CIA4E8IG7ZD,1387,136180_-0.5833333333333333.png,1,48,live
543,ASZSPKARH2RXY:3XLBSAQ9Z6JF0R3FD89CIA4E8IG7ZD,3965,136200_-0.2803030303030303.png,1,49,live
544,ASZSPKARH2RXY:3XLBSAQ9Z6JF0R3FD89CIA4E8IG7ZD,1926,136204_-0.21969696969696972.png,1,50,live
545,ASZSPKARH2RXY:3XLBSAQ9Z6JF0R3FD89CIA4E8IG7ZD,1465,136236_0.26515151515151514.png,3,51,live
546,ASZSPKARH2RXY:3XLBSAQ9Z6JF0R3FD89CIA4E8IG7ZD,1364,136253_0.5227272727272727.png,3,52,live
547,ASZSPKARH2RXY:3XLBSAQ9Z6JF0R3FD89CIA4E8IG7ZD,1722,136231_0.18939393939393945.png,4,53,live
548,ASZSPKARH2RXY:3XLBSAQ9Z6JF0R3FD89CIA4E8IG7ZD,2324,136197_-0.32575757575757575.png,3,54,live
549,ASZSPKARH2RXY:3XLBSAQ9Z6JF0R3FD89CIA4E8IG7ZD,1652,136215_-0.05303030303030298.png,1,55,live
550,ASZSPKARH2RXY:3XLBSAQ9Z6JF0R3FD89CIA4E8IG7ZD,2573,136248_0.446969696969697.png,2,57,live
551,ASZSPKARH2RXY:3XLBSAQ9Z6JF0R3FD89CIA4E8IG7ZD,2594,136203_-0.23484848484848486.png,1,58,live
552,ASZSPKARH2RXY:3XLBSAQ9Z6JF0R3FD89CIA4E8IG7ZD,1085,136268_0.75.png,1,59,live
553,ASZSPKARH2RXY:3XLBSAQ9Z6JF0R3FD89CIA4E8IG7ZD,1040,136237_0.2803030303030303.png,1,60,live
554,ASZSPKARH2RXY:3XLBSAQ9Z6JF0R3FD89CIA4E8IG7ZD,1758,136266_0.7196969696969697.png,1,61,live
555,ASZSPKARH2RXY:3XLBSAQ9Z6JF0R3FD89CIA4E8IG7ZD,2474,136187_-0.4772727272727273.png,2,62,live
556,ASZSPKARH2RXY:3XLBSAQ9Z6JF0R3FD89CIA4E8IG7ZD,2610,136205_-0.20454545454545459.png,2,63,live
557,ASZSPKARH2RXY:3XLBSAQ9Z6JF0R3FD89CIA4E8IG7ZD,2418,136260_0.6287878787878789.png,4,64,live
558,ASZSPKARH2RXY:3XLBSAQ9Z6JF0R3FD89CIA4E8IG7ZD,2028,136184_-0.5227272727272727.png,4,65,live
559,ASZSPKARH2RXY:3XLBSAQ9Z6JF0R3FD89CIA4E8IG7ZD,2253,136242_0.3560606060606062.png,1,66,live
560,ASZSPKARH2RXY:3XLBSAQ9Z6JF0R3FD89CIA4E8IG7ZD,2057,136210_-0.12878787878787878.png,2,68,live
561,ASZSPKARH2RXY:3XLBSAQ9Z6JF0R3FD89CIA4E8IG7ZD,1538,136267_0.7348484848484849.png,2,69,live
562,ASZSPKARH2RXY:3XLBSAQ9Z6JF0R3FD89CIA4E8IG7ZD,1727,136175_-0.6590909090909091.png,2,70,live
563,ASZSPKARH2RXY:3XLBSAQ9Z6JF0R3FD89CIA4E8IG7ZD,1384,136190_-0.4318181818181818.png,1,71,live
564,ASZSPKARH2RXY:3XLBSAQ9Z6JF0R3FD89CIA4E8IG7ZD,2407,136217_-0.022727272727272707.png,4,72,live
565,ASZSPKARH2RXY:3XLBSAQ9Z6JF0R3FD89CIA4E8IG7ZD,3669,136223_0.06818181818181823.png,1,73,live
566,ASZSPKARH2RXY:3XLBSAQ9Z6JF0R3FD89CIA4E8IG7ZD,2165,136226_0.11363636363636365.png,5,74,live
567,ASZSPKARH2RXY:3XLBSAQ9Z6JF0R3FD89CIA4E8IG7ZD,1769,136194_-0.3712121212121212.png,3,75,live
568,ASZSPKARH2RXY:3XLBSAQ9Z6JF0R3FD89CIA4E8IG7ZD,4610,136216_-0.037878787878787845.png,1,76,live
569,ASZSPKARH2RXY:3XLBSAQ9Z6JF0R3FD89CIA4E8IG7ZD,1739,136179_-0.5984848484848485.png,2,77,live
570,ASZSPKARH2RXY:3XLBSAQ9Z6JF0R3FD89CIA4E8IG7ZD,1961,136192_-0.4015151515151515.png,3,79,live
571,ASZSPKARH2RXY:3XLBSAQ9Z6JF0R3FD89CIA4E8IG7ZD,2161,136208_-0.15909090909090906.png,2,80,live
572,ASZSPKARH2RXY:3XLBSAQ9Z6JF0R3FD89CIA4E8IG7ZD,1316,136172_-0.7045454545454546.png,2,81,live
573,ASZSPKARH2RXY:3XLBSAQ9Z6JF0R3FD89CIA4E8IG7ZD,1512,136180_-0.5833333333333333.png,1,82,live
574,ASZSPKARH2RXY:3XLBSAQ9Z6JF0R3FD89CIA4E8IG7ZD,1840,136199_-0.2954545454545454.png,2,83,live
575,ASZSPKARH2RXY:3XLBSAQ9Z6JF0R3FD89CIA4E8IG7ZD,1912,136177_-0.6287878787878788.png,3,84,live
576,ASZSPKARH2RXY:3XLBSAQ9Z6JF0R3FD89CIA4E8IG7ZD,1281,136203_-0.23484848484848486.png,1,85,live
577,ASZSPKARH2RXY:3XLBSAQ9Z6JF0R3FD89CIA4E8IG7ZD,4064,136193_-0.38636363636363635.png,2,86,live
578,ASZSPKARH2RXY:3XLBSAQ9Z6JF0R3FD89CIA4E8IG7ZD,1729,136227_0.12878787878787878.png,1,87,live
579,ASZSPKARH2RXY:3XLBSAQ9Z6JF0R3FD89CIA4E8IG7ZD,2586,136235_0.25.png,1,88,live
580,ASZSPKARH2RXY:3XLBSAQ9Z6JF0R3FD89CIA4E8IG7ZD,1680,136254_0.5378787878787878.png,3,90,live
581,ASZSPKARH2RXY:3XLBSAQ9Z6JF0R3FD89CIA4E8IG7ZD,1853,136218_-0.007575757575757569.png,4,91,live
582,ASZSPKARH2RXY:3XLBSAQ9Z6JF0R3FD89CIA4E8IG7ZD,1970,136183_-0.5378787878787878.png,3,92,live
583,ASZSPKARH2RXY:3XLBSAQ9Z6JF0R3FD89CIA4E8IG7ZD,1204,136267_0.7348484848484849.png,3,93,live
584,ASZSPKARH2RXY:3XLBSAQ9Z6JF0R3FD89CIA4E8IG7ZD,2019,136178_-0.6136363636363636.png,1,94,live
585,ASZSPKARH2RXY:3XLBSAQ9Z6JF0R3FD89CIA4E8IG7ZD,1330,136224_0.08333333333333337.png,1,95,live
586,ASZSPKARH2RXY:3XLBSAQ9Z6JF0R3FD89CIA4E8IG7ZD,2131,136250_0.4772727272727273.png,4,96,live
587,ASZSPKARH2RXY:3XLBSAQ9Z6JF0R3FD89CIA4E8IG7ZD,1657,136196_-0.3409090909090909.png,1,97,live
588,ASZSPKARH2RXY:3XLBSAQ9Z6JF0R3FD89CIA4E8IG7ZD,4292,136200_-0.2803030303030303.png,1,98,live
589,ASZSPKARH2RXY:3XLBSAQ9Z6JF0R3FD89CIA4E8IG7ZD,3098,136202_-0.25.png,6,99,live
590,ASZSPKARH2RXY:3XLBSAQ9Z6JF0R3FD89CIA4E8IG7ZD,2045,136240_0.3257575757575757.png,2,101,live
591,ASZSPKARH2RXY:3XLBSAQ9Z6JF0R3FD89CIA4E8IG7ZD,1511,136253_0.5227272727272727.png,1,102,live
592,ASZSPKARH2RXY:3XLBSAQ9Z6JF0R3FD89CIA4E8IG7ZD,1418,136249_0.46212121212121215.png,3,103,live
593,ASZSPKARH2RXY:3XLBSAQ9Z6JF0R3FD89CIA4E8IG7ZD,1685,136212_-0.09848484848484851.png,3,104,live
594,ASZSPKARH2RXY:3XLBSAQ9Z6JF0R3FD89CIA4E8IG7ZD,1849,136225_0.09848484848484851.png,1,105,live
595,ASZSPKARH2RXY:3XLBSAQ9Z6JF0R3FD89CIA4E8IG7ZD,1199,136229_0.15909090909090917.png,1,106,live
596,ASZSPKARH2RXY:3XLBSAQ9Z6JF0R3FD89CIA4E8IG7ZD,1187,136233_0.21969696969696972.png,1,107,live
597,ASZSPKARH2RXY:3XLBSAQ9Z6JF0R3FD89CIA4E8IG7ZD,1272,136238_0.2954545454545454.png,1,108,live
598,ASZSPKARH2RXY:3XLBSAQ9Z6JF0R3FD89CIA4E8IG7ZD,1090,136195_-0.3560606060606061.png,1,109,live
599,ASZSPKARH2RXY:3XLBSAQ9Z6JF0R3FD89CIA4E8IG7ZD,1138,136183_-0.5378787878787878.png,1,110,live
600,AOJOJXMFTB22L:351SEKWQS2OVIT56PWM4A0I1FPYMD1,3587,136194_-0.3712121212121212.png,8,2,live
601,AOJOJXMFTB22L:351SEKWQS2OVIT56PWM4A0I1FPYMD1,2413,136265_0.7045454545454546.png,8,3,live
602,AOJOJXMFTB22L:351SEKWQS2OVIT56PWM4A0I1FPYMD1,2053,136200_-0.2803030303030303.png,9,4,live
603,AOJOJXMFTB22L:351SEKWQS2OVIT56PWM4A0I1FPYMD1,2205,136242_0.3560606060606062.png,8,5,live
604,AOJOJXMFTB22L:351SEKWQS2OVIT56PWM4A0I1FPYMD1,2278,136229_0.15909090909090917.png,8,6,live
605,AOJOJXMFTB22L:351SEKWQS2OVIT56PWM4A0I1FPYMD1,1934,136227_0.12878787878787878.png,9,7,live
606,AOJOJXMFTB22L:351SEKWQS2OVIT56PWM4A0I1FPYMD1,2774,136212_-0.09848484848484851.png,8,8,live
607,AOJOJXMFTB22L:351SEKWQS2OVIT56PWM4A0I1FPYMD1,1534,136193_-0.38636363636363635.png,7,9,live
608,AOJOJXMFTB22L:351SEKWQS2OVIT56PWM4A0I1FPYMD1,1534,136224_0.08333333333333337.png,8,10,live
609,AOJOJXMFTB22L:351SEKWQS2OVIT56PWM4A0I1FPYMD1,2566,136250_0.4772727272727273.png,8,11,live
610,AOJOJXMFTB22L:351SEKWQS2OVIT56PWM4A0I1FPYMD1,4407,136216_-0.037878787878787845.png,8,13,live
611,AOJOJXMFTB22L:351SEKWQS2OVIT56PWM4A0I1FPYMD1,8965,136169_-0.75.png,9,14,live
612,AOJOJXMFTB22L:351SEKWQS2OVIT56PWM4A0I1FPYMD1,3246,136209_-0.14393939393939392.png,8,15,live
613,AOJOJXMFTB22L:351SEKWQS2OVIT56PWM4A0I1FPYMD1,9871,136253_0.5227272727272727.png,8,16,live
614,AOJOJXMFTB22L:351SEKWQS2OVIT56PWM4A0I1FPYMD1,1718,136264_0.6893939393939394.png,8,17,live
615,AOJOJXMFTB22L:351SEKWQS2OVIT56PWM4A0I1FPYMD1,1638,136218_-0.007575757575757569.png,8,18,live
616,AOJOJXMFTB22L:351SEKWQS2OVIT56PWM4A0I1FPYMD1,1974,136181_-0.5681818181818181.png,8,19,live
617,AOJOJXMFTB22L:351SEKWQS2OVIT56PWM4A0I1FPYMD1,2799,136257_0.5833333333333335.png,8,20,live
618,AOJOJXMFTB22L:351SEKWQS2OVIT56PWM4A0I1FPYMD1,1830,136176_-0.6439393939393939.png,8,21,live
619,AOJOJXMFTB22L:351SEKWQS2OVIT56PWM4A0I1FPYMD1,1982,136238_0.2954545454545454.png,8,22,live
620,AOJOJXMFTB22L:351SEKWQS2OVIT56PWM4A0I1FPYMD1,2404,136235_0.25.png,9,24,live
621,AOJOJXMFTB22L:351SEKWQS2OVIT56PWM4A0I1FPYMD1,2518,136222_0.053030303030303094.png,8,25,live
622,AOJOJXMFTB22L:351SEKWQS2OVIT56PWM4A0I1FPYMD1,1662,136257_0.5833333333333335.png,7,26,live
623,AOJOJXMFTB22L:351SEKWQS2OVIT56PWM4A0I1FPYMD1,1678,136202_-0.25.png,8,27,live
624,AOJOJXMFTB22L:351SEKWQS2OVIT56PWM4A0I1FPYMD1,3262,136217_-0.022727272727272707.png,8,28,live
625,AOJOJXMFTB22L:351SEKWQS2OVIT56PWM4A0I1FPYMD1,2094,136256_0.5681818181818181.png,9,29,live
626,AOJOJXMFTB22L:351SEKWQS2OVIT56PWM4A0I1FPYMD1,2534,136268_0.75.png,6,30,live
627,AOJOJXMFTB22L:351SEKWQS2OVIT56PWM4A0I1FPYMD1,1550,136175_-0.6590909090909091.png,7,31,live
628,AOJOJXMFTB22L:351SEKWQS2OVIT56PWM4A0I1FPYMD1,1670,136261_0.643939393939394.png,8,32,live
629,AOJOJXMFTB22L:351SEKWQS2OVIT56PWM4A0I1FPYMD1,1630,136249_0.46212121212121215.png,9,33,live
630,AOJOJXMFTB22L:351SEKWQS2OVIT56PWM4A0I1FPYMD1,2349,136258_0.5984848484848486.png,7,35,live
631,AOJOJXMFTB22L:351SEKWQS2OVIT56PWM4A0I1FPYMD1,1525,136255_0.553030303030303.png,8,36,live
632,AOJOJXMFTB22L:351SEKWQS2OVIT56PWM4A0I1FPYMD1,1775,136204_-0.21969696969696972.png,8,37,live
633,AOJOJXMFTB22L:351SEKWQS2OVIT56PWM4A0I1FPYMD1,1926,136259_0.6136363636363638.png,9,38,live
634,AOJOJXMFTB22L:351SEKWQS2OVIT56PWM4A0I1FPYMD1,1446,136232_0.20454545454545459.png,8,39,live
635,AOJOJXMFTB22L:351SEKWQS2OVIT56PWM4A0I1FPYMD1,1702,136180_-0.5833333333333333.png,9,40,live
636,AOJOJXMFTB22L:351SEKWQS2OVIT56PWM4A0I1FPYMD1,1662,136178_-0.6136363636363636.png,9,41,live
637,AOJOJXMFTB22L:351SEKWQS2OVIT56PWM4A0I1FPYMD1,2341,136200_-0.2803030303030303.png,9,42,live
638,AOJOJXMFTB22L:351SEKWQS2OVIT56PWM4A0I1FPYMD1,2150,136254_0.5378787878787878.png,8,43,live
639,AOJOJXMFTB22L:351SEKWQS2OVIT56PWM4A0I1FPYMD1,2262,136173_-0.6893939393939394.png,8,44,live
640,AOJOJXMFTB22L:351SEKWQS2OVIT56PWM4A0I1FPYMD1,2085,136203_-0.23484848484848486.png,8,46,live
641,AOJOJXMFTB22L:351SEKWQS2OVIT56PWM4A0I1FPYMD1,1821,136184_-0.5227272727272727.png,8,47,live
642,AOJOJXMFTB22L:351SEKWQS2OVIT56PWM4A0I1FPYMD1,1877,136203_-0.23484848484848486.png,9,48,live
643,AOJOJXMFTB22L:351SEKWQS2OVIT56PWM4A0I1FPYMD1,2030,136194_-0.3712121212121212.png,8,49,live
644,AOJOJXMFTB22L:351SEKWQS2OVIT56PWM4A0I1FPYMD1,2030,136215_-0.05303030303030298.png,9,50,live
645,AOJOJXMFTB22L:351SEKWQS2OVIT56PWM4A0I1FPYMD1,1910,136247_0.4318181818181819.png,8,51,live
646,AOJOJXMFTB22L:351SEKWQS2OVIT56PWM4A0I1FPYMD1,2015,136213_-0.08333333333333326.png,8,52,live
647,AOJOJXMFTB22L:351SEKWQS2OVIT56PWM4A0I1FPYMD1,1934,136196_-0.3409090909090909.png,9,53,live
648,AOJOJXMFTB22L:351SEKWQS2OVIT56PWM4A0I1FPYMD1,1438,136208_-0.15909090909090906.png,8,54,live
649,AOJOJXMFTB22L:351SEKWQS2OVIT56PWM4A0I1FPYMD1,1518,136249_0.46212121212121215.png,8,55,live
650,AOJOJXMFTB22L:351SEKWQS2OVIT56PWM4A0I1FPYMD1,2104,136236_0.26515151515151514.png,8,57,live
651,AOJOJXMFTB22L:351SEKWQS2OVIT56PWM4A0I1FPYMD1,2102,136262_0.6590909090909092.png,9,58,live
652,AOJOJXMFTB22L:351SEKWQS2OVIT56PWM4A0I1FPYMD1,1647,136192_-0.4015151515151515.png,7,59,live
653,AOJOJXMFTB22L:351SEKWQS2OVIT56PWM4A0I1FPYMD1,1342,136195_-0.3560606060606061.png,8,60,live
654,AOJOJXMFTB22L:351SEKWQS2OVIT56PWM4A0I1FPYMD1,2013,136178_-0.6136363636363636.png,7,61,live
655,AOJOJXMFTB22L:351SEKWQS2OVIT56PWM4A0I1FPYMD1,1581,136176_-0.6439393939393939.png,8,62,live
656,AOJOJXMFTB22L:351SEKWQS2OVIT56PWM4A0I1FPYMD1,2007,136231_0.18939393939393945.png,8,63,live
657,AOJOJXMFTB22L:351SEKWQS2OVIT56PWM4A0I1FPYMD1,1517,136179_-0.5984848484848485.png,8,64,live
658,AOJOJXMFTB22L:351SEKWQS2OVIT56PWM4A0I1FPYMD1,2015,136219_0.007575757575757569.png,8,65,live
659,AOJOJXMFTB22L:351SEKWQS2OVIT56PWM4A0I1FPYMD1,1533,136204_-0.21969696969696972.png,7,66,live
660,AOJOJXMFTB22L:351SEKWQS2OVIT56PWM4A0I1FPYMD1,1997,136187_-0.4772727272727273.png,8,68,live
661,AOJOJXMFTB22L:351SEKWQS2OVIT56PWM4A0I1FPYMD1,1644,136210_-0.12878787878787878.png,8,69,live
662,AOJOJXMFTB22L:351SEKWQS2OVIT56PWM4A0I1FPYMD1,2685,136236_0.26515151515151514.png,7,70,live
663,AOJOJXMFTB22L:351SEKWQS2OVIT56PWM4A0I1FPYMD1,1606,136191_-0.41666666666666663.png,8,71,live
664,AOJOJXMFTB22L:351SEKWQS2OVIT56PWM4A0I1FPYMD1,1294,136185_-0.5075757575757576.png,7,72,live
665,AOJOJXMFTB22L:351SEKWQS2OVIT56PWM4A0I1FPYMD1,1902,136267_0.7348484848484849.png,8,73,live
666,AOJOJXMFTB22L:351SEKWQS2OVIT56PWM4A0I1FPYMD1,2062,136258_0.5984848484848486.png,7,74,live
667,AOJOJXMFTB22L:351SEKWQS2OVIT56PWM4A0I1FPYMD1,1526,136189_-0.44696969696969696.png,7,75,live
668,AOJOJXMFTB22L:351SEKWQS2OVIT56PWM4A0I1FPYMD1,1854,136240_0.3257575757575757.png,8,76,live
669,AOJOJXMFTB22L:351SEKWQS2OVIT56PWM4A0I1FPYMD1,1869,136267_0.7348484848484849.png,7,77,live
670,AOJOJXMFTB22L:351SEKWQS2OVIT56PWM4A0I1FPYMD1,2518,136190_-0.4318181818181818.png,8,79,live
671,AOJOJXMFTB22L:351SEKWQS2OVIT56PWM4A0I1FPYMD1,2125,136205_-0.20454545454545459.png,7,80,live
672,AOJOJXMFTB22L:351SEKWQS2OVIT56PWM4A0I1FPYMD1,1519,136220_0.022727272727272707.png,8,81,live
673,AOJOJXMFTB22L:351SEKWQS2OVIT56PWM4A0I1FPYMD1,1689,136207_-0.1742424242424242.png,7,82,live
674,AOJOJXMFTB22L:351SEKWQS2OVIT56PWM4A0I1FPYMD1,1565,136183_-0.5378787878787878.png,7,83,live
675,AOJOJXMFTB22L:351SEKWQS2OVIT56PWM4A0I1FPYMD1,2630,136263_0.6742424242424243.png,8,84,live
676,AOJOJXMFTB22L:351SEKWQS2OVIT56PWM4A0I1FPYMD1,2792,136266_0.7196969696969697.png,7,85,live
677,AOJOJXMFTB22L:351SEKWQS2OVIT56PWM4A0I1FPYMD1,1551,136183_-0.5378787878787878.png,8,86,live
678,AOJOJXMFTB22L:351SEKWQS2OVIT56PWM4A0I1FPYMD1,1501,136266_0.7196969696969697.png,7,87,live
679,AOJOJXMFTB22L:351SEKWQS2OVIT56PWM4A0I1FPYMD1,1574,136245_0.4015151515151516.png,8,88,live
680,AOJOJXMFTB22L:351SEKWQS2OVIT56PWM4A0I1FPYMD1,1852,136253_0.5227272727272727.png,8,90,live
681,AOJOJXMFTB22L:351SEKWQS2OVIT56PWM4A0I1FPYMD1,1334,136212_-0.09848484848484851.png,8,91,live
682,AOJOJXMFTB22L:351SEKWQS2OVIT56PWM4A0I1FPYMD1,1709,136223_0.06818181818181823.png,9,92,live
683,AOJOJXMFTB22L:351SEKWQS2OVIT56PWM4A0I1FPYMD1,1734,136233_0.21969696969696972.png,6,93,live
684,AOJOJXMFTB22L:351SEKWQS2OVIT56PWM4A0I1FPYMD1,1270,136237_0.2803030303030303.png,7,94,live
685,AOJOJXMFTB22L:351SEKWQS2OVIT56PWM4A0I1FPYMD1,1565,136248_0.446969696969697.png,5,95,live
686,AOJOJXMFTB22L:351SEKWQS2OVIT56PWM4A0I1FPYMD1,1286,136197_-0.32575757575757575.png,6,96,live
687,AOJOJXMFTB22L:351SEKWQS2OVIT56PWM4A0I1FPYMD1,1549,136260_0.6287878787878789.png,7,97,live
688,AOJOJXMFTB22L:351SEKWQS2OVIT56PWM4A0I1FPYMD1,1038,136172_-0.7045454545454546.png,6,98,live
689,AOJOJXMFTB22L:351SEKWQS2OVIT56PWM4A0I1FPYMD1,1358,136225_0.09848484848484851.png,7,99,live
690,AOJOJXMFTB22L:351SEKWQS2OVIT56PWM4A0I1FPYMD1,2716,136180_-0.5833333333333333.png,7,101,live
691,AOJOJXMFTB22L:351SEKWQS2OVIT56PWM4A0I1FPYMD1,1654,136199_-0.2954545454545454.png,8,102,live
692,AOJOJXMFTB22L:351SEKWQS2OVIT56PWM4A0I1FPYMD1,1637,136230_0.1742424242424243.png,8,103,live
693,AOJOJXMFTB22L:351SEKWQS2OVIT56PWM4A0I1FPYMD1,1870,136177_-0.6287878787878788.png,7,104,live
694,AOJOJXMFTB22L:351SEKWQS2OVIT56PWM4A0I1FPYMD1,1854,136226_0.11363636363636365.png,8,105,live
695,AOJOJXMFTB22L:351SEKWQS2OVIT56PWM4A0I1FPYMD1,1630,136184_-0.5227272727272727.png,7,106,live
696,AOJOJXMFTB22L:351SEKWQS2OVIT56PWM4A0I1FPYMD1,3126,136251_0.49242424242424243.png,8,107,live
697,AOJOJXMFTB22L:351SEKWQS2OVIT56PWM4A0I1FPYMD1,2661,136245_0.4015151515151516.png,8,108,live
698,AOJOJXMFTB22L:351SEKWQS2OVIT56PWM4A0I1FPYMD1,1678,136216_-0.037878787878787845.png,8,109,live
699,AOJOJXMFTB22L:351SEKWQS2OVIT56PWM4A0I1FPYMD1,1917,136193_-0.38636363636363635.png,8,110,live
700,A2IPN3YPD207EY:3A1COHJ8NL2X9K84HRVBW3W4NC8H8N,8063,136245_0.4015151515151516.png,7,2,live
701,A2IPN3YPD207EY:3A1COHJ8NL2X9K84HRVBW3W4NC8H8N,3865,136187_-0.4772727272727273.png,6,3,live
702,A2IPN3YPD207EY:3A1COHJ8NL2X9K84HRVBW3W4NC8H8N,4229,136224_0.08333333333333337.png,5,4,live
703,A2IPN3YPD207EY:3A1COHJ8NL2X9K84HRVBW3W4NC8H8N,6145,136249_0.46212121212121215.png,7,5,live
704,A2IPN3YPD207EY:3A1COHJ8NL2X9K84HRVBW3W4NC8H8N,4643,136258_0.5984848484848486.png,7,6,live
705,A2IPN3YPD207EY:3A1COHJ8NL2X9K84HRVBW3W4NC8H8N,6540,136191_-0.41666666666666663.png,7,7,live
706,A2IPN3YPD207EY:3A1COHJ8NL2X9K84HRVBW3W4NC8H8N,3496,136178_-0.6136363636363636.png,4,8,live
707,A2IPN3YPD207EY:3A1COHJ8NL2X9K84HRVBW3W4NC8H8N,4225,136235_0.25.png,6,9,live
708,A2IPN3YPD207EY:3A1COHJ8NL2X9K84HRVBW3W4NC8H8N,5608,136176_-0.6439393939393939.png,6,10,live
709,A2IPN3YPD207EY:3A1COHJ8NL2X9K84HRVBW3W4NC8H8N,4253,136260_0.6287878787878789.png,5,11,live
710,A2IPN3YPD207EY:3A1COHJ8NL2X9K84HRVBW3W4NC8H8N,8233,136208_-0.15909090909090906.png,9,13,live
711,A2IPN3YPD207EY:3A1COHJ8NL2X9K84HRVBW3W4NC8H8N,2943,136216_-0.037878787878787845.png,6,14,live
712,A2IPN3YPD207EY:3A1COHJ8NL2X9K84HRVBW3W4NC8H8N,3637,136204_-0.21969696969696972.png,5,15,live
713,A2IPN3YPD207EY:3A1COHJ8NL2X9K84HRVBW3W4NC8H8N,3447,136215_-0.05303030303030298.png,5,16,live
714,A2IPN3YPD207EY:3A1COHJ8NL2X9K84HRVBW3W4NC8H8N,3006,136200_-0.2803030303030303.png,7,17,live
715,A2IPN3YPD207EY:3A1COHJ8NL2X9K84HRVBW3W4NC8H8N,2976,136210_-0.12878787878787878.png,7,18,live
716,A2IPN3YPD207EY:3A1COHJ8NL2X9K84HRVBW3W4NC8H8N,3764,136245_0.4015151515151516.png,7,19,live
717,A2IPN3YPD207EY:3A1COHJ8NL2X9K84HRVBW3W4NC8H8N,3048,136254_0.5378787878787878.png,8,20,live
718,A2IPN3YPD207EY:3A1COHJ8NL2X9K84HRVBW3W4NC8H8N,3078,136230_0.1742424242424243.png,7,21,live
719,A2IPN3YPD207EY:3A1COHJ8NL2X9K84HRVBW3W4NC8H8N,2778,136204_-0.21969696969696972.png,6,22,live
720,A2IPN3YPD207EY:3A1COHJ8NL2X9K84HRVBW3W4NC8H8N,19238,136251_0.49242424242424243.png,5,24,live
721,A2IPN3YPD207EY:3A1COHJ8NL2X9K84HRVBW3W4NC8H8N,3326,136202_-0.25.png,6,25,live
722,A2IPN3YPD207EY:3A1COHJ8NL2X9K84HRVBW3W4NC8H8N,3783,136223_0.06818181818181823.png,7,26,live
723,A2IPN3YPD207EY:3A1COHJ8NL2X9K84HRVBW3W4NC8H8N,3722,136218_-0.007575757575757569.png,7,27,live
724,A2IPN3YPD207EY:3A1COHJ8NL2X9K84HRVBW3W4NC8H8N,4268,136193_-0.38636363636363635.png,6,28,live
725,A2IPN3YPD207EY:3A1COHJ8NL2X9K84HRVBW3W4NC8H8N,3108,136178_-0.6136363636363636.png,7,29,live
726,A2IPN3YPD207EY:3A1COHJ8NL2X9K84HRVBW3W4NC8H8N,3456,136179_-0.5984848484848485.png,8,30,live
727,A2IPN3YPD207EY:3A1COHJ8NL2X9K84HRVBW3W4NC8H8N,4070,136229_0.15909090909090917.png,8,31,live
728,A2IPN3YPD207EY:3A1COHJ8NL2X9K84HRVBW3W4NC8H8N,3575,136217_-0.022727272727272707.png,8,32,live
729,A2IPN3YPD207EY:3A1COHJ8NL2X9K84HRVBW3W4NC8H8N,2953,136261_0.643939393939394.png,6,33,live
730,A2IPN3YPD207EY:3A1COHJ8NL2X9K84HRVBW3W4NC8H8N,5166,136190_-0.4318181818181818.png,6,35,live
731,A2IPN3YPD207EY:3A1COHJ8NL2X9K84HRVBW3W4NC8H8N,2693,136181_-0.5681818181818181.png,7,36,live
732,A2IPN3YPD207EY:3A1COHJ8NL2X9K84HRVBW3W4NC8H8N,2976,136238_0.2954545454545454.png,6,37,live
733,A2IPN3YPD207EY:3A1COHJ8NL2X9K84HRVBW3W4NC8H8N,2496,136183_-0.5378787878787878.png,6,38,live
734,A2IPN3YPD207EY:3A1COHJ8NL2X9K84HRVBW3W4NC8H8N,2889,136225_0.09848484848484851.png,5,39,live
735,A2IPN3YPD207EY:3A1COHJ8NL2X9K84HRVBW3W4NC8H8N,2777,136212_-0.09848484848484851.png,7,40,live
736,A2IPN3YPD207EY:3A1COHJ8NL2X9K84HRVBW3W4NC8H8N,4203,136194_-0.3712121212121212.png,7,41,live
737,A2IPN3YPD207EY:3A1COHJ8NL2X9K84HRVBW3W4NC8H8N,2709,136253_0.5227272727272727.png,7,42,live
738,A2IPN3YPD207EY:3A1COHJ8NL2X9K84HRVBW3W4NC8H8N,4956,136256_0.5681818181818181.png,6,43,live
739,A2IPN3YPD207EY:3A1COHJ8NL2X9K84HRVBW3W4NC8H8N,3191,136195_-0.3560606060606061.png,6,44,live
740,A2IPN3YPD207EY:3A1COHJ8NL2X9K84HRVBW3W4NC8H8N,5550,136203_-0.23484848484848486.png,5,46,live
741,A2IPN3YPD207EY:3A1COHJ8NL2X9K84HRVBW3W4NC8H8N,3059,136263_0.6742424242424243.png,6,47,live
742,A2IPN3YPD207EY:3A1COHJ8NL2X9K84HRVBW3W4NC8H8N,3145,136169_-0.75.png,6,48,live
743,A2IPN3YPD207EY:3A1COHJ8NL2X9K84HRVBW3W4NC8H8N,1866,136236_0.26515151515151514.png,7,49,live
744,A2IPN3YPD207EY:3A1COHJ8NL2X9K84HRVBW3W4NC8H8N,4058,136249_0.46212121212121215.png,7,50,live
745,A2IPN3YPD207EY:3A1COHJ8NL2X9K84HRVBW3W4NC8H8N,2655,136200_-0.2803030303030303.png,6,51,live
746,A2IPN3YPD207EY:3A1COHJ8NL2X9K84HRVBW3W4NC8H8N,2287,136237_0.2803030303030303.png,8,52,live
747,A2IPN3YPD207EY:3A1COHJ8NL2X9K84HRVBW3W4NC8H8N,2676,136196_-0.3409090909090909.png,7,53,live
748,A2IPN3YPD207EY:3A1COHJ8NL2X9K84HRVBW3W4NC8H8N,2890,136213_-0.08333333333333326.png,7,54,live
749,A2IPN3YPD207EY:3A1COHJ8NL2X9K84HRVBW3W4NC8H8N,2562,136177_-0.6287878787878788.png,6,55,live
750,A2IPN3YPD207EY:3A1COHJ8NL2X9K84HRVBW3W4NC8H8N,6995,136266_0.7196969696969697.png,6,57,live
751,A2IPN3YPD207EY:3A1COHJ8NL2X9K84HRVBW3W4NC8H8N,4033,136242_0.3560606060606062.png,6,58,live
752,A2IPN3YPD207EY:3A1COHJ8NL2X9K84HRVBW3W4NC8H8N,3955,136250_0.4772727272727273.png,6,59,live
753,A2IPN3YPD207EY:3A1COHJ8NL2X9K84HRVBW3W4NC8H8N,4994,136255_0.553030303030303.png,6,60,live
754,A2IPN3YPD207EY:3A1COHJ8NL2X9K84HRVBW3W4NC8H8N,2784,136220_0.022727272727272707.png,7,61,live
755,A2IPN3YPD207EY:3A1COHJ8NL2X9K84HRVBW3W4NC8H8N,3622,136253_0.5227272727272727.png,7,62,live
756,A2IPN3YPD207EY:3A1COHJ8NL2X9K84HRVBW3W4NC8H8N,4262,136222_0.053030303030303094.png,5,63,live
757,A2IPN3YPD207EY:3A1COHJ8NL2X9K84HRVBW3W4NC8H8N,4031,136227_0.12878787878787878.png,6,64,live
758,A2IPN3YPD207EY:3A1COHJ8NL2X9K84HRVBW3W4NC8H8N,3209,136212_-0.09848484848484851.png,7,65,live
759,A2IPN3YPD207EY:3A1COHJ8NL2X9K84HRVBW3W4NC8H8N,3134,136233_0.21969696969696972.png,6,66,live
760,A2IPN3YPD207EY:3A1COHJ8NL2X9K84HRVBW3W4NC8H8N,24331,136172_-0.7045454545454546.png,5,68,live
761,A2IPN3YPD207EY:3A1COHJ8NL2X9K84HRVBW3W4NC8H8N,2384,136216_-0.037878787878787845.png,6,69,live
762,A2IPN3YPD207EY:3A1COHJ8NL2X9K84HRVBW3W4NC8H8N,2614,136266_0.7196969696969697.png,5,70,live
763,A2IPN3YPD207EY:3A1COHJ8NL2X9K84HRVBW3W4NC8H8N,2379,136257_0.5833333333333335.png,7,71,live
764,A2IPN3YPD207EY:3A1COHJ8NL2X9K84HRVBW3W4NC8H8N,16699,136240_0.3257575757575757.png,6,72,live
765,A2IPN3YPD207EY:3A1COHJ8NL2X9K84HRVBW3W4NC8H8N,4888,136194_-0.3712121212121212.png,7,73,live
766,A2IPN3YPD207EY:3A1COHJ8NL2X9K84HRVBW3W4NC8H8N,3051,136205_-0.20454545454545459.png,5,74,live
767,A2IPN3YPD207EY:3A1COHJ8NL2X9K84HRVBW3W4NC8H8N,4227,136262_0.6590909090909092.png,7,75,live
768,A2IPN3YPD207EY:3A1COHJ8NL2X9K84HRVBW3W4NC8H8N,4872,136189_-0.44696969696969696.png,8,76,live
769,A2IPN3YPD207EY:3A1COHJ8NL2X9K84HRVBW3W4NC8H8N,3377,136267_0.7348484848484849.png,7,77,live
770,A2IPN3YPD207EY:3A1COHJ8NL2X9K84HRVBW3W4NC8H8N,8625,136219_0.007575757575757569.png,7,79,live
771,A2IPN3YPD207EY:3A1COHJ8NL2X9K84HRVBW3W4NC8H8N,4938,136226_0.11363636363636365.png,8,80,live
772,A2IPN3YPD207EY:3A1COHJ8NL2X9K84HRVBW3W4NC8H8N,3817,136231_0.18939393939393945.png,7,81,live
773,A2IPN3YPD207EY:3A1COHJ8NL2X9K84HRVBW3W4NC8H8N,3816,136199_-0.2954545454545454.png,8,82,live
774,A2IPN3YPD207EY:3A1COHJ8NL2X9K84HRVBW3W4NC8H8N,7319,136268_0.75.png,8,83,live
775,A2IPN3YPD207EY:3A1COHJ8NL2X9K84HRVBW3W4NC8H8N,4690,136183_-0.5378787878787878.png,7,84,live
776,A2IPN3YPD207EY:3A1COHJ8NL2X9K84HRVBW3W4NC8H8N,7463,136247_0.4318181818181819.png,7,85,live
777,A2IPN3YPD207EY:3A1COHJ8NL2X9K84HRVBW3W4NC8H8N,3655,136180_-0.5833333333333333.png,8,86,live
778,A2IPN3YPD207EY:3A1COHJ8NL2X9K84HRVBW3W4NC8H8N,6164,136180_-0.5833333333333333.png,8,87,live
779,A2IPN3YPD207EY:3A1COHJ8NL2X9K84HRVBW3W4NC8H8N,3964,136176_-0.6439393939393939.png,7,88,live
780,A2IPN3YPD207EY:3A1COHJ8NL2X9K84HRVBW3W4NC8H8N,6117,136264_0.6893939393939394.png,5,90,live
781,A2IPN3YPD207EY:3A1COHJ8NL2X9K84HRVBW3W4NC8H8N,5550,136173_-0.6893939393939394.png,7,91,live
782,A2IPN3YPD207EY:3A1COHJ8NL2X9K84HRVBW3W4NC8H8N,2483,136257_0.5833333333333335.png,6,92,live
783,A2IPN3YPD207EY:3A1COHJ8NL2X9K84HRVBW3W4NC8H8N,4197,136267_0.7348484848484849.png,7,93,live
784,A2IPN3YPD207EY:3A1COHJ8NL2X9K84HRVBW3W4NC8H8N,3064,136265_0.7045454545454546.png,7,94,live
785,A2IPN3YPD207EY:3A1COHJ8NL2X9K84HRVBW3W4NC8H8N,3193,136203_-0.23484848484848486.png,6,95,live
786,A2IPN3YPD207EY:3A1COHJ8NL2X9K84HRVBW3W4NC8H8N,3482,136184_-0.5227272727272727.png,6,96,live
787,A2IPN3YPD207EY:3A1COHJ8NL2X9K84HRVBW3W4NC8H8N,3539,136209_-0.14393939393939392.png,6,97,live
788,A2IPN3YPD207EY:3A1COHJ8NL2X9K84HRVBW3W4NC8H8N,5452,136259_0.6136363636363638.png,8,98,live
789,A2IPN3YPD207EY:3A1COHJ8NL2X9K84HRVBW3W4NC8H8N,3927,136207_-0.1742424242424242.png,7,99,live
790,A2IPN3YPD207EY:3A1COHJ8NL2X9K84HRVBW3W4NC8H8N,3338,136248_0.446969696969697.png,7,101,live
791,A2IPN3YPD207EY:3A1COHJ8NL2X9K84HRVBW3W4NC8H8N,3309,136192_-0.4015151515151515.png,7,102,live
792,A2IPN3YPD207EY:3A1COHJ8NL2X9K84HRVBW3W4NC8H8N,3304,136184_-0.5227272727272727.png,6,103,live
793,A2IPN3YPD207EY:3A1COHJ8NL2X9K84HRVBW3W4NC8H8N,4557,136232_0.20454545454545459.png,7,104,live
794,A2IPN3YPD207EY:3A1COHJ8NL2X9K84HRVBW3W4NC8H8N,2892,136236_0.26515151515151514.png,7,105,live
795,A2IPN3YPD207EY:3A1COHJ8NL2X9K84HRVBW3W4NC8H8N,2769,136185_-0.5075757575757576.png,6,106,live
796,A2IPN3YPD207EY:3A1COHJ8NL2X9K84HRVBW3W4NC8H8N,2817,136193_-0.38636363636363635.png,8,107,live
797,A2IPN3YPD207EY:3A1COHJ8NL2X9K84HRVBW3W4NC8H8N,2945,136175_-0.6590909090909091.png,8,108,live
798,A2IPN3YPD207EY:3A1COHJ8NL2X9K84HRVBW3W4NC8H8N,4236,136258_0.5984848484848486.png,6,109,live
799,A2IPN3YPD207EY:3A1COHJ8NL2X9K84HRVBW3W4NC8H8N,3772,136197_-0.32575757575757575.png,6,110,live
800,A40EVDAYIE99X:3X66WABAJYPX8R7NL4IXKMCSSQ3G3V,5944,136184_-0.5227272727272727.png,6,2,live
801,A40EVDAYIE99X:3X66WABAJYPX8R7NL4IXKMCSSQ3G3V,2591,136179_-0.5984848484848485.png,7,3,live
802,A40EVDAYIE99X:3X66WABAJYPX8R7NL4IXKMCSSQ3G3V,5906,136216_-0.037878787878787845.png,1,4,live
803,A40EVDAYIE99X:3X66WABAJYPX8R7NL4IXKMCSSQ3G3V,4742,136255_0.553030303030303.png,2,5,live
804,A40EVDAYIE99X:3X66WABAJYPX8R7NL4IXKMCSSQ3G3V,5933,136262_0.6590909090909092.png,2,6,live
805,A40EVDAYIE99X:3X66WABAJYPX8R7NL4IXKMCSSQ3G3V,3485,136229_0.15909090909090917.png,2,7,live
806,A40EVDAYIE99X:3X66WABAJYPX8R7NL4IXKMCSSQ3G3V,3187,136220_0.022727272727272707.png,1,8,live
807,A40EVDAYIE99X:3X66WABAJYPX8R7NL4IXKMCSSQ3G3V,3067,136189_-0.44696969696969696.png,2,9,live
808,A40EVDAYIE99X:3X66WABAJYPX8R7NL4IXKMCSSQ3G3V,7724,136257_0.5833333333333335.png,2,10,live
809,A40EVDAYIE99X:3X66WABAJYPX8R7NL4IXKMCSSQ3G3V,3110,136191_-0.41666666666666663.png,1,11,live
810,A40EVDAYIE99X:3X66WABAJYPX8R7NL4IXKMCSSQ3G3V,7020,136261_0.643939393939394.png,9,13,live
811,A40EVDAYIE99X:3X66WABAJYPX8R7NL4IXKMCSSQ3G3V,5978,136180_-0.5833333333333333.png,3,14,live
812,A40EVDAYIE99X:3X66WABAJYPX8R7NL4IXKMCSSQ3G3V,2994,136215_-0.05303030303030298.png,4,15,live
813,A40EVDAYIE99X:3X66WABAJYPX8R7NL4IXKMCSSQ3G3V,3230,136225_0.09848484848484851.png,4,16,live
814,A40EVDAYIE99X:3X66WABAJYPX8R7NL4IXKMCSSQ3G3V,2316,136263_0.6742424242424243.png,4,17,live
815,A40EVDAYIE99X:3X66WABAJYPX8R7NL4IXKMCSSQ3G3V,2321,136251_0.49242424242424243.png,3,18,live
816,A40EVDAYIE99X:3X66WABAJYPX8R7NL4IXKMCSSQ3G3V,2127,136169_-0.75.png,4,19,live
817,A40EVDAYIE99X:3X66WABAJYPX8R7NL4IXKMCSSQ3G3V,5931,136266_0.7196969696969697.png,2,20,live
818,A40EVDAYIE99X:3X66WABAJYPX8R7NL4IXKMCSSQ3G3V,1940,136235_0.25.png,2,21,live
819,A40EVDAYIE99X:3X66WABAJYPX8R7NL4IXKMCSSQ3G3V,2690,136200_-0.2803030303030303.png,3,22,live
820,A40EVDAYIE99X:3X66WABAJYPX8R7NL4IXKMCSSQ3G3V,4923,136178_-0.6136363636363636.png,3,24,live
821,A40EVDAYIE99X:3X66WABAJYPX8R7NL4IXKMCSSQ3G3V,3981,136248_0.446969696969697.png,3,25,live
822,A40EVDAYIE99X:3X66WABAJYPX8R7NL4IXKMCSSQ3G3V,1772,136197_-0.32575757575757575.png,3,26,live
823,A40EVDAYIE99X:3X66WABAJYPX8R7NL4IXKMCSSQ3G3V,1841,136268_0.75.png,3,27,live
824,A40EVDAYIE99X:3X66WABAJYPX8R7NL4IXKMCSSQ3G3V,1552,136180_-0.5833333333333333.png,2,28,live
825,A40EVDAYIE99X:3X66WABAJYPX8R7NL4IXKMCSSQ3G3V,2766,136237_0.2803030303030303.png,3,29,live
826,A40EVDAYIE99X:3X66WABAJYPX8R7NL4IXKMCSSQ3G3V,2434,136195_-0.3560606060606061.png,4,30,live
827,A40EVDAYIE99X:3X66WABAJYPX8R7NL4IXKMCSSQ3G3V,1837,136209_-0.14393939393939392.png,5,31,live
828,A40EVDAYIE99X:3X66WABAJYPX8R7NL4IXKMCSSQ3G3V,1699,136192_-0.4015151515151515.png,4,32,live
829,A40EVDAYIE99X:3X66WABAJYPX8R7NL4IXKMCSSQ3G3V,1665,136213_-0.08333333333333326.png,3,33,live
830,A40EVDAYIE99X:3X66WABAJYPX8R7NL4IXKMCSSQ3G3V,2720,136265_0.7045454545454546.png,6,35,live
831,A40EVDAYIE99X:3X66WABAJYPX8R7NL4IXKMCSSQ3G3V,1977,136183_-0.5378787878787878.png,5,36,live
832,A40EVDAYIE99X:3X66WABAJYPX8R7NL4IXKMCSSQ3G3V,1957,136231_0.18939393939393945.png,4,37,live
833,A40EVDAYIE99X:3X66WABAJYPX8R7NL4IXKMCSSQ3G3V,1478,136245_0.4015151515151516.png,3,38,live
834,A40EVDAYIE99X:3X66WABAJYPX8R7NL4IXKMCSSQ3G3V,1939,136204_-0.21969696969696972.png,4,39,live
835,A40EVDAYIE99X:3X66WABAJYPX8R7NL4IXKMCSSQ3G3V,2273,136173_-0.6893939393939394.png,5,40,live
836,A40EVDAYIE99X:3X66WABAJYPX8R7NL4IXKMCSSQ3G3V,1752,136266_0.7196969696969697.png,4,41,live
837,A40EVDAYIE99X:3X66WABAJYPX8R7NL4IXKMCSSQ3G3V,3684,136249_0.46212121212121215.png,3,42,live
838,A40EVDAYIE99X:3X66WABAJYPX8R7NL4IXKMCSSQ3G3V,2207,136253_0.5227272727272727.png,2,43,live
839,A40EVDAYIE99X:3X66WABAJYPX8R7NL4IXKMCSSQ3G3V,2164,136194_-0.3712121212121212.png,3,44,live
840,A40EVDAYIE99X:3X66WABAJYPX8R7NL4IXKMCSSQ3G3V,2904,136258_0.5984848484848486.png,5,46,live
841,A40EVDAYIE99X:3X66WABAJYPX8R7NL4IXKMCSSQ3G3V,2260,136238_0.2954545454545454.png,3,47,live
842,A40EVDAYIE99X:3X66WABAJYPX8R7NL4IXKMCSSQ3G3V,1928,136224_0.08333333333333337.png,4,48,live
843,A40EVDAYIE99X:3X66WABAJYPX8R7NL4IXKMCSSQ3G3V,1561,136172_-0.7045454545454546.png,3,49,live
844,A40EVDAYIE99X:3X66WABAJYPX8R7NL4IXKMCSSQ3G3V,3292,136222_0.053030303030303094.png,5,50,live
845,A40EVDAYIE99X:3X66WABAJYPX8R7NL4IXKMCSSQ3G3V,4300,136227_0.12878787878787878.png,2,51,live
846,A40EVDAYIE99X:3X66WABAJYPX8R7NL4IXKMCSSQ3G3V,2119,136219_0.007575757575757569.png,3,52,live
847,A40EVDAYIE99X:3X66WABAJYPX8R7NL4IXKMCSSQ3G3V,1836,136240_0.3257575757575757.png,2,53,live
848,A40EVDAYIE99X:3X66WABAJYPX8R7NL4IXKMCSSQ3G3V,2014,136178_-0.6136363636363636.png,3,54,live
849,A40EVDAYIE99X:3X66WABAJYPX8R7NL4IXKMCSSQ3G3V,1566,136236_0.26515151515151514.png,4,55,live
850,A40EVDAYIE99X:3X66WABAJYPX8R7NL4IXKMCSSQ3G3V,3718,136267_0.7348484848484849.png,3,57,live
851,A40EVDAYIE99X:3X66WABAJYPX8R7NL4IXKMCSSQ3G3V,1868,136267_0.7348484848484849.png,4,58,live
852,A40EVDAYIE99X:3X66WABAJYPX8R7NL4IXKMCSSQ3G3V,1685,136181_-0.5681818181818181.png,3,59,live
853,A40EVDAYIE99X:3X66WABAJYPX8R7NL4IXKMCSSQ3G3V,4252,136202_-0.25.png,2,60,live
854,A40EVDAYIE99X:3X66WABAJYPX8R7NL4IXKMCSSQ3G3V,1916,136205_-0.20454545454545459.png,3,61,live
855,A40EVDAYIE99X:3X66WABAJYPX8R7NL4IXKMCSSQ3G3V,2626,136254_0.5378787878787878.png,2,62,live
856,A40EVDAYIE99X:3X66WABAJYPX8R7NL4IXKMCSSQ3G3V,2138,136176_-0.6439393939393939.png,2,63,live
857,A40EVDAYIE99X:3X66WABAJYPX8R7NL4IXKMCSSQ3G3V,1858,136250_0.4772727272727273.png,3,64,live
858,A40EVDAYIE99X:3X66WABAJYPX8R7NL4IXKMCSSQ3G3V,3149,136184_-0.5227272727272727.png,2,65,live
859,A40EVDAYIE99X:3X66WABAJYPX8R7NL4IXKMCSSQ3G3V,1508,136253_0.5227272727272727.png,3,66,live
860,A40EVDAYIE99X:3X66WABAJYPX8R7NL4IXKMCSSQ3G3V,2548,136258_0.5984848484848486.png,4,68,live
861,A40EVDAYIE99X:3X66WABAJYPX8R7NL4IXKMCSSQ3G3V,2245,136260_0.6287878787878789.png,3,69,live
862,A40EVDAYIE99X:3X66WABAJYPX8R7NL4IXKMCSSQ3G3V,8879,136193_-0.38636363636363635.png,2,70,live
863,A40EVDAYIE99X:3X66WABAJYPX8R7NL4IXKMCSSQ3G3V,2885,136218_-0.007575757575757569.png,3,71,live
864,A40EVDAYIE99X:3X66WABAJYPX8R7NL4IXKMCSSQ3G3V,3183,136200_-0.2803030303030303.png,2,72,live
865,A40EVDAYIE99X:3X66WABAJYPX8R7NL4IXKMCSSQ3G3V,2529,136247_0.4318181818181819.png,3,73,live
866,A40EVDAYIE99X:3X66WABAJYPX8R7NL4IXKMCSSQ3G3V,1836,136199_-0.2954545454545454.png,2,74,live
867,A40EVDAYIE99X:3X66WABAJYPX8R7NL4IXKMCSSQ3G3V,2227,136212_-0.09848484848484851.png,3,75,live
868,A40EVDAYIE99X:3X66WABAJYPX8R7NL4IXKMCSSQ3G3V,2067,136210_-0.12878787878787878.png,4,76,live
869,A40EVDAYIE99X:3X66WABAJYPX8R7NL4IXKMCSSQ3G3V,1934,136204_-0.21969696969696972.png,3,77,live
870,A40EVDAYIE99X:3X66WABAJYPX8R7NL4IXKMCSSQ3G3V,5212,136257_0.5833333333333335.png,2,79,live
871,A40EVDAYIE99X:3X66WABAJYPX8R7NL4IXKMCSSQ3G3V,1551,136216_-0.037878787878787845.png,3,80,live
872,A40EVDAYIE99X:3X66WABAJYPX8R7NL4IXKMCSSQ3G3V,1710,136256_0.5681818181818181.png,2,81,live
873,A40EVDAYIE99X:3X66WABAJYPX8R7NL4IXKMCSSQ3G3V,3774,136187_-0.4772727272727273.png,3,82,live
874,A40EVDAYIE99X:3X66WABAJYPX8R7NL4IXKMCSSQ3G3V,2818,136245_0.4015151515151516.png,3,83,live
875,A40EVDAYIE99X:3X66WABAJYPX8R7NL4IXKMCSSQ3G3V,4246,136203_-0.23484848484848486.png,2,84,live
876,A40EVDAYIE99X:3X66WABAJYPX8R7NL4IXKMCSSQ3G3V,2449,136190_-0.4318181818181818.png,3,85,live
877,A40EVDAYIE99X:3X66WABAJYPX8R7NL4IXKMCSSQ3G3V,2154,136176_-0.6439393939393939.png,4,86,live
878,A40EVDAYIE99X:3X66WABAJYPX8R7NL4IXKMCSSQ3G3V,4139,136194_-0.3712121212121212.png,2,87,live
879,A40EVDAYIE99X:3X66WABAJYPX8R7NL4IXKMCSSQ3G3V,1513,136183_-0.5378787878787878.png,3,88,live
880,A40EVDAYIE99X:3X66WABAJYPX8R7NL4IXKMCSSQ3G3V,3607,136193_-0.38636363636363635.png,5,90,live
881,A40EVDAYIE99X:3X66WABAJYPX8R7NL4IXKMCSSQ3G3V,1465,136230_0.1742424242424243.png,4,91,live
882,A40EVDAYIE99X:3X66WABAJYPX8R7NL4IXKMCSSQ3G3V,1524,136203_-0.23484848484848486.png,3,92,live
883,A40EVDAYIE99X:3X66WABAJYPX8R7NL4IXKMCSSQ3G3V,2017,136236_0.26515151515151514.png,2,93,live
884,A40EVDAYIE99X:3X66WABAJYPX8R7NL4IXKMCSSQ3G3V,3486,136207_-0.1742424242424242.png,3,94,live
885,A40EVDAYIE99X:3X66WABAJYPX8R7NL4IXKMCSSQ3G3V,2743,136212_-0.09848484848484851.png,4,95,live
886,A40EVDAYIE99X:3X66WABAJYPX8R7NL4IXKMCSSQ3G3V,2921,136233_0.21969696969696972.png,1,96,live
887,A40EVDAYIE99X:3X66WABAJYPX8R7NL4IXKMCSSQ3G3V,2215,136232_0.20454545454545459.png,2,97,live
888,A40EVDAYIE99X:3X66WABAJYPX8R7NL4IXKMCSSQ3G3V,2425,136185_-0.5075757575757576.png,3,98,live
889,A40EVDAYIE99X:3X66WABAJYPX8R7NL4IXKMCSSQ3G3V,3612,136208_-0.15909090909090906.png,2,99,live
890,A40EVDAYIE99X:3X66WABAJYPX8R7NL4IXKMCSSQ3G3V,2617,136177_-0.6287878787878788.png,2,101,live
891,A40EVDAYIE99X:3X66WABAJYPX8R7NL4IXKMCSSQ3G3V,1860,136217_-0.022727272727272707.png,3,102,live
892,A40EVDAYIE99X:3X66WABAJYPX8R7NL4IXKMCSSQ3G3V,2072,136249_0.46212121212121215.png,4,103,live
893,A40EVDAYIE99X:3X66WABAJYPX8R7NL4IXKMCSSQ3G3V,2258,136223_0.06818181818181823.png,3,104,live
894,A40EVDAYIE99X:3X66WABAJYPX8R7NL4IXKMCSSQ3G3V,2720,136242_0.3560606060606062.png,2,105,live
895,A40EVDAYIE99X:3X66WABAJYPX8R7NL4IXKMCSSQ3G3V,5415,136259_0.6136363636363638.png,1,106,live
896,A40EVDAYIE99X:3X66WABAJYPX8R7NL4IXKMCSSQ3G3V,4132,136264_0.6893939393939394.png,2,107,live
897,A40EVDAYIE99X:3X66WABAJYPX8R7NL4IXKMCSSQ3G3V,3489,136175_-0.6590909090909091.png,3,108,live
898,A40EVDAYIE99X:3X66WABAJYPX8R7NL4IXKMCSSQ3G3V,2379,136196_-0.3409090909090909.png,4,109,live
899,A40EVDAYIE99X:3X66WABAJYPX8R7NL4IXKMCSSQ3G3V,2749,136226_0.11363636363636365.png,2,110,live
900,A1SSKWS5L20II8:3PM8NZGV80N01E8F8PUXLG5Y58DQX0,2883,136189_-0.44696969696969696.png,9,2,live
901,A1SSKWS5L20II8:3PM8NZGV80N01E8F8PUXLG5Y58DQX0,2525,136235_0.25.png,3,3,live
902,A1SSKWS5L20II8:3PM8NZGV80N01E8F8PUXLG5Y58DQX0,3222,136216_-0.037878787878787845.png,6,4,live
903,A1SSKWS5L20II8:3PM8NZGV80N01E8F8PUXLG5Y58DQX0,3424,136229_0.15909090909090917.png,4,5,live
904,A1SSKWS5L20II8:3PM8NZGV80N01E8F8PUXLG5Y58DQX0,4166,136194_-0.3712121212121212.png,8,6,live
905,A1SSKWS5L20II8:3PM8NZGV80N01E8F8PUXLG5Y58DQX0,2477,136180_-0.5833333333333333.png,7,7,live
906,A1SSKWS5L20II8:3PM8NZGV80N01E8F8PUXLG5Y58DQX0,3279,136261_0.643939393939394.png,6,8,live
907,A1SSKWS5L20II8:3PM8NZGV80N01E8F8PUXLG5Y58DQX0,3014,136259_0.6136363636363638.png,2,9,live
908,A1SSKWS5L20II8:3PM8NZGV80N01E8F8PUXLG5Y58DQX0,2807,136209_-0.14393939393939392.png,9,10,live
909,A1SSKWS5L20II8:3PM8NZGV80N01E8F8PUXLG5Y58DQX0,2502,136177_-0.6287878787878788.png,5,11,live
910,A1SSKWS5L20II8:3PM8NZGV80N01E8F8PUXLG5Y58DQX0,3412,136207_-0.1742424242424242.png,5,13,live
911,A1SSKWS5L20II8:3PM8NZGV80N01E8F8PUXLG5Y58DQX0,2902,136192_-0.4015151515151515.png,8,14,live
912,A1SSKWS5L20II8:3PM8NZGV80N01E8F8PUXLG5Y58DQX0,2989,136213_-0.08333333333333326.png,9,15,live
913,A1SSKWS5L20II8:3PM8NZGV80N01E8F8PUXLG5Y58DQX0,2726,136178_-0.6136363636363636.png,8,16,live
914,A1SSKWS5L20II8:3PM8NZGV80N01E8F8PUXLG5Y58DQX0,3745,136238_0.2954545454545454.png,2,17,live
915,A1SSKWS5L20II8:3PM8NZGV80N01E8F8PUXLG5Y58DQX0,3086,136208_-0.15909090909090906.png,9,18,live
916,A1SSKWS5L20II8:3PM8NZGV80N01E8F8PUXLG5Y58DQX0,2111,136185_-0.5075757575757576.png,3,19,live
917,A1SSKWS5L20II8:3PM8NZGV80N01E8F8PUXLG5Y58DQX0,3750,136263_0.6742424242424243.png,8,20,live
918,A1SSKWS5L20II8:3PM8NZGV80N01E8F8PUXLG5Y58DQX0,3158,136268_0.75.png,6,21,live
919,A1SSKWS5L20II8:3PM8NZGV80N01E8F8PUXLG5Y58DQX0,2829,136204_-0.21969696969696972.png,9,22,live
920,A1SSKWS5L20II8:3PM8NZGV80N01E8F8PUXLG5Y58DQX0,3942,136266_0.7196969696969697.png,7,24,live
921,A1SSKWS5L20II8:3PM8NZGV80N01E8F8PUXLG5Y58DQX0,6742,136237_0.2803030303030303.png,7,25,live
922,A1SSKWS5L20II8:3PM8NZGV80N01E8F8PUXLG5Y58DQX0,2678,136224_0.08333333333333337.png,8,26,live
923,A1SSKWS5L20II8:3PM8NZGV80N01E8F8PUXLG5Y58DQX0,3558,136193_-0.38636363636363635.png,9,27,live
924,A1SSKWS5L20II8:3PM8NZGV80N01E8F8PUXLG5Y58DQX0,3590,136184_-0.5227272727272727.png,8,28,live
925,A1SSKWS5L20II8:3PM8NZGV80N01E8F8PUXLG5Y58DQX0,2581,136262_0.6590909090909092.png,5,29,live
926,A1SSKWS5L20II8:3PM8NZGV80N01E8F8PUXLG5Y58DQX0,5387,136230_0.1742424242424243.png,5,30,live
927,A1SSKWS5L20II8:3PM8NZGV80N01E8F8PUXLG5Y58DQX0,2161,136236_0.26515151515151514.png,7,31,live
928,A1SSKWS5L20II8:3PM8NZGV80N01E8F8PUXLG5Y58DQX0,1792,136181_-0.5681818181818181.png,8,32,live
929,A1SSKWS5L20II8:3PM8NZGV80N01E8F8PUXLG5Y58DQX0,2934,136175_-0.6590909090909091.png,9,33,live
930,A1SSKWS5L20II8:3PM8NZGV80N01E8F8PUXLG5Y58DQX0,2254,136265_0.7045454545454546.png,7,35,live
931,A1SSKWS5L20II8:3PM8NZGV80N01E8F8PUXLG5Y58DQX0,1413,136202_-0.25.png,8,36,live
932,A1SSKWS5L20II8:3PM8NZGV80N01E8F8PUXLG5Y58DQX0,1525,136255_0.553030303030303.png,7,37,live
933,A1SSKWS5L20II8:3PM8NZGV80N01E8F8PUXLG5Y58DQX0,1558,136225_0.09848484848484851.png,4,38,live
934,A1SSKWS5L20II8:3PM8NZGV80N01E8F8PUXLG5Y58DQX0,2639,136179_-0.5984848484848485.png,9,39,live
935,A1SSKWS5L20II8:3PM8NZGV80N01E8F8PUXLG5Y58DQX0,2957,136258_0.5984848484848486.png,9,40,live
936,A1SSKWS5L20II8:3PM8NZGV80N01E8F8PUXLG5Y58DQX0,2046,136172_-0.7045454545454546.png,7,41,live
937,A1SSKWS5L20II8:3PM8NZGV80N01E8F8PUXLG5Y58DQX0,1551,136193_-0.38636363636363635.png,6,42,live
938,A1SSKWS5L20II8:3PM8NZGV80N01E8F8PUXLG5Y58DQX0,2406,136178_-0.6136363636363636.png,9,43,live
939,A1SSKWS5L20II8:3PM8NZGV80N01E8F8PUXLG5Y58DQX0,1613,136249_0.46212121212121215.png,7,44,live
940,A1SSKWS5L20II8:3PM8NZGV80N01E8F8PUXLG5Y58DQX0,2062,136217_-0.022727272727272707.png,6,46,live
941,A1SSKWS5L20II8:3PM8NZGV80N01E8F8PUXLG5Y58DQX0,1383,136247_0.4318181818181819.png,7,47,live
942,A1SSKWS5L20II8:3PM8NZGV80N01E8F8PUXLG5Y58DQX0,1559,136196_-0.3409090909090909.png,5,48,live
943,A1SSKWS5L20II8:3PM8NZGV80N01E8F8PUXLG5Y58DQX0,2111,136212_-0.09848484848484851.png,8,49,live
944,A1SSKWS5L20II8:3PM8NZGV80N01E8F8PUXLG5Y58DQX0,1406,136176_-0.6439393939393939.png,7,50,live
945,A1SSKWS5L20II8:3PM8NZGV80N01E8F8PUXLG5Y58DQX0,2126,136176_-0.6439393939393939.png,6,51,live
946,A1SSKWS5L20II8:3PM8NZGV80N01E8F8PUXLG5Y58DQX0,1335,136264_0.6893939393939394.png,7,52,live
947,A1SSKWS5L20II8:3PM8NZGV80N01E8F8PUXLG5Y58DQX0,2109,136267_0.7348484848484849.png,6,53,live
948,A1SSKWS5L20II8:3PM8NZGV80N01E8F8PUXLG5Y58DQX0,1798,136266_0.7196969696969697.png,3,54,live
949,A1SSKWS5L20II8:3PM8NZGV80N01E8F8PUXLG5Y58DQX0,2015,136218_-0.007575757575757569.png,4,55,live
950,A1SSKWS5L20II8:3PM8NZGV80N01E8F8PUXLG5Y58DQX0,1637,136210_-0.12878787878787878.png,6,57,live
951,A1SSKWS5L20II8:3PM8NZGV80N01E8F8PUXLG5Y58DQX0,1671,136191_-0.41666666666666663.png,7,58,live
952,A1SSKWS5L20II8:3PM8NZGV80N01E8F8PUXLG5Y58DQX0,1494,136195_-0.3560606060606061.png,8,59,live
953,A1SSKWS5L20II8:3PM8NZGV80N01E8F8PUXLG5Y58DQX0,1758,136248_0.446969696969697.png,9,60,live
954,A1SSKWS5L20II8:3PM8NZGV80N01E8F8PUXLG5Y58DQX0,3168,136240_0.3257575757575757.png,5,61,live
955,A1SSKWS5L20II8:3PM8NZGV80N01E8F8PUXLG5Y58DQX0,2350,136183_-0.5378787878787878.png,6,62,live
956,A1SSKWS5L20II8:3PM8NZGV80N01E8F8PUXLG5Y58DQX0,1222,136256_0.5681818181818181.png,7,63,live
957,A1SSKWS5L20II8:3PM8NZGV80N01E8F8PUXLG5Y58DQX0,1470,136180_-0.5833333333333333.png,8,64,live
958,A1SSKWS5L20II8:3PM8NZGV80N01E8F8PUXLG5Y58DQX0,1462,136169_-0.75.png,9,65,live
959,A1SSKWS5L20II8:3PM8NZGV80N01E8F8PUXLG5Y58DQX0,2406,136260_0.6287878787878789.png,5,66,live
960,A1SSKWS5L20II8:3PM8NZGV80N01E8F8PUXLG5Y58DQX0,1609,136219_0.007575757575757569.png,6,68,live
961,A1SSKWS5L20II8:3PM8NZGV80N01E8F8PUXLG5Y58DQX0,2507,136253_0.5227272727272727.png,7,69,live
962,A1SSKWS5L20II8:3PM8NZGV80N01E8F8PUXLG5Y58DQX0,3832,136257_0.5833333333333335.png,9,70,live
963,A1SSKWS5L20II8:3PM8NZGV80N01E8F8PUXLG5Y58DQX0,1661,136200_-0.2803030303030303.png,7,71,live
964,A1SSKWS5L20II8:3PM8NZGV80N01E8F8PUXLG5Y58DQX0,1918,136205_-0.20454545454545459.png,5,72,live
965,A1SSKWS5L20II8:3PM8NZGV80N01E8F8PUXLG5Y58DQX0,3277,136212_-0.09848484848484851.png,4,73,live
966,A1SSKWS5L20II8:3PM8NZGV80N01E8F8PUXLG5Y58DQX0,2998,136173_-0.6893939393939394.png,7,74,live
967,A1SSKWS5L20II8:3PM8NZGV80N01E8F8PUXLG5Y58DQX0,1846,136253_0.5227272727272727.png,8,75,live
968,A1SSKWS5L20II8:3PM8NZGV80N01E8F8PUXLG5Y58DQX0,2094,136231_0.18939393939393945.png,9,76,live
969,A1SSKWS5L20II8:3PM8NZGV80N01E8F8PUXLG5Y58DQX0,1765,136184_-0.5227272727272727.png,8,77,live
970,A1SSKWS5L20II8:3PM8NZGV80N01E8F8PUXLG5Y58DQX0,1467,136242_0.3560606060606062.png,6,79,live
971,A1SSKWS5L20II8:3PM8NZGV80N01E8F8PUXLG5Y58DQX0,1582,136232_0.20454545454545459.png,7,80,live
972,A1SSKWS5L20II8:3PM8NZGV80N01E8F8PUXLG5Y58DQX0,2159,136194_-0.3712121212121212.png,8,81,live
973,A1SSKWS5L20II8:3PM8NZGV80N01E8F8PUXLG5Y58DQX0,1510,136216_-0.037878787878787845.png,9,82,live
974,A1SSKWS5L20II8:3PM8NZGV80N01E8F8PUXLG5Y58DQX0,1485,136227_0.12878787878787878.png,6,83,live
975,A1SSKWS5L20II8:3PM8NZGV80N01E8F8PUXLG5Y58DQX0,1517,136203_-0.23484848484848486.png,7,84,live
976,A1SSKWS5L20II8:3PM8NZGV80N01E8F8PUXLG5Y58DQX0,1462,136197_-0.32575757575757575.png,8,85,live
977,A1SSKWS5L20II8:3PM8NZGV80N01E8F8PUXLG5Y58DQX0,1743,136257_0.5833333333333335.png,4,86,live
978,A1SSKWS5L20II8:3PM8NZGV80N01E8F8PUXLG5Y58DQX0,3494,136215_-0.05303030303030298.png,3,87,live
979,A1SSKWS5L20II8:3PM8NZGV80N01E8F8PUXLG5Y58DQX0,2679,136236_0.26515151515151514.png,3,88,live
980,A1SSKWS5L20II8:3PM8NZGV80N01E8F8PUXLG5Y58DQX0,1388,136187_-0.4772727272727273.png,7,90,live
981,A1SSKWS5L20II8:3PM8NZGV80N01E8F8PUXLG5Y58DQX0,1429,136250_0.4772727272727273.png,8,91,live
982,A1SSKWS5L20II8:3PM8NZGV80N01E8F8PUXLG5Y58DQX0,1494,136222_0.053030303030303094.png,6,92,live
983,A1SSKWS5L20II8:3PM8NZGV80N01E8F8PUXLG5Y58DQX0,2206,136254_0.5378787878787878.png,8,93,live
984,A1SSKWS5L20II8:3PM8NZGV80N01E8F8PUXLG5Y58DQX0,1974,136251_0.49242424242424243.png,9,94,live
985,A1SSKWS5L20II8:3PM8NZGV80N01E8F8PUXLG5Y58DQX0,1709,136199_-0.2954545454545454.png,8,95,live
986,A1SSKWS5L20II8:3PM8NZGV80N01E8F8PUXLG5Y58DQX0,1461,136203_-0.23484848484848486.png,9,96,live
987,A1SSKWS5L20II8:3PM8NZGV80N01E8F8PUXLG5Y58DQX0,10374,136204_-0.21969696969696972.png,7,97,live
988,A1SSKWS5L20II8:3PM8NZGV80N01E8F8PUXLG5Y58DQX0,3070,136245_0.4015151515151516.png,8,98,live
989,A1SSKWS5L20II8:3PM8NZGV80N01E8F8PUXLG5Y58DQX0,1478,136245_0.4015151515151516.png,5,99,live
990,A1SSKWS5L20II8:3PM8NZGV80N01E8F8PUXLG5Y58DQX0,1766,136267_0.7348484848484849.png,7,101,live
991,A1SSKWS5L20II8:3PM8NZGV80N01E8F8PUXLG5Y58DQX0,1295,136258_0.5984848484848486.png,8,102,live
992,A1SSKWS5L20II8:3PM8NZGV80N01E8F8PUXLG5Y58DQX0,1582,136190_-0.4318181818181818.png,9,103,live
993,A1SSKWS5L20II8:3PM8NZGV80N01E8F8PUXLG5Y58DQX0,1884,136249_0.46212121212121215.png,6,104,live
994,A1SSKWS5L20II8:3PM8NZGV80N01E8F8PUXLG5Y58DQX0,1486,136226_0.11363636363636365.png,7,105,live
995,A1SSKWS5L20II8:3PM8NZGV80N01E8F8PUXLG5Y58DQX0,1518,136233_0.21969696969696972.png,8,106,live
996,A1SSKWS5L20II8:3PM8NZGV80N01E8F8PUXLG5Y58DQX0,2758,136200_-0.2803030303030303.png,9,107,live
997,A1SSKWS5L20II8:3PM8NZGV80N01E8F8PUXLG5Y58DQX0,1462,136220_0.022727272727272707.png,5,108,live
998,A1SSKWS5L20II8:3PM8NZGV80N01E8F8PUXLG5Y58DQX0,1510,136223_0.06818181818181823.png,4,109,live
999,A1SSKWS5L20II8:3PM8NZGV80N01E8F8PUXLG5Y58DQX0,1541,136183_-0.5378787878787878.png,6,110,live
1000,ALG6DFM23SOBF:3GD6L00D3U41QYPU93299YHSQS3M1J,3389,136238_0.2954545454545454.png,4,2,live
1001,ALG6DFM23SOBF:3GD6L00D3U41QYPU93299YHSQS3M1J,4995,136194_-0.3712121212121212.png,6,3,live
1002,ALG6DFM23SOBF:3GD6L00D3U41QYPU93299YHSQS3M1J,3852,136202_-0.25.png,7,4,live
1003,ALG6DFM23SOBF:3GD6L00D3U41QYPU93299YHSQS3M1J,5217,136247_0.4318181818181819.png,8,5,live
1004,ALG6DFM23SOBF:3GD6L00D3U41QYPU93299YHSQS3M1J,3300,136220_0.022727272727272707.png,2,6,live
1005,ALG6DFM23SOBF:3GD6L00D3U41QYPU93299YHSQS3M1J,4159,136185_-0.5075757575757576.png,3,7,live
1006,ALG6DFM23SOBF:3GD6L00D3U41QYPU93299YHSQS3M1J,5779,136261_0.643939393939394.png,4,8,live
1007,ALG6DFM23SOBF:3GD6L00D3U41QYPU93299YHSQS3M1J,3078,136216_-0.037878787878787845.png,5,9,live
1008,ALG6DFM23SOBF:3GD6L00D3U41QYPU93299YHSQS3M1J,2995,136192_-0.4015151515151515.png,8,10,live
1009,ALG6DFM23SOBF:3GD6L00D3U41QYPU93299YHSQS3M1J,6851,136226_0.11363636363636365.png,9,11,live
1010,ALG6DFM23SOBF:3GD6L00D3U41QYPU93299YHSQS3M1J,2894,136218_-0.007575757575757569.png,5,13,live
1011,ALG6DFM23SOBF:3GD6L00D3U41QYPU93299YHSQS3M1J,2422,136180_-0.5833333333333333.png,4,14,live
1012,ALG6DFM23SOBF:3GD6L00D3U41QYPU93299YHSQS3M1J,2181,136267_0.7348484848484849.png,3,15,live
1013,ALG6DFM23SOBF:3GD6L00D3U41QYPU93299YHSQS3M1J,3571,136256_0.5681818181818181.png,6,16,live
1014,ALG6DFM23SOBF:3GD6L00D3U41QYPU93299YHSQS3M1J,2421,136203_-0.23484848484848486.png,7,17,live
1015,ALG6DFM23SOBF:3GD6L00D3U41QYPU93299YHSQS3M1J,2426,136191_-0.41666666666666663.png,8,18,live
1016,ALG6DFM23SOBF:3GD6L00D3U41QYPU93299YHSQS3M1J,2829,136181_-0.5681818181818181.png,9,19,live
1017,ALG6DFM23SOBF:3GD6L00D3U41QYPU93299YHSQS3M1J,2947,136200_-0.2803030303030303.png,2,20,live
1018,ALG6DFM23SOBF:3GD6L00D3U41QYPU93299YHSQS3M1J,2028,136203_-0.23484848484848486.png,4,21,live
1019,ALG6DFM23SOBF:3GD6L00D3U41QYPU93299YHSQS3M1J,2451,136172_-0.7045454545454546.png,5,22,live
1020,ALG6DFM23SOBF:3GD6L00D3U41QYPU93299YHSQS3M1J,3668,136209_-0.14393939393939392.png,5,24,live
1021,ALG6DFM23SOBF:3GD6L00D3U41QYPU93299YHSQS3M1J,2740,136207_-0.1742424242424242.png,6,25,live
1022,ALG6DFM23SOBF:3GD6L00D3U41QYPU93299YHSQS3M1J,7004,136258_0.5984848484848486.png,7,26,live
1023,ALG6DFM23SOBF:3GD6L00D3U41QYPU93299YHSQS3M1J,2492,136248_0.446969696969697.png,8,27,live
1024,ALG6DFM23SOBF:3GD6L00D3U41QYPU93299YHSQS3M1J,2404,136262_0.6590909090909092.png,4,28,live
1025,ALG6DFM23SOBF:3GD6L00D3U41QYPU93299YHSQS3M1J,13740,136199_-0.2954545454545454.png,3,29,live
1026,ALG6DFM23SOBF:3GD6L00D3U41QYPU93299YHSQS3M1J,3067,136266_0.7196969696969697.png,7,30,live
1027,ALG6DFM23SOBF:3GD6L00D3U41QYPU93299YHSQS3M1J,2700,136189_-0.44696969696969696.png,8,31,live
1028,ALG6DFM23SOBF:3GD6L00D3U41QYPU93299YHSQS3M1J,2434,136204_-0.21969696969696972.png,5,32,live
1029,ALG6DFM23SOBF:3GD6L00D3U41QYPU93299YHSQS3M1J,2415,136249_0.46212121212121215.png,4,33,live
1030,ALG6DFM23SOBF:3GD6L00D3U41QYPU93299YHSQS3M1J,2777,136264_0.6893939393939394.png,2,35,live
1031,ALG6DFM23SOBF:3GD6L00D3U41QYPU93299YHSQS3M1J,3139,136215_-0.05303030303030298.png,8,36,live
1032,ALG6DFM23SOBF:3GD6L00D3U41QYPU93299YHSQS3M1J,3389,136210_-0.12878787878787878.png,9,37,live
1033,ALG6DFM23SOBF:3GD6L00D3U41QYPU93299YHSQS3M1J,3005,136177_-0.6287878787878788.png,6,38,live
1034,ALG6DFM23SOBF:3GD6L00D3U41QYPU93299YHSQS3M1J,7075,136249_0.46212121212121215.png,5,39,live
1035,ALG6DFM23SOBF:3GD6L00D3U41QYPU93299YHSQS3M1J,10323,136196_-0.3409090909090909.png,3,40,live
1036,ALG6DFM23SOBF:3GD6L00D3U41QYPU93299YHSQS3M1J,2594,136216_-0.037878787878787845.png,5,41,live
1037,ALG6DFM23SOBF:3GD6L00D3U41QYPU93299YHSQS3M1J,2715,136237_0.2803030303030303.png,6,42,live
1038,ALG6DFM23SOBF:3GD6L00D3U41QYPU93299YHSQS3M1J,5483,136212_-0.09848484848484851.png,1,43,live
1039,ALG6DFM23SOBF:3GD6L00D3U41QYPU93299YHSQS3M1J,4018,136176_-0.6439393939393939.png,8,44,live
1040,ALG6DFM23SOBF:3GD6L00D3U41QYPU93299YHSQS3M1J,2710,136266_0.7196969696969697.png,2,46,live
1041,ALG6DFM23SOBF:3GD6L00D3U41QYPU93299YHSQS3M1J,2900,136257_0.5833333333333335.png,9,47,live
1042,ALG6DFM23SOBF:3GD6L00D3U41QYPU93299YHSQS3M1J,3299,136257_0.5833333333333335.png,7,48,live
1043,ALG6DFM23SOBF:3GD6L00D3U41QYPU93299YHSQS3M1J,2417,136169_-0.75.png,6,49,live
1044,ALG6DFM23SOBF:3GD6L00D3U41QYPU93299YHSQS3M1J,2646,136183_-0.5378787878787878.png,4,50,live
1045,ALG6DFM23SOBF:3GD6L00D3U41QYPU93299YHSQS3M1J,3227,136200_-0.2803030303030303.png,3,51,live
1046,ALG6DFM23SOBF:3GD6L00D3U41QYPU93299YHSQS3M1J,2939,136204_-0.21969696969696972.png,2,52,live
1047,ALG6DFM23SOBF:3GD6L00D3U41QYPU93299YHSQS3M1J,3478,136242_0.3560606060606062.png,5,53,live
1048,ALG6DFM23SOBF:3GD6L00D3U41QYPU93299YHSQS3M1J,2884,136184_-0.5227272727272727.png,6,54,live
1049,ALG6DFM23SOBF:3GD6L00D3U41QYPU93299YHSQS3M1J,4738,136208_-0.15909090909090906.png,7,55,live
1050,ALG6DFM23SOBF:3GD6L00D3U41QYPU93299YHSQS3M1J,4308,136213_-0.08333333333333326.png,9,57,live
1051,ALG6DFM23SOBF:3GD6L00D3U41QYPU93299YHSQS3M1J,3868,136233_0.21969696969696972.png,2,58,live
1052,ALG6DFM23SOBF:3GD6L00D3U41QYPU93299YHSQS3M1J,2387,136250_0.4772727272727273.png,1,59,live
1053,ALG6DFM23SOBF:3GD6L00D3U41QYPU93299YHSQS3M1J,2754,136230_0.1742424242424243.png,5,60,live
1054,ALG6DFM23SOBF:3GD6L00D3U41QYPU93299YHSQS3M1J,3235,136225_0.09848484848484851.png,6,61,live
