,subId,rt,imgName,rating,trial_index,debug_mode
0,A1P0M5D9IGZIDK:3RANCT1ZVHOLG4CVK2MK6KBVQFXUBH,4651,198714_0.6287878787878789.png,1,2,live
1,A1P0M5D9IGZIDK:3RANCT1ZVHOLG4CVK2MK6KBVQFXUBH,3582,041829_-0.4015151515151515.png,1,3,live
2,A1P0M5D9IGZIDK:3RANCT1ZVHOLG4CVK2MK6KBVQFXUBH,3659,164278_-0.3409090909090909.png,4,4,live
3,A1P0M5D9IGZIDK:3RANCT1ZVHOLG4CVK2MK6KBVQFXUBH,2999,042205_-0.5075757575757576.png,4,5,live
4,A1P0M5D9IGZIDK:3RANCT1ZVHOLG4CVK2MK6KBVQFXUBH,3479,114340_-0.12878787878787878.png,1,6,live
5,A1P0M5D9IGZIDK:3RANCT1ZVHOLG4CVK2MK6KBVQFXUBH,4087,023784_0.6893939393939394.png,1,7,live
6,A1P0M5D9IGZIDK:3RANCT1ZVHOLG4CVK2MK6KBVQFXUBH,4102,179630_0.037878787878787845.png,2,8,live
7,A1P0M5D9IGZIDK:3RANCT1ZVHOLG4CVK2MK6KBVQFXUBH,3131,044525_0.4015151515151516.png,3,9,live
8,A1P0M5D9IGZIDK:3RANCT1ZVHOLG4CVK2MK6KBVQFXUBH,4174,043491_-0.4318181818181818.png,3,10,live
9,A1P0M5D9IGZIDK:3RANCT1ZVHOLG4CVK2MK6KBVQFXUBH,2296,164278_-0.3409090909090909.png,4,11,live
10,A1P0M5D9IGZIDK:3RANCT1ZVHOLG4CVK2MK6KBVQFXUBH,4706,098030_0.41666666666666674.png,2,13,live
11,A1P0M5D9IGZIDK:3RANCT1ZVHOLG4CVK2MK6KBVQFXUBH,2970,154764_-0.09848484848484851.png,1,14,live
12,A1P0M5D9IGZIDK:3RANCT1ZVHOLG4CVK2MK6KBVQFXUBH,3361,125135_-0.7348484848484849.png,4,15,live
13,A1P0M5D9IGZIDK:3RANCT1ZVHOLG4CVK2MK6KBVQFXUBH,3158,061283_-0.49242424242424243.png,3,16,live
14,A1P0M5D9IGZIDK:3RANCT1ZVHOLG4CVK2MK6KBVQFXUBH,4483,164329_0.5075757575757576.png,2,17,live
15,A1P0M5D9IGZIDK:3RANCT1ZVHOLG4CVK2MK6KBVQFXUBH,3136,006580_-0.1742424242424242.png,1,18,live
16,A1P0M5D9IGZIDK:3RANCT1ZVHOLG4CVK2MK6KBVQFXUBH,3163,038177_-0.7196969696969697.png,2,19,live
17,A1P0M5D9IGZIDK:3RANCT1ZVHOLG4CVK2MK6KBVQFXUBH,2899,010202_-0.32575757575757575.png,1,20,live
18,A1P0M5D9IGZIDK:3RANCT1ZVHOLG4CVK2MK6KBVQFXUBH,3138,036571_0.09848484848484851.png,1,21,live
19,A1P0M5D9IGZIDK:3RANCT1ZVHOLG4CVK2MK6KBVQFXUBH,3592,110088_-0.11363636363636365.png,4,22,live
20,A1P0M5D9IGZIDK:3RANCT1ZVHOLG4CVK2MK6KBVQFXUBH,2422,038177_-0.7196969696969697.png,2,24,live
21,A1P0M5D9IGZIDK:3RANCT1ZVHOLG4CVK2MK6KBVQFXUBH,3878,167679_0.3712121212121213.png,5,25,live
22,A1P0M5D9IGZIDK:3RANCT1ZVHOLG4CVK2MK6KBVQFXUBH,2931,154698_-0.20454545454545459.png,1,26,live
23,A1P0M5D9IGZIDK:3RANCT1ZVHOLG4CVK2MK6KBVQFXUBH,3393,050886_-0.5681818181818181.png,6,27,live
24,A1P0M5D9IGZIDK:3RANCT1ZVHOLG4CVK2MK6KBVQFXUBH,3610,040610_-0.553030303030303.png,1,28,live
25,A1P0M5D9IGZIDK:3RANCT1ZVHOLG4CVK2MK6KBVQFXUBH,3127,026104_-0.4772727272727273.png,1,29,live
26,A1P0M5D9IGZIDK:3RANCT1ZVHOLG4CVK2MK6KBVQFXUBH,3552,099376_0.5378787878787878.png,3,30,live
27,A1P0M5D9IGZIDK:3RANCT1ZVHOLG4CVK2MK6KBVQFXUBH,3112,119374_0.38636363636363646.png,7,31,live
28,A1P0M5D9IGZIDK:3RANCT1ZVHOLG4CVK2MK6KBVQFXUBH,2756,080609_0.5227272727272727.png,1,32,live
29,A1P0M5D9IGZIDK:3RANCT1ZVHOLG4CVK2MK6KBVQFXUBH,4231,163106_0.20454545454545459.png,2,33,live
30,A1P0M5D9IGZIDK:3RANCT1ZVHOLG4CVK2MK6KBVQFXUBH,6995,119374_0.38636363636363646.png,6,35,live
31,A1P0M5D9IGZIDK:3RANCT1ZVHOLG4CVK2MK6KBVQFXUBH,3829,031175_-0.5833333333333333.png,2,36,live
32,A1P0M5D9IGZIDK:3RANCT1ZVHOLG4CVK2MK6KBVQFXUBH,3057,160014_-0.18939393939393934.png,4,37,live
33,A1P0M5D9IGZIDK:3RANCT1ZVHOLG4CVK2MK6KBVQFXUBH,3013,102475_0.1742424242424243.png,1,38,live
34,A1P0M5D9IGZIDK:3RANCT1ZVHOLG4CVK2MK6KBVQFXUBH,3022,031230_0.2954545454545454.png,2,39,live
35,A1P0M5D9IGZIDK:3RANCT1ZVHOLG4CVK2MK6KBVQFXUBH,3025,113917_-0.25.png,1,40,live
36,A1P0M5D9IGZIDK:3RANCT1ZVHOLG4CVK2MK6KBVQFXUBH,3642,059180_-0.15909090909090906.png,4,41,live
37,A1P0M5D9IGZIDK:3RANCT1ZVHOLG4CVK2MK6KBVQFXUBH,3083,167548_0.022727272727272707.png,5,42,live
38,A1P0M5D9IGZIDK:3RANCT1ZVHOLG4CVK2MK6KBVQFXUBH,3606,148397_-0.037878787878787845.png,1,43,live
39,A1P0M5D9IGZIDK:3RANCT1ZVHOLG4CVK2MK6KBVQFXUBH,3223,018758_-0.23484848484848486.png,1,44,live
40,A1P0M5D9IGZIDK:3RANCT1ZVHOLG4CVK2MK6KBVQFXUBH,3154,033672_-0.41666666666666663.png,1,46,live
41,A1P0M5D9IGZIDK:3RANCT1ZVHOLG4CVK2MK6KBVQFXUBH,4404,167679_0.3712121212121213.png,5,47,live
42,A1P0M5D9IGZIDK:3RANCT1ZVHOLG4CVK2MK6KBVQFXUBH,4073,109247_0.6136363636363638.png,6,48,live
43,A1P0M5D9IGZIDK:3RANCT1ZVHOLG4CVK2MK6KBVQFXUBH,3079,103635_0.25.png,1,49,live
44,A1P0M5D9IGZIDK:3RANCT1ZVHOLG4CVK2MK6KBVQFXUBH,3289,144397_0.26515151515151514.png,3,50,live
45,A1P0M5D9IGZIDK:3RANCT1ZVHOLG4CVK2MK6KBVQFXUBH,3294,012864_0.2803030303030303.png,5,51,live
46,A1P0M5D9IGZIDK:3RANCT1ZVHOLG4CVK2MK6KBVQFXUBH,3252,090482_0.553030303030303.png,3,52,live
47,A1P0M5D9IGZIDK:3RANCT1ZVHOLG4CVK2MK6KBVQFXUBH,3937,179630_0.037878787878787845.png,2,53,live
48,A1P0M5D9IGZIDK:3RANCT1ZVHOLG4CVK2MK6KBVQFXUBH,3447,112685_-0.007575757575757569.png,1,54,live
49,A1P0M5D9IGZIDK:3RANCT1ZVHOLG4CVK2MK6KBVQFXUBH,3678,106456_-0.6742424242424242.png,4,55,live
50,A1P0M5D9IGZIDK:3RANCT1ZVHOLG4CVK2MK6KBVQFXUBH,3862,032683_0.007575757575757569.png,3,57,live
51,A1P0M5D9IGZIDK:3RANCT1ZVHOLG4CVK2MK6KBVQFXUBH,3644,065471_0.053030303030303094.png,5,58,live
52,A1P0M5D9IGZIDK:3RANCT1ZVHOLG4CVK2MK6KBVQFXUBH,4505,142593_0.15909090909090917.png,4,59,live
53,A1P0M5D9IGZIDK:3RANCT1ZVHOLG4CVK2MK6KBVQFXUBH,3030,098631_0.23484848484848486.png,1,60,live
54,A1P0M5D9IGZIDK:3RANCT1ZVHOLG4CVK2MK6KBVQFXUBH,3588,006240_0.3560606060606062.png,2,61,live
55,A1P0M5D9IGZIDK:3RANCT1ZVHOLG4CVK2MK6KBVQFXUBH,2945,134277_0.5984848484848486.png,4,62,live
56,A1P0M5D9IGZIDK:3RANCT1ZVHOLG4CVK2MK6KBVQFXUBH,4943,045867_-0.4621212121212121.png,2,63,live
57,A1P0M5D9IGZIDK:3RANCT1ZVHOLG4CVK2MK6KBVQFXUBH,3479,053178_0.06818181818181823.png,3,64,live
58,A1P0M5D9IGZIDK:3RANCT1ZVHOLG4CVK2MK6KBVQFXUBH,2910,010202_-0.32575757575757575.png,1,65,live
59,A1P0M5D9IGZIDK:3RANCT1ZVHOLG4CVK2MK6KBVQFXUBH,2935,154698_-0.20454545454545459.png,1,66,live
60,A1P0M5D9IGZIDK:3RANCT1ZVHOLG4CVK2MK6KBVQFXUBH,2605,112685_-0.007575757575757569.png,1,68,live
61,A1P0M5D9IGZIDK:3RANCT1ZVHOLG4CVK2MK6KBVQFXUBH,3245,180191_-0.44696969696969696.png,1,69,live
62,A1P0M5D9IGZIDK:3RANCT1ZVHOLG4CVK2MK6KBVQFXUBH,3369,032145_-0.3560606060606061.png,1,70,live
63,A1P0M5D9IGZIDK:3RANCT1ZVHOLG4CVK2MK6KBVQFXUBH,2983,090482_0.553030303030303.png,4,71,live
64,A1P0M5D9IGZIDK:3RANCT1ZVHOLG4CVK2MK6KBVQFXUBH,3528,134466_0.6742424242424243.png,3,72,live
65,A1P0M5D9IGZIDK:3RANCT1ZVHOLG4CVK2MK6KBVQFXUBH,3188,172473_0.6590909090909092.png,3,73,live
66,A1P0M5D9IGZIDK:3RANCT1ZVHOLG4CVK2MK6KBVQFXUBH,3780,165559_-0.5227272727272727.png,2,74,live
67,A1P0M5D9IGZIDK:3RANCT1ZVHOLG4CVK2MK6KBVQFXUBH,3289,195398_-0.14393939393939392.png,1,75,live
68,A1P0M5D9IGZIDK:3RANCT1ZVHOLG4CVK2MK6KBVQFXUBH,3335,065471_0.053030303030303094.png,4,76,live
69,A1P0M5D9IGZIDK:3RANCT1ZVHOLG4CVK2MK6KBVQFXUBH,2723,103635_0.25.png,1,77,live
70,A1P0M5D9IGZIDK:3RANCT1ZVHOLG4CVK2MK6KBVQFXUBH,5374,144397_0.26515151515151514.png,2,79,live
71,A1P0M5D9IGZIDK:3RANCT1ZVHOLG4CVK2MK6KBVQFXUBH,2923,025504_0.75.png,1,80,live
72,A1P0M5D9IGZIDK:3RANCT1ZVHOLG4CVK2MK6KBVQFXUBH,4542,133467_-0.3106060606060606.png,2,81,live
73,A1P0M5D9IGZIDK:3RANCT1ZVHOLG4CVK2MK6KBVQFXUBH,2647,080609_0.5227272727272727.png,1,82,live
74,A1P0M5D9IGZIDK:3RANCT1ZVHOLG4CVK2MK6KBVQFXUBH,3082,043491_-0.4318181818181818.png,4,83,live
75,A1P0M5D9IGZIDK:3RANCT1ZVHOLG4CVK2MK6KBVQFXUBH,3591,109247_0.6136363636363638.png,6,84,live
76,A1P0M5D9IGZIDK:3RANCT1ZVHOLG4CVK2MK6KBVQFXUBH,2896,008091_-0.6439393939393939.png,1,85,live
77,A1P0M5D9IGZIDK:3RANCT1ZVHOLG4CVK2MK6KBVQFXUBH,2581,001195_-0.38636363636363635.png,1,86,live
78,A1P0M5D9IGZIDK:3RANCT1ZVHOLG4CVK2MK6KBVQFXUBH,3522,081779_0.34090909090909083.png,3,87,live
79,A1P0M5D9IGZIDK:3RANCT1ZVHOLG4CVK2MK6KBVQFXUBH,3882,180638_-0.26515151515151514.png,2,88,live
80,A1P0M5D9IGZIDK:3RANCT1ZVHOLG4CVK2MK6KBVQFXUBH,2904,032145_-0.3560606060606061.png,1,90,live
81,A1P0M5D9IGZIDK:3RANCT1ZVHOLG4CVK2MK6KBVQFXUBH,3305,150226_0.3257575757575757.png,1,91,live
82,A1P0M5D9IGZIDK:3RANCT1ZVHOLG4CVK2MK6KBVQFXUBH,2735,048059_0.46212121212121215.png,1,92,live
83,A1P0M5D9IGZIDK:3RANCT1ZVHOLG4CVK2MK6KBVQFXUBH,2642,141962_-0.08333333333333326.png,1,93,live
84,A1P0M5D9IGZIDK:3RANCT1ZVHOLG4CVK2MK6KBVQFXUBH,4032,182685_0.446969696969697.png,5,94,live
85,A1P0M5D9IGZIDK:3RANCT1ZVHOLG4CVK2MK6KBVQFXUBH,4113,030657_-0.6590909090909091.png,5,95,live
86,A1P0M5D9IGZIDK:3RANCT1ZVHOLG4CVK2MK6KBVQFXUBH,2969,049976_-0.3712121212121212.png,2,96,live
87,A1P0M5D9IGZIDK:3RANCT1ZVHOLG4CVK2MK6KBVQFXUBH,2391,027333_-0.6287878787878788.png,1,97,live
88,A1P0M5D9IGZIDK:3RANCT1ZVHOLG4CVK2MK6KBVQFXUBH,2755,023416_-0.5984848484848485.png,2,98,live
89,A1P0M5D9IGZIDK:3RANCT1ZVHOLG4CVK2MK6KBVQFXUBH,3974,012864_0.2803030303030303.png,5,99,live
90,A1P0M5D9IGZIDK:3RANCT1ZVHOLG4CVK2MK6KBVQFXUBH,5671,141261_0.18939393939393945.png,3,101,live
91,A1P0M5D9IGZIDK:3RANCT1ZVHOLG4CVK2MK6KBVQFXUBH,3202,026389_-0.022727272727272707.png,1,102,live
92,A1P0M5D9IGZIDK:3RANCT1ZVHOLG4CVK2MK6KBVQFXUBH,4718,042441_-0.75.png,6,103,live
93,A1P0M5D9IGZIDK:3RANCT1ZVHOLG4CVK2MK6KBVQFXUBH,3428,026534_0.21969696969696972.png,3,104,live
94,A1P0M5D9IGZIDK:3RANCT1ZVHOLG4CVK2MK6KBVQFXUBH,3424,127629_0.7045454545454546.png,2,105,live
95,A1P0M5D9IGZIDK:3RANCT1ZVHOLG4CVK2MK6KBVQFXUBH,2598,053178_0.06818181818181823.png,2,106,live
96,A1P0M5D9IGZIDK:3RANCT1ZVHOLG4CVK2MK6KBVQFXUBH,2552,026389_-0.022727272727272707.png,1,107,live
97,A1P0M5D9IGZIDK:3RANCT1ZVHOLG4CVK2MK6KBVQFXUBH,3657,067211_0.5833333333333335.png,6,108,live
98,A1P0M5D9IGZIDK:3RANCT1ZVHOLG4CVK2MK6KBVQFXUBH,4091,167696_0.643939393939394.png,1,109,live
99,A1P0M5D9IGZIDK:3RANCT1ZVHOLG4CVK2MK6KBVQFXUBH,2939,127629_0.7045454545454546.png,2,110,live
100,A25PFSORDO3SWQ:38JBBYETQQHK69U0FNXSUOJMUZNE4F,7713,026389_-0.022727272727272707.png,1,2,live
101,A25PFSORDO3SWQ:38JBBYETQQHK69U0FNXSUOJMUZNE4F,5230,010202_-0.32575757575757575.png,3,3,live
102,A25PFSORDO3SWQ:38JBBYETQQHK69U0FNXSUOJMUZNE4F,3221,113917_-0.25.png,5,4,live
103,A25PFSORDO3SWQ:38JBBYETQQHK69U0FNXSUOJMUZNE4F,4370,044525_0.4015151515151516.png,2,5,live
104,A25PFSORDO3SWQ:38JBBYETQQHK69U0FNXSUOJMUZNE4F,3204,144397_0.26515151515151514.png,4,6,live
105,A25PFSORDO3SWQ:38JBBYETQQHK69U0FNXSUOJMUZNE4F,3266,027333_-0.6287878787878788.png,1,7,live
106,A25PFSORDO3SWQ:38JBBYETQQHK69U0FNXSUOJMUZNE4F,2775,164278_-0.3409090909090909.png,6,8,live
107,A25PFSORDO3SWQ:38JBBYETQQHK69U0FNXSUOJMUZNE4F,3205,053178_0.06818181818181823.png,7,9,live
108,A25PFSORDO3SWQ:38JBBYETQQHK69U0FNXSUOJMUZNE4F,3742,038177_-0.7196969696969697.png,1,10,live
109,A25PFSORDO3SWQ:38JBBYETQQHK69U0FNXSUOJMUZNE4F,4192,180638_-0.26515151515151514.png,3,11,live
110,A25PFSORDO3SWQ:38JBBYETQQHK69U0FNXSUOJMUZNE4F,4442,018758_-0.23484848484848486.png,8,13,live
111,A25PFSORDO3SWQ:38JBBYETQQHK69U0FNXSUOJMUZNE4F,3819,119374_0.38636363636363646.png,7,14,live
112,A25PFSORDO3SWQ:38JBBYETQQHK69U0FNXSUOJMUZNE4F,3183,142593_0.15909090909090917.png,7,15,live
113,A25PFSORDO3SWQ:38JBBYETQQHK69U0FNXSUOJMUZNE4F,3723,106456_-0.6742424242424242.png,6,16,live
114,A25PFSORDO3SWQ:38JBBYETQQHK69U0FNXSUOJMUZNE4F,3265,006240_0.3560606060606062.png,2,17,live
115,A25PFSORDO3SWQ:38JBBYETQQHK69U0FNXSUOJMUZNE4F,3052,179630_0.037878787878787845.png,1,18,live
116,A25PFSORDO3SWQ:38JBBYETQQHK69U0FNXSUOJMUZNE4F,3871,098030_0.41666666666666674.png,1,19,live
117,A25PFSORDO3SWQ:38JBBYETQQHK69U0FNXSUOJMUZNE4F,2909,154764_-0.09848484848484851.png,1,20,live
118,A25PFSORDO3SWQ:38JBBYETQQHK69U0FNXSUOJMUZNE4F,4480,167679_0.3712121212121213.png,6,21,live
119,A25PFSORDO3SWQ:38JBBYETQQHK69U0FNXSUOJMUZNE4F,3363,081779_0.34090909090909083.png,5,22,live
120,A25PFSORDO3SWQ:38JBBYETQQHK69U0FNXSUOJMUZNE4F,3544,026104_-0.4772727272727273.png,2,24,live
121,A25PFSORDO3SWQ:38JBBYETQQHK69U0FNXSUOJMUZNE4F,3332,012864_0.2803030303030303.png,8,25,live
122,A25PFSORDO3SWQ:38JBBYETQQHK69U0FNXSUOJMUZNE4F,3427,102475_0.1742424242424243.png,1,26,live
123,A25PFSORDO3SWQ:38JBBYETQQHK69U0FNXSUOJMUZNE4F,2775,112685_-0.007575757575757569.png,6,27,live
124,A25PFSORDO3SWQ:38JBBYETQQHK69U0FNXSUOJMUZNE4F,4293,036571_0.09848484848484851.png,2,28,live
125,A25PFSORDO3SWQ:38JBBYETQQHK69U0FNXSUOJMUZNE4F,2788,148397_-0.037878787878787845.png,6,29,live
126,A25PFSORDO3SWQ:38JBBYETQQHK69U0FNXSUOJMUZNE4F,4269,103635_0.25.png,6,30,live
127,A25PFSORDO3SWQ:38JBBYETQQHK69U0FNXSUOJMUZNE4F,3485,032683_0.007575757575757569.png,5,31,live
128,A25PFSORDO3SWQ:38JBBYETQQHK69U0FNXSUOJMUZNE4F,2328,154698_-0.20454545454545459.png,2,32,live
129,A25PFSORDO3SWQ:38JBBYETQQHK69U0FNXSUOJMUZNE4F,5576,043491_-0.4318181818181818.png,5,33,live
130,A25PFSORDO3SWQ:38JBBYETQQHK69U0FNXSUOJMUZNE4F,2621,164329_0.5075757575757576.png,2,35,live
131,A25PFSORDO3SWQ:38JBBYETQQHK69U0FNXSUOJMUZNE4F,5184,133467_-0.3106060606060606.png,4,36,live
132,A25PFSORDO3SWQ:38JBBYETQQHK69U0FNXSUOJMUZNE4F,4698,042205_-0.5075757575757576.png,9,37,live
133,A25PFSORDO3SWQ:38JBBYETQQHK69U0FNXSUOJMUZNE4F,4479,179630_0.037878787878787845.png,1,38,live
134,A25PFSORDO3SWQ:38JBBYETQQHK69U0FNXSUOJMUZNE4F,4870,099376_0.5378787878787878.png,4,39,live
135,A25PFSORDO3SWQ:38JBBYETQQHK69U0FNXSUOJMUZNE4F,2615,109247_0.6136363636363638.png,5,40,live
136,A25PFSORDO3SWQ:38JBBYETQQHK69U0FNXSUOJMUZNE4F,3403,144397_0.26515151515151514.png,3,41,live
137,A25PFSORDO3SWQ:38JBBYETQQHK69U0FNXSUOJMUZNE4F,3178,041829_-0.4015151515151515.png,6,42,live
138,A25PFSORDO3SWQ:38JBBYETQQHK69U0FNXSUOJMUZNE4F,3103,038177_-0.7196969696969697.png,1,43,live
139,A25PFSORDO3SWQ:38JBBYETQQHK69U0FNXSUOJMUZNE4F,2784,167679_0.3712121212121213.png,6,44,live
140,A25PFSORDO3SWQ:38JBBYETQQHK69U0FNXSUOJMUZNE4F,8536,045867_-0.4621212121212121.png,2,46,live
141,A25PFSORDO3SWQ:38JBBYETQQHK69U0FNXSUOJMUZNE4F,9580,067211_0.5833333333333335.png,6,47,live
142,A25PFSORDO3SWQ:38JBBYETQQHK69U0FNXSUOJMUZNE4F,3193,023416_-0.5984848484848485.png,2,48,live
143,A25PFSORDO3SWQ:38JBBYETQQHK69U0FNXSUOJMUZNE4F,4820,127629_0.7045454545454546.png,6,49,live
144,A25PFSORDO3SWQ:38JBBYETQQHK69U0FNXSUOJMUZNE4F,3969,198714_0.6287878787878789.png,2,50,live
145,A25PFSORDO3SWQ:38JBBYETQQHK69U0FNXSUOJMUZNE4F,5452,141261_0.18939393939393945.png,3,51,live
146,A25PFSORDO3SWQ:38JBBYETQQHK69U0FNXSUOJMUZNE4F,3141,150226_0.3257575757575757.png,4,52,live
147,A25PFSORDO3SWQ:38JBBYETQQHK69U0FNXSUOJMUZNE4F,6191,163106_0.20454545454545459.png,5,53,live
148,A25PFSORDO3SWQ:38JBBYETQQHK69U0FNXSUOJMUZNE4F,2673,160014_-0.18939393939393934.png,6,54,live
149,A25PFSORDO3SWQ:38JBBYETQQHK69U0FNXSUOJMUZNE4F,4218,119374_0.38636363636363646.png,7,55,live
150,A25PFSORDO3SWQ:38JBBYETQQHK69U0FNXSUOJMUZNE4F,5151,098631_0.23484848484848486.png,3,57,live
151,A25PFSORDO3SWQ:38JBBYETQQHK69U0FNXSUOJMUZNE4F,2947,112685_-0.007575757575757569.png,6,58,live
152,A25PFSORDO3SWQ:38JBBYETQQHK69U0FNXSUOJMUZNE4F,3126,008091_-0.6439393939393939.png,3,59,live
153,A25PFSORDO3SWQ:38JBBYETQQHK69U0FNXSUOJMUZNE4F,5520,141962_-0.08333333333333326.png,2,60,live
154,A25PFSORDO3SWQ:38JBBYETQQHK69U0FNXSUOJMUZNE4F,3814,032145_-0.3560606060606061.png,2,61,live
155,A25PFSORDO3SWQ:38JBBYETQQHK69U0FNXSUOJMUZNE4F,2927,110088_-0.11363636363636365.png,6,62,live
156,A25PFSORDO3SWQ:38JBBYETQQHK69U0FNXSUOJMUZNE4F,2868,033672_-0.41666666666666663.png,1,63,live
157,A25PFSORDO3SWQ:38JBBYETQQHK69U0FNXSUOJMUZNE4F,4629,165559_-0.5227272727272727.png,6,64,live
158,A25PFSORDO3SWQ:38JBBYETQQHK69U0FNXSUOJMUZNE4F,2902,167696_0.643939393939394.png,2,65,live
159,A25PFSORDO3SWQ:38JBBYETQQHK69U0FNXSUOJMUZNE4F,3971,080609_0.5227272727272727.png,1,66,live
160,A25PFSORDO3SWQ:38JBBYETQQHK69U0FNXSUOJMUZNE4F,2576,010202_-0.32575757575757575.png,3,68,live
161,A25PFSORDO3SWQ:38JBBYETQQHK69U0FNXSUOJMUZNE4F,2279,032145_-0.3560606060606061.png,2,69,live
162,A25PFSORDO3SWQ:38JBBYETQQHK69U0FNXSUOJMUZNE4F,6165,090482_0.553030303030303.png,6,70,live
163,A25PFSORDO3SWQ:38JBBYETQQHK69U0FNXSUOJMUZNE4F,3908,023784_0.6893939393939394.png,4,71,live
164,A25PFSORDO3SWQ:38JBBYETQQHK69U0FNXSUOJMUZNE4F,2998,030657_-0.6590909090909091.png,3,72,live
165,A25PFSORDO3SWQ:38JBBYETQQHK69U0FNXSUOJMUZNE4F,6951,001195_-0.38636363636363635.png,1,73,live
166,A25PFSORDO3SWQ:38JBBYETQQHK69U0FNXSUOJMUZNE4F,2505,026389_-0.022727272727272707.png,1,74,live
167,A25PFSORDO3SWQ:38JBBYETQQHK69U0FNXSUOJMUZNE4F,2543,125135_-0.7348484848484849.png,2,75,live
168,A25PFSORDO3SWQ:38JBBYETQQHK69U0FNXSUOJMUZNE4F,8963,103635_0.25.png,4,76,live
169,A25PFSORDO3SWQ:38JBBYETQQHK69U0FNXSUOJMUZNE4F,7902,134277_0.5984848484848486.png,7,77,live
170,A25PFSORDO3SWQ:38JBBYETQQHK69U0FNXSUOJMUZNE4F,5349,006580_-0.1742424242424242.png,4,79,live
171,A25PFSORDO3SWQ:38JBBYETQQHK69U0FNXSUOJMUZNE4F,2686,049976_-0.3712121212121212.png,6,80,live
172,A25PFSORDO3SWQ:38JBBYETQQHK69U0FNXSUOJMUZNE4F,2707,053178_0.06818181818181823.png,6,81,live
173,A25PFSORDO3SWQ:38JBBYETQQHK69U0FNXSUOJMUZNE4F,2944,182685_0.446969696969697.png,7,82,live
174,A25PFSORDO3SWQ:38JBBYETQQHK69U0FNXSUOJMUZNE4F,5709,167548_0.022727272727272707.png,6,83,live
175,A25PFSORDO3SWQ:38JBBYETQQHK69U0FNXSUOJMUZNE4F,5339,180191_-0.44696969696969696.png,6,84,live
176,A25PFSORDO3SWQ:38JBBYETQQHK69U0FNXSUOJMUZNE4F,3947,127629_0.7045454545454546.png,5,85,live
177,A25PFSORDO3SWQ:38JBBYETQQHK69U0FNXSUOJMUZNE4F,3527,031175_-0.5833333333333333.png,6,86,live
178,A25PFSORDO3SWQ:38JBBYETQQHK69U0FNXSUOJMUZNE4F,2914,042441_-0.75.png,6,87,live
179,A25PFSORDO3SWQ:38JBBYETQQHK69U0FNXSUOJMUZNE4F,3886,065471_0.053030303030303094.png,7,88,live
180,A25PFSORDO3SWQ:38JBBYETQQHK69U0FNXSUOJMUZNE4F,3839,061283_-0.49242424242424243.png,2,90,live
181,A25PFSORDO3SWQ:38JBBYETQQHK69U0FNXSUOJMUZNE4F,2940,090482_0.553030303030303.png,6,91,live
182,A25PFSORDO3SWQ:38JBBYETQQHK69U0FNXSUOJMUZNE4F,6645,164278_-0.3409090909090909.png,8,92,live
183,A25PFSORDO3SWQ:38JBBYETQQHK69U0FNXSUOJMUZNE4F,4927,109247_0.6136363636363638.png,6,93,live
184,A25PFSORDO3SWQ:38JBBYETQQHK69U0FNXSUOJMUZNE4F,4142,154698_-0.20454545454545459.png,3,94,live
185,A25PFSORDO3SWQ:38JBBYETQQHK69U0FNXSUOJMUZNE4F,2797,026534_0.21969696969696972.png,3,95,live
186,A25PFSORDO3SWQ:38JBBYETQQHK69U0FNXSUOJMUZNE4F,3569,025504_0.75.png,3,96,live
187,A25PFSORDO3SWQ:38JBBYETQQHK69U0FNXSUOJMUZNE4F,3770,195398_-0.14393939393939392.png,6,97,live
188,A25PFSORDO3SWQ:38JBBYETQQHK69U0FNXSUOJMUZNE4F,3471,050886_-0.5681818181818181.png,6,98,live
189,A25PFSORDO3SWQ:38JBBYETQQHK69U0FNXSUOJMUZNE4F,5177,134466_0.6742424242424243.png,5,99,live
190,A25PFSORDO3SWQ:38JBBYETQQHK69U0FNXSUOJMUZNE4F,2875,172473_0.6590909090909092.png,6,101,live
191,A25PFSORDO3SWQ:38JBBYETQQHK69U0FNXSUOJMUZNE4F,3455,012864_0.2803030303030303.png,7,102,live
192,A25PFSORDO3SWQ:38JBBYETQQHK69U0FNXSUOJMUZNE4F,3541,048059_0.46212121212121215.png,4,103,live
193,A25PFSORDO3SWQ:38JBBYETQQHK69U0FNXSUOJMUZNE4F,4367,031230_0.2954545454545454.png,3,104,live
194,A25PFSORDO3SWQ:38JBBYETQQHK69U0FNXSUOJMUZNE4F,3396,059180_-0.15909090909090906.png,6,105,live
195,A25PFSORDO3SWQ:38JBBYETQQHK69U0FNXSUOJMUZNE4F,5952,065471_0.053030303030303094.png,7,106,live
196,A25PFSORDO3SWQ:38JBBYETQQHK69U0FNXSUOJMUZNE4F,3857,114340_-0.12878787878787878.png,1,107,live
197,A25PFSORDO3SWQ:38JBBYETQQHK69U0FNXSUOJMUZNE4F,3534,080609_0.5227272727272727.png,1,108,live
198,A25PFSORDO3SWQ:38JBBYETQQHK69U0FNXSUOJMUZNE4F,5219,043491_-0.4318181818181818.png,4,109,live
199,A25PFSORDO3SWQ:38JBBYETQQHK69U0FNXSUOJMUZNE4F,2816,040610_-0.553030303030303.png,2,110,live
200,A3M40SGP17FJJM:35DR22AR5FR8UD2DAEI188CNW51X3L,3465,112685_-0.007575757575757569.png,1,2,live
201,A3M40SGP17FJJM:35DR22AR5FR8UD2DAEI188CNW51X3L,2993,048059_0.46212121212121215.png,1,3,live
202,A3M40SGP17FJJM:35DR22AR5FR8UD2DAEI188CNW51X3L,5338,148397_-0.037878787878787845.png,2,4,live
203,A3M40SGP17FJJM:35DR22AR5FR8UD2DAEI188CNW51X3L,3621,053178_0.06818181818181823.png,5,5,live
204,A3M40SGP17FJJM:35DR22AR5FR8UD2DAEI188CNW51X3L,4266,032145_-0.3560606060606061.png,3,6,live
205,A3M40SGP17FJJM:35DR22AR5FR8UD2DAEI188CNW51X3L,2575,065471_0.053030303030303094.png,7,7,live
206,A3M40SGP17FJJM:35DR22AR5FR8UD2DAEI188CNW51X3L,4620,026534_0.21969696969696972.png,5,8,live
207,A3M40SGP17FJJM:35DR22AR5FR8UD2DAEI188CNW51X3L,3842,012864_0.2803030303030303.png,3,9,live
208,A3M40SGP17FJJM:35DR22AR5FR8UD2DAEI188CNW51X3L,2652,043491_-0.4318181818181818.png,1,10,live
209,A3M40SGP17FJJM:35DR22AR5FR8UD2DAEI188CNW51X3L,2529,198714_0.6287878787878789.png,1,11,live
210,A3M40SGP17FJJM:35DR22AR5FR8UD2DAEI188CNW51X3L,3946,090482_0.553030303030303.png,2,13,live
211,A3M40SGP17FJJM:35DR22AR5FR8UD2DAEI188CNW51X3L,2469,038177_-0.7196969696969697.png,1,14,live
212,A3M40SGP17FJJM:35DR22AR5FR8UD2DAEI188CNW51X3L,1767,154698_-0.20454545454545459.png,1,15,live
213,A3M40SGP17FJJM:35DR22AR5FR8UD2DAEI188CNW51X3L,2513,041829_-0.4015151515151515.png,1,16,live
214,A3M40SGP17FJJM:35DR22AR5FR8UD2DAEI188CNW51X3L,3442,065471_0.053030303030303094.png,7,17,live
215,A3M40SGP17FJJM:35DR22AR5FR8UD2DAEI188CNW51X3L,3266,043491_-0.4318181818181818.png,2,18,live
216,A3M40SGP17FJJM:35DR22AR5FR8UD2DAEI188CNW51X3L,2221,049976_-0.3712121212121212.png,1,19,live
217,A3M40SGP17FJJM:35DR22AR5FR8UD2DAEI188CNW51X3L,1838,110088_-0.11363636363636365.png,1,20,live
218,A3M40SGP17FJJM:35DR22AR5FR8UD2DAEI188CNW51X3L,2858,142593_0.15909090909090917.png,4,21,live
219,A3M40SGP17FJJM:35DR22AR5FR8UD2DAEI188CNW51X3L,14055,038177_-0.7196969696969697.png,2,22,live
220,A3M40SGP17FJJM:35DR22AR5FR8UD2DAEI188CNW51X3L,4962,061283_-0.49242424242424243.png,1,24,live
221,A3M40SGP17FJJM:35DR22AR5FR8UD2DAEI188CNW51X3L,4807,081779_0.34090909090909083.png,1,25,live
222,A3M40SGP17FJJM:35DR22AR5FR8UD2DAEI188CNW51X3L,6229,023784_0.6893939393939394.png,5,26,live
223,A3M40SGP17FJJM:35DR22AR5FR8UD2DAEI188CNW51X3L,2303,042441_-0.75.png,1,27,live
224,A3M40SGP17FJJM:35DR22AR5FR8UD2DAEI188CNW51X3L,2303,090482_0.553030303030303.png,2,28,live
225,A3M40SGP17FJJM:35DR22AR5FR8UD2DAEI188CNW51X3L,4017,036571_0.09848484848484851.png,2,29,live
226,A3M40SGP17FJJM:35DR22AR5FR8UD2DAEI188CNW51X3L,2900,026104_-0.4772727272727273.png,1,30,live
227,A3M40SGP17FJJM:35DR22AR5FR8UD2DAEI188CNW51X3L,2726,167679_0.3712121212121213.png,2,31,live
228,A3M40SGP17FJJM:35DR22AR5FR8UD2DAEI188CNW51X3L,3825,098631_0.23484848484848486.png,2,32,live
229,A3M40SGP17FJJM:35DR22AR5FR8UD2DAEI188CNW51X3L,3769,010202_-0.32575757575757575.png,2,33,live
230,A3M40SGP17FJJM:35DR22AR5FR8UD2DAEI188CNW51X3L,2219,098030_0.41666666666666674.png,2,35,live
231,A3M40SGP17FJJM:35DR22AR5FR8UD2DAEI188CNW51X3L,3206,141962_-0.08333333333333326.png,2,36,live
232,A3M40SGP17FJJM:35DR22AR5FR8UD2DAEI188CNW51X3L,2683,180191_-0.44696969696969696.png,1,37,live
233,A3M40SGP17FJJM:35DR22AR5FR8UD2DAEI188CNW51X3L,5254,180638_-0.26515151515151514.png,4,38,live
234,A3M40SGP17FJJM:35DR22AR5FR8UD2DAEI188CNW51X3L,2363,025504_0.75.png,1,39,live
235,A3M40SGP17FJJM:35DR22AR5FR8UD2DAEI188CNW51X3L,2820,018758_-0.23484848484848486.png,2,40,live
236,A3M40SGP17FJJM:35DR22AR5FR8UD2DAEI188CNW51X3L,2666,127629_0.7045454545454546.png,1,41,live
237,A3M40SGP17FJJM:35DR22AR5FR8UD2DAEI188CNW51X3L,1921,134466_0.6742424242424243.png,1,42,live
238,A3M40SGP17FJJM:35DR22AR5FR8UD2DAEI188CNW51X3L,3015,144397_0.26515151515151514.png,3,43,live
239,A3M40SGP17FJJM:35DR22AR5FR8UD2DAEI188CNW51X3L,2545,045867_-0.4621212121212121.png,3,44,live
240,A3M40SGP17FJJM:35DR22AR5FR8UD2DAEI188CNW51X3L,2196,059180_-0.15909090909090906.png,4,46,live
241,A3M40SGP17FJJM:35DR22AR5FR8UD2DAEI188CNW51X3L,2213,144397_0.26515151515151514.png,3,47,live
242,A3M40SGP17FJJM:35DR22AR5FR8UD2DAEI188CNW51X3L,2792,030657_-0.6590909090909091.png,7,48,live
243,A3M40SGP17FJJM:35DR22AR5FR8UD2DAEI188CNW51X3L,3674,032683_0.007575757575757569.png,2,49,live
244,A3M40SGP17FJJM:35DR22AR5FR8UD2DAEI188CNW51X3L,2200,165559_-0.5227272727272727.png,2,50,live
245,A3M40SGP17FJJM:35DR22AR5FR8UD2DAEI188CNW51X3L,4751,172473_0.6590909090909092.png,2,51,live
246,A3M40SGP17FJJM:35DR22AR5FR8UD2DAEI188CNW51X3L,2249,032145_-0.3560606060606061.png,2,52,live
247,A3M40SGP17FJJM:35DR22AR5FR8UD2DAEI188CNW51X3L,2544,109247_0.6136363636363638.png,4,53,live
248,A3M40SGP17FJJM:35DR22AR5FR8UD2DAEI188CNW51X3L,2437,040610_-0.553030303030303.png,1,54,live
249,A3M40SGP17FJJM:35DR22AR5FR8UD2DAEI188CNW51X3L,2242,112685_-0.007575757575757569.png,1,55,live
250,A3M40SGP17FJJM:35DR22AR5FR8UD2DAEI188CNW51X3L,8083,164278_-0.3409090909090909.png,4,57,live
251,A3M40SGP17FJJM:35DR22AR5FR8UD2DAEI188CNW51X3L,2111,106456_-0.6742424242424242.png,2,58,live
252,A3M40SGP17FJJM:35DR22AR5FR8UD2DAEI188CNW51X3L,4069,031230_0.2954545454545454.png,2,59,live
253,A3M40SGP17FJJM:35DR22AR5FR8UD2DAEI188CNW51X3L,2354,160014_-0.18939393939393934.png,2,60,live
254,A3M40SGP17FJJM:35DR22AR5FR8UD2DAEI188CNW51X3L,1852,133467_-0.3106060606060606.png,1,61,live
255,A3M40SGP17FJJM:35DR22AR5FR8UD2DAEI188CNW51X3L,2241,027333_-0.6287878787878788.png,4,62,live
256,A3M40SGP17FJJM:35DR22AR5FR8UD2DAEI188CNW51X3L,1665,026389_-0.022727272727272707.png,1,63,live
257,A3M40SGP17FJJM:35DR22AR5FR8UD2DAEI188CNW51X3L,3670,026389_-0.022727272727272707.png,1,64,live
258,A3M40SGP17FJJM:35DR22AR5FR8UD2DAEI188CNW51X3L,3212,164329_0.5075757575757576.png,4,65,live
259,A3M40SGP17FJJM:35DR22AR5FR8UD2DAEI188CNW51X3L,4191,099376_0.5378787878787878.png,2,66,live
260,A3M40SGP17FJJM:35DR22AR5FR8UD2DAEI188CNW51X3L,2042,080609_0.5227272727272727.png,1,68,live
261,A3M40SGP17FJJM:35DR22AR5FR8UD2DAEI188CNW51X3L,10573,044525_0.4015151515151516.png,3,69,live
262,A3M40SGP17FJJM:35DR22AR5FR8UD2DAEI188CNW51X3L,2596,141261_0.18939393939393945.png,2,70,live
263,A3M40SGP17FJJM:35DR22AR5FR8UD2DAEI188CNW51X3L,4421,080609_0.5227272727272727.png,2,71,live
264,A3M40SGP17FJJM:35DR22AR5FR8UD2DAEI188CNW51X3L,2984,103635_0.25.png,1,72,live
265,A3M40SGP17FJJM:35DR22AR5FR8UD2DAEI188CNW51X3L,2221,164278_-0.3409090909090909.png,4,73,live
266,A3M40SGP17FJJM:35DR22AR5FR8UD2DAEI188CNW51X3L,4431,113917_-0.25.png,3,74,live
267,A3M40SGP17FJJM:35DR22AR5FR8UD2DAEI188CNW51X3L,3884,023416_-0.5984848484848485.png,1,75,live
268,A3M40SGP17FJJM:35DR22AR5FR8UD2DAEI188CNW51X3L,2357,010202_-0.32575757575757575.png,2,76,live
269,A3M40SGP17FJJM:35DR22AR5FR8UD2DAEI188CNW51X3L,2253,103635_0.25.png,1,77,live
270,A3M40SGP17FJJM:35DR22AR5FR8UD2DAEI188CNW51X3L,2396,154698_-0.20454545454545459.png,1,79,live
271,A3M40SGP17FJJM:35DR22AR5FR8UD2DAEI188CNW51X3L,1928,006580_-0.1742424242424242.png,1,80,live
272,A3M40SGP17FJJM:35DR22AR5FR8UD2DAEI188CNW51X3L,2079,006240_0.3560606060606062.png,3,81,live
273,A3M40SGP17FJJM:35DR22AR5FR8UD2DAEI188CNW51X3L,1946,154764_-0.09848484848484851.png,1,82,live
274,A3M40SGP17FJJM:35DR22AR5FR8UD2DAEI188CNW51X3L,2115,167548_0.022727272727272707.png,1,83,live
275,A3M40SGP17FJJM:35DR22AR5FR8UD2DAEI188CNW51X3L,2981,167679_0.3712121212121213.png,2,84,live
276,A3M40SGP17FJJM:35DR22AR5FR8UD2DAEI188CNW51X3L,3977,182685_0.446969696969697.png,3,85,live
277,A3M40SGP17FJJM:35DR22AR5FR8UD2DAEI188CNW51X3L,2004,179630_0.037878787878787845.png,1,86,live
278,A3M40SGP17FJJM:35DR22AR5FR8UD2DAEI188CNW51X3L,2176,195398_-0.14393939393939392.png,1,87,live
279,A3M40SGP17FJJM:35DR22AR5FR8UD2DAEI188CNW51X3L,3897,042205_-0.5075757575757576.png,5,88,live
280,A3M40SGP17FJJM:35DR22AR5FR8UD2DAEI188CNW51X3L,3586,050886_-0.5681818181818181.png,3,90,live
281,A3M40SGP17FJJM:35DR22AR5FR8UD2DAEI188CNW51X3L,2265,067211_0.5833333333333335.png,2,91,live
282,A3M40SGP17FJJM:35DR22AR5FR8UD2DAEI188CNW51X3L,2314,119374_0.38636363636363646.png,5,92,live
283,A3M40SGP17FJJM:35DR22AR5FR8UD2DAEI188CNW51X3L,2087,031175_-0.5833333333333333.png,1,93,live
284,A3M40SGP17FJJM:35DR22AR5FR8UD2DAEI188CNW51X3L,2010,109247_0.6136363636363638.png,3,94,live
285,A3M40SGP17FJJM:35DR22AR5FR8UD2DAEI188CNW51X3L,3570,102475_0.1742424242424243.png,1,95,live
286,A3M40SGP17FJJM:35DR22AR5FR8UD2DAEI188CNW51X3L,4030,134277_0.5984848484848486.png,3,96,live
287,A3M40SGP17FJJM:35DR22AR5FR8UD2DAEI188CNW51X3L,3490,001195_-0.38636363636363635.png,1,97,live
288,A3M40SGP17FJJM:35DR22AR5FR8UD2DAEI188CNW51X3L,3547,150226_0.3257575757575757.png,2,98,live
289,A3M40SGP17FJJM:35DR22AR5FR8UD2DAEI188CNW51X3L,1789,008091_-0.6439393939393939.png,1,99,live
290,A3M40SGP17FJJM:35DR22AR5FR8UD2DAEI188CNW51X3L,3521,033672_-0.41666666666666663.png,4,101,live
291,A3M40SGP17FJJM:35DR22AR5FR8UD2DAEI188CNW51X3L,1839,179630_0.037878787878787845.png,1,102,live
292,A3M40SGP17FJJM:35DR22AR5FR8UD2DAEI188CNW51X3L,2791,125135_-0.7348484848484849.png,3,103,live
293,A3M40SGP17FJJM:35DR22AR5FR8UD2DAEI188CNW51X3L,3771,119374_0.38636363636363646.png,6,104,live
294,A3M40SGP17FJJM:35DR22AR5FR8UD2DAEI188CNW51X3L,3471,163106_0.20454545454545459.png,3,105,live
295,A3M40SGP17FJJM:35DR22AR5FR8UD2DAEI188CNW51X3L,4688,127629_0.7045454545454546.png,2,106,live
296,A3M40SGP17FJJM:35DR22AR5FR8UD2DAEI188CNW51X3L,3166,114340_-0.12878787878787878.png,2,107,live
297,A3M40SGP17FJJM:35DR22AR5FR8UD2DAEI188CNW51X3L,2622,167696_0.643939393939394.png,1,108,live
298,A3M40SGP17FJJM:35DR22AR5FR8UD2DAEI188CNW51X3L,2313,053178_0.06818181818181823.png,7,109,live
299,A3M40SGP17FJJM:35DR22AR5FR8UD2DAEI188CNW51X3L,2302,012864_0.2803030303030303.png,3,110,live
300,A3CJBVOK16PA00:3137ONMDKIC0IPNKAOZT3DGPK4WEG2,7375,044525_0.4015151515151516.png,5,2,live
301,A3CJBVOK16PA00:3137ONMDKIC0IPNKAOZT3DGPK4WEG2,5818,142593_0.15909090909090917.png,4,3,live
302,A3CJBVOK16PA00:3137ONMDKIC0IPNKAOZT3DGPK4WEG2,2964,040610_-0.553030303030303.png,6,4,live
303,A3CJBVOK16PA00:3137ONMDKIC0IPNKAOZT3DGPK4WEG2,2572,026534_0.21969696969696972.png,7,5,live
304,A3CJBVOK16PA00:3137ONMDKIC0IPNKAOZT3DGPK4WEG2,3077,150226_0.3257575757575757.png,8,6,live
305,A3CJBVOK16PA00:3137ONMDKIC0IPNKAOZT3DGPK4WEG2,2642,080609_0.5227272727272727.png,6,7,live
306,A3CJBVOK16PA00:3137ONMDKIC0IPNKAOZT3DGPK4WEG2,2372,041829_-0.4015151515151515.png,8,8,live
307,A3CJBVOK16PA00:3137ONMDKIC0IPNKAOZT3DGPK4WEG2,2628,110088_-0.11363636363636365.png,9,9,live
308,A3CJBVOK16PA00:3137ONMDKIC0IPNKAOZT3DGPK4WEG2,2628,090482_0.553030303030303.png,6,10,live
309,A3CJBVOK16PA00:3137ONMDKIC0IPNKAOZT3DGPK4WEG2,4964,090482_0.553030303030303.png,6,11,live
310,A3CJBVOK16PA00:3137ONMDKIC0IPNKAOZT3DGPK4WEG2,2658,109247_0.6136363636363638.png,7,13,live
311,A3CJBVOK16PA00:3137ONMDKIC0IPNKAOZT3DGPK4WEG2,2739,023784_0.6893939393939394.png,8,14,live
312,A3CJBVOK16PA00:3137ONMDKIC0IPNKAOZT3DGPK4WEG2,2571,134466_0.6742424242424243.png,5,15,live
313,A3CJBVOK16PA00:3137ONMDKIC0IPNKAOZT3DGPK4WEG2,4653,010202_-0.32575757575757575.png,7,16,live
314,A3CJBVOK16PA00:3137ONMDKIC0IPNKAOZT3DGPK4WEG2,3420,141261_0.18939393939393945.png,6,17,live
315,A3CJBVOK16PA00:3137ONMDKIC0IPNKAOZT3DGPK4WEG2,4251,067211_0.5833333333333335.png,4,18,live
316,A3CJBVOK16PA00:3137ONMDKIC0IPNKAOZT3DGPK4WEG2,2399,180638_-0.26515151515151514.png,7,19,live
317,A3CJBVOK16PA00:3137ONMDKIC0IPNKAOZT3DGPK4WEG2,2780,026104_-0.4772727272727273.png,6,20,live
318,A3CJBVOK16PA00:3137ONMDKIC0IPNKAOZT3DGPK4WEG2,3309,038177_-0.7196969696969697.png,4,21,live
319,A3CJBVOK16PA00:3137ONMDKIC0IPNKAOZT3DGPK4WEG2,3036,053178_0.06818181818181823.png,6,22,live
320,A3CJBVOK16PA00:3137ONMDKIC0IPNKAOZT3DGPK4WEG2,2418,031230_0.2954545454545454.png,6,24,live
321,A3CJBVOK16PA00:3137ONMDKIC0IPNKAOZT3DGPK4WEG2,2372,164278_-0.3409090909090909.png,7,25,live
322,A3CJBVOK16PA00:3137ONMDKIC0IPNKAOZT3DGPK4WEG2,2060,114340_-0.12878787878787878.png,8,26,live
323,A3CJBVOK16PA00:3137ONMDKIC0IPNKAOZT3DGPK4WEG2,2516,179630_0.037878787878787845.png,5,27,live
324,A3CJBVOK16PA00:3137ONMDKIC0IPNKAOZT3DGPK4WEG2,2284,010202_-0.32575757575757575.png,6,28,live
325,A3CJBVOK16PA00:3137ONMDKIC0IPNKAOZT3DGPK4WEG2,3699,127629_0.7045454545454546.png,8,29,live
326,A3CJBVOK16PA00:3137ONMDKIC0IPNKAOZT3DGPK4WEG2,2389,154764_-0.09848484848484851.png,7,30,live
327,A3CJBVOK16PA00:3137ONMDKIC0IPNKAOZT3DGPK4WEG2,2180,163106_0.20454545454545459.png,6,31,live
328,A3CJBVOK16PA00:3137ONMDKIC0IPNKAOZT3DGPK4WEG2,2598,030657_-0.6590909090909091.png,9,32,live
329,A3CJBVOK16PA00:3137ONMDKIC0IPNKAOZT3DGPK4WEG2,98515,026389_-0.022727272727272707.png,6,33,live
330,A3CJBVOK16PA00:3137ONMDKIC0IPNKAOZT3DGPK4WEG2,1849,195398_-0.14393939393939392.png,8,35,live
331,A3CJBVOK16PA00:3137ONMDKIC0IPNKAOZT3DGPK4WEG2,1955,179630_0.037878787878787845.png,6,36,live
332,A3CJBVOK16PA00:3137ONMDKIC0IPNKAOZT3DGPK4WEG2,3686,081779_0.34090909090909083.png,7,37,live
333,A3CJBVOK16PA00:3137ONMDKIC0IPNKAOZT3DGPK4WEG2,4396,133467_-0.3106060606060606.png,8,38,live
334,A3CJBVOK16PA00:3137ONMDKIC0IPNKAOZT3DGPK4WEG2,1924,032683_0.007575757575757569.png,5,39,live
335,A3CJBVOK16PA00:3137ONMDKIC0IPNKAOZT3DGPK4WEG2,2060,045867_-0.4621212121212121.png,6,40,live
336,A3CJBVOK16PA00:3137ONMDKIC0IPNKAOZT3DGPK4WEG2,1932,080609_0.5227272727272727.png,4,41,live
337,A3CJBVOK16PA00:3137ONMDKIC0IPNKAOZT3DGPK4WEG2,1644,112685_-0.007575757575757569.png,5,42,live
338,A3CJBVOK16PA00:3137ONMDKIC0IPNKAOZT3DGPK4WEG2,1837,049976_-0.3712121212121212.png,6,43,live
339,A3CJBVOK16PA00:3137ONMDKIC0IPNKAOZT3DGPK4WEG2,1980,043491_-0.4318181818181818.png,7,44,live
340,A3CJBVOK16PA00:3137ONMDKIC0IPNKAOZT3DGPK4WEG2,2330,106456_-0.6742424242424242.png,4,46,live
341,A3CJBVOK16PA00:3137ONMDKIC0IPNKAOZT3DGPK4WEG2,1940,167679_0.3712121212121213.png,5,47,live
342,A3CJBVOK16PA00:3137ONMDKIC0IPNKAOZT3DGPK4WEG2,2506,027333_-0.6287878787878788.png,6,48,live
343,A3CJBVOK16PA00:3137ONMDKIC0IPNKAOZT3DGPK4WEG2,2528,038177_-0.7196969696969697.png,8,49,live
344,A3CJBVOK16PA00:3137ONMDKIC0IPNKAOZT3DGPK4WEG2,1972,119374_0.38636363636363646.png,5,50,live
345,A3CJBVOK16PA00:3137ONMDKIC0IPNKAOZT3DGPK4WEG2,1899,012864_0.2803030303030303.png,6,51,live
346,A3CJBVOK16PA00:3137ONMDKIC0IPNKAOZT3DGPK4WEG2,1592,043491_-0.4318181818181818.png,5,52,live
347,A3CJBVOK16PA00:3137ONMDKIC0IPNKAOZT3DGPK4WEG2,4323,154698_-0.20454545454545459.png,8,53,live
348,A3CJBVOK16PA00:3137ONMDKIC0IPNKAOZT3DGPK4WEG2,2840,198714_0.6287878787878789.png,9,54,live
349,A3CJBVOK16PA00:3137ONMDKIC0IPNKAOZT3DGPK4WEG2,2036,031175_-0.5833333333333333.png,7,55,live
350,A3CJBVOK16PA00:3137ONMDKIC0IPNKAOZT3DGPK4WEG2,1837,127629_0.7045454545454546.png,6,57,live
351,A3CJBVOK16PA00:3137ONMDKIC0IPNKAOZT3DGPK4WEG2,9948,032145_-0.3560606060606061.png,7,58,live
352,A3CJBVOK16PA00:3137ONMDKIC0IPNKAOZT3DGPK4WEG2,2619,018758_-0.23484848484848486.png,8,59,live
353,A3CJBVOK16PA00:3137ONMDKIC0IPNKAOZT3DGPK4WEG2,2051,144397_0.26515151515151514.png,5,60,live
354,A3CJBVOK16PA00:3137ONMDKIC0IPNKAOZT3DGPK4WEG2,2203,032145_-0.3560606060606061.png,8,61,live
355,A3CJBVOK16PA00:3137ONMDKIC0IPNKAOZT3DGPK4WEG2,1659,154698_-0.20454545454545459.png,6,62,live
356,A3CJBVOK16PA00:3137ONMDKIC0IPNKAOZT3DGPK4WEG2,2807,102475_0.1742424242424243.png,7,63,live
357,A3CJBVOK16PA00:3137ONMDKIC0IPNKAOZT3DGPK4WEG2,2404,053178_0.06818181818181823.png,8,64,live
358,A3CJBVOK16PA00:3137ONMDKIC0IPNKAOZT3DGPK4WEG2,2307,098631_0.23484848484848486.png,6,65,live
359,A3CJBVOK16PA00:3137ONMDKIC0IPNKAOZT3DGPK4WEG2,1908,182685_0.446969696969697.png,5,66,live
360,A3CJBVOK16PA00:3137ONMDKIC0IPNKAOZT3DGPK4WEG2,2121,141962_-0.08333333333333326.png,4,68,live
361,A3CJBVOK16PA00:3137ONMDKIC0IPNKAOZT3DGPK4WEG2,2032,006240_0.3560606060606062.png,6,69,live
362,A3CJBVOK16PA00:3137ONMDKIC0IPNKAOZT3DGPK4WEG2,1739,023416_-0.5984848484848485.png,5,70,live
363,A3CJBVOK16PA00:3137ONMDKIC0IPNKAOZT3DGPK4WEG2,2539,042205_-0.5075757575757576.png,7,71,live
364,A3CJBVOK16PA00:3137ONMDKIC0IPNKAOZT3DGPK4WEG2,1963,026389_-0.022727272727272707.png,5,72,live
365,A3CJBVOK16PA00:3137ONMDKIC0IPNKAOZT3DGPK4WEG2,1709,048059_0.46212121212121215.png,6,73,live
366,A3CJBVOK16PA00:3137ONMDKIC0IPNKAOZT3DGPK4WEG2,1539,059180_-0.15909090909090906.png,7,74,live
367,A3CJBVOK16PA00:3137ONMDKIC0IPNKAOZT3DGPK4WEG2,1824,167548_0.022727272727272707.png,5,75,live
368,A3CJBVOK16PA00:3137ONMDKIC0IPNKAOZT3DGPK4WEG2,3172,025504_0.75.png,8,76,live
369,A3CJBVOK16PA00:3137ONMDKIC0IPNKAOZT3DGPK4WEG2,2428,119374_0.38636363636363646.png,9,77,live
370,A3CJBVOK16PA00:3137ONMDKIC0IPNKAOZT3DGPK4WEG2,1971,098030_0.41666666666666674.png,5,79,live
371,A3CJBVOK16PA00:3137ONMDKIC0IPNKAOZT3DGPK4WEG2,2499,006580_-0.1742424242424242.png,6,80,live
372,A3CJBVOK16PA00:3137ONMDKIC0IPNKAOZT3DGPK4WEG2,2195,160014_-0.18939393939393934.png,4,81,live
373,A3CJBVOK16PA00:3137ONMDKIC0IPNKAOZT3DGPK4WEG2,4230,164278_-0.3409090909090909.png,6,82,live
374,A3CJBVOK16PA00:3137ONMDKIC0IPNKAOZT3DGPK4WEG2,2172,042441_-0.75.png,7,83,live
375,A3CJBVOK16PA00:3137ONMDKIC0IPNKAOZT3DGPK4WEG2,1964,144397_0.26515151515151514.png,5,84,live
376,A3CJBVOK16PA00:3137ONMDKIC0IPNKAOZT3DGPK4WEG2,2629,148397_-0.037878787878787845.png,7,85,live
377,A3CJBVOK16PA00:3137ONMDKIC0IPNKAOZT3DGPK4WEG2,2052,165559_-0.5227272727272727.png,6,86,live
378,A3CJBVOK16PA00:3137ONMDKIC0IPNKAOZT3DGPK4WEG2,2796,112685_-0.007575757575757569.png,8,87,live
379,A3CJBVOK16PA00:3137ONMDKIC0IPNKAOZT3DGPK4WEG2,2100,099376_0.5378787878787878.png,6,88,live
380,A3CJBVOK16PA00:3137ONMDKIC0IPNKAOZT3DGPK4WEG2,1828,033672_-0.41666666666666663.png,5,90,live
381,A3CJBVOK16PA00:3137ONMDKIC0IPNKAOZT3DGPK4WEG2,1930,113917_-0.25.png,6,91,live
382,A3CJBVOK16PA00:3137ONMDKIC0IPNKAOZT3DGPK4WEG2,1912,134277_0.5984848484848486.png,7,92,live
383,A3CJBVOK16PA00:3137ONMDKIC0IPNKAOZT3DGPK4WEG2,1779,001195_-0.38636363636363635.png,5,93,live
384,A3CJBVOK16PA00:3137ONMDKIC0IPNKAOZT3DGPK4WEG2,1797,050886_-0.5681818181818181.png,6,94,live
385,A3CJBVOK16PA00:3137ONMDKIC0IPNKAOZT3DGPK4WEG2,1923,125135_-0.7348484848484849.png,7,95,live
386,A3CJBVOK16PA00:3137ONMDKIC0IPNKAOZT3DGPK4WEG2,1900,109247_0.6136363636363638.png,8,96,live
387,A3CJBVOK16PA00:3137ONMDKIC0IPNKAOZT3DGPK4WEG2,2453,164329_0.5075757575757576.png,6,97,live
388,A3CJBVOK16PA00:3137ONMDKIC0IPNKAOZT3DGPK4WEG2,1844,065471_0.053030303030303094.png,5,98,live
389,A3CJBVOK16PA00:3137ONMDKIC0IPNKAOZT3DGPK4WEG2,1892,012864_0.2803030303030303.png,6,99,live
390,A3CJBVOK16PA00:3137ONMDKIC0IPNKAOZT3DGPK4WEG2,1723,065471_0.053030303030303094.png,6,101,live
391,A3CJBVOK16PA00:3137ONMDKIC0IPNKAOZT3DGPK4WEG2,2044,036571_0.09848484848484851.png,5,102,live
392,A3CJBVOK16PA00:3137ONMDKIC0IPNKAOZT3DGPK4WEG2,2012,103635_0.25.png,7,103,live
393,A3CJBVOK16PA00:3137ONMDKIC0IPNKAOZT3DGPK4WEG2,2301,167696_0.643939393939394.png,8,104,live
394,A3CJBVOK16PA00:3137ONMDKIC0IPNKAOZT3DGPK4WEG2,2899,167679_0.3712121212121213.png,5,105,live
395,A3CJBVOK16PA00:3137ONMDKIC0IPNKAOZT3DGPK4WEG2,1894,180191_-0.44696969696969696.png,4,106,live
396,A3CJBVOK16PA00:3137ONMDKIC0IPNKAOZT3DGPK4WEG2,4037,061283_-0.49242424242424243.png,4,107,live
397,A3CJBVOK16PA00:3137ONMDKIC0IPNKAOZT3DGPK4WEG2,4219,008091_-0.6439393939393939.png,5,108,live
398,A3CJBVOK16PA00:3137ONMDKIC0IPNKAOZT3DGPK4WEG2,1707,172473_0.6590909090909092.png,4,109,live
399,A3CJBVOK16PA00:3137ONMDKIC0IPNKAOZT3DGPK4WEG2,1858,103635_0.25.png,6,110,live
400,A30UE6DWFNUCWX:3R2UR8A0ICNXG2VZTC2TWBAYRWXOX7,25898,110088_-0.11363636363636365.png,4,2,live
401,A30UE6DWFNUCWX:3R2UR8A0ICNXG2VZTC2TWBAYRWXOX7,8604,141962_-0.08333333333333326.png,2,3,live
402,A30UE6DWFNUCWX:3R2UR8A0ICNXG2VZTC2TWBAYRWXOX7,43002,141261_0.18939393939393945.png,3,4,live
403,A30UE6DWFNUCWX:3R2UR8A0ICNXG2VZTC2TWBAYRWXOX7,7827,119374_0.38636363636363646.png,7,5,live
404,A30UE6DWFNUCWX:3R2UR8A0ICNXG2VZTC2TWBAYRWXOX7,3316,031230_0.2954545454545454.png,2,6,live
405,A30UE6DWFNUCWX:3R2UR8A0ICNXG2VZTC2TWBAYRWXOX7,3070,006240_0.3560606060606062.png,4,7,live
406,A30UE6DWFNUCWX:3R2UR8A0ICNXG2VZTC2TWBAYRWXOX7,4606,080609_0.5227272727272727.png,1,8,live
407,A30UE6DWFNUCWX:3R2UR8A0ICNXG2VZTC2TWBAYRWXOX7,4694,023784_0.6893939393939394.png,5,9,live
408,A30UE6DWFNUCWX:3R2UR8A0ICNXG2VZTC2TWBAYRWXOX7,3358,048059_0.46212121212121215.png,2,10,live
409,A30UE6DWFNUCWX:3R2UR8A0ICNXG2VZTC2TWBAYRWXOX7,3374,065471_0.053030303030303094.png,9,11,live
410,A30UE6DWFNUCWX:3R2UR8A0ICNXG2VZTC2TWBAYRWXOX7,5542,080609_0.5227272727272727.png,1,13,live
411,A30UE6DWFNUCWX:3R2UR8A0ICNXG2VZTC2TWBAYRWXOX7,3077,172473_0.6590909090909092.png,3,14,live
412,A30UE6DWFNUCWX:3R2UR8A0ICNXG2VZTC2TWBAYRWXOX7,2664,144397_0.26515151515151514.png,6,15,live
413,A30UE6DWFNUCWX:3R2UR8A0ICNXG2VZTC2TWBAYRWXOX7,4494,030657_-0.6590909090909091.png,7,16,live
414,A30UE6DWFNUCWX:3R2UR8A0ICNXG2VZTC2TWBAYRWXOX7,3590,032145_-0.3560606060606061.png,3,17,live
415,A30UE6DWFNUCWX:3R2UR8A0ICNXG2VZTC2TWBAYRWXOX7,3127,180191_-0.44696969696969696.png,2,18,live
416,A30UE6DWFNUCWX:3R2UR8A0ICNXG2VZTC2TWBAYRWXOX7,3701,164329_0.5075757575757576.png,4,19,live
417,A30UE6DWFNUCWX:3R2UR8A0ICNXG2VZTC2TWBAYRWXOX7,4223,045867_-0.4621212121212121.png,5,20,live
418,A30UE6DWFNUCWX:3R2UR8A0ICNXG2VZTC2TWBAYRWXOX7,6133,010202_-0.32575757575757575.png,6,21,live
419,A30UE6DWFNUCWX:3R2UR8A0ICNXG2VZTC2TWBAYRWXOX7,3759,023416_-0.5984848484848485.png,1,22,live
420,A30UE6DWFNUCWX:3R2UR8A0ICNXG2VZTC2TWBAYRWXOX7,2960,195398_-0.14393939393939392.png,2,24,live
421,A30UE6DWFNUCWX:3R2UR8A0ICNXG2VZTC2TWBAYRWXOX7,2693,099376_0.5378787878787878.png,4,25,live
422,A30UE6DWFNUCWX:3R2UR8A0ICNXG2VZTC2TWBAYRWXOX7,3231,008091_-0.6439393939393939.png,1,26,live
423,A30UE6DWFNUCWX:3R2UR8A0ICNXG2VZTC2TWBAYRWXOX7,3006,167679_0.3712121212121213.png,7,27,live
424,A30UE6DWFNUCWX:3R2UR8A0ICNXG2VZTC2TWBAYRWXOX7,4989,148397_-0.037878787878787845.png,5,28,live
425,A30UE6DWFNUCWX:3R2UR8A0ICNXG2VZTC2TWBAYRWXOX7,7558,081779_0.34090909090909083.png,2,29,live
426,A30UE6DWFNUCWX:3R2UR8A0ICNXG2VZTC2TWBAYRWXOX7,2991,043491_-0.4318181818181818.png,4,30,live
427,A30UE6DWFNUCWX:3R2UR8A0ICNXG2VZTC2TWBAYRWXOX7,3518,031175_-0.5833333333333333.png,2,31,live
428,A30UE6DWFNUCWX:3R2UR8A0ICNXG2VZTC2TWBAYRWXOX7,3911,164278_-0.3409090909090909.png,8,32,live
429,A30UE6DWFNUCWX:3R2UR8A0ICNXG2VZTC2TWBAYRWXOX7,3942,164278_-0.3409090909090909.png,8,33,live
430,A30UE6DWFNUCWX:3R2UR8A0ICNXG2VZTC2TWBAYRWXOX7,2618,012864_0.2803030303030303.png,7,35,live
431,A30UE6DWFNUCWX:3R2UR8A0ICNXG2VZTC2TWBAYRWXOX7,3621,103635_0.25.png,3,36,live
432,A30UE6DWFNUCWX:3R2UR8A0ICNXG2VZTC2TWBAYRWXOX7,2911,049976_-0.3712121212121212.png,5,37,live
433,A30UE6DWFNUCWX:3R2UR8A0ICNXG2VZTC2TWBAYRWXOX7,5229,025504_0.75.png,2,38,live
434,A30UE6DWFNUCWX:3R2UR8A0ICNXG2VZTC2TWBAYRWXOX7,3486,154698_-0.20454545454545459.png,1,39,live
435,A30UE6DWFNUCWX:3R2UR8A0ICNXG2VZTC2TWBAYRWXOX7,3310,125135_-0.7348484848484849.png,4,40,live
436,A30UE6DWFNUCWX:3R2UR8A0ICNXG2VZTC2TWBAYRWXOX7,2965,059180_-0.15909090909090906.png,3,41,live
437,A30UE6DWFNUCWX:3R2UR8A0ICNXG2VZTC2TWBAYRWXOX7,3149,182685_0.446969696969697.png,6,42,live
438,A30UE6DWFNUCWX:3R2UR8A0ICNXG2VZTC2TWBAYRWXOX7,2733,134466_0.6742424242424243.png,5,43,live
439,A30UE6DWFNUCWX:3R2UR8A0ICNXG2VZTC2TWBAYRWXOX7,2647,113917_-0.25.png,6,44,live
440,A30UE6DWFNUCWX:3R2UR8A0ICNXG2VZTC2TWBAYRWXOX7,3403,119374_0.38636363636363646.png,7,46,live
441,A30UE6DWFNUCWX:3R2UR8A0ICNXG2VZTC2TWBAYRWXOX7,2287,167548_0.022727272727272707.png,7,47,live
442,A30UE6DWFNUCWX:3R2UR8A0ICNXG2VZTC2TWBAYRWXOX7,2917,109247_0.6136363636363638.png,8,48,live
443,A30UE6DWFNUCWX:3R2UR8A0ICNXG2VZTC2TWBAYRWXOX7,4558,053178_0.06818181818181823.png,8,49,live
444,A30UE6DWFNUCWX:3R2UR8A0ICNXG2VZTC2TWBAYRWXOX7,3415,133467_-0.3106060606060606.png,1,50,live
445,A30UE6DWFNUCWX:3R2UR8A0ICNXG2VZTC2TWBAYRWXOX7,2271,154764_-0.09848484848484851.png,1,51,live
446,A30UE6DWFNUCWX:3R2UR8A0ICNXG2VZTC2TWBAYRWXOX7,2495,032683_0.007575757575757569.png,4,52,live
447,A30UE6DWFNUCWX:3R2UR8A0ICNXG2VZTC2TWBAYRWXOX7,2637,090482_0.553030303030303.png,6,53,live
448,A30UE6DWFNUCWX:3R2UR8A0ICNXG2VZTC2TWBAYRWXOX7,3766,018758_-0.23484848484848486.png,6,54,live
449,A30UE6DWFNUCWX:3R2UR8A0ICNXG2VZTC2TWBAYRWXOX7,2887,198714_0.6287878787878789.png,3,55,live
450,A30UE6DWFNUCWX:3R2UR8A0ICNXG2VZTC2TWBAYRWXOX7,3450,042205_-0.5075757575757576.png,9,57,live
451,A30UE6DWFNUCWX:3R2UR8A0ICNXG2VZTC2TWBAYRWXOX7,3427,050886_-0.5681818181818181.png,8,58,live
452,A30UE6DWFNUCWX:3R2UR8A0ICNXG2VZTC2TWBAYRWXOX7,5054,001195_-0.38636363636363635.png,2,59,live
453,A30UE6DWFNUCWX:3R2UR8A0ICNXG2VZTC2TWBAYRWXOX7,5341,179630_0.037878787878787845.png,2,60,live
454,A30UE6DWFNUCWX:3R2UR8A0ICNXG2VZTC2TWBAYRWXOX7,5694,038177_-0.7196969696969697.png,2,61,live
455,A30UE6DWFNUCWX:3R2UR8A0ICNXG2VZTC2TWBAYRWXOX7,3069,167696_0.643939393939394.png,3,62,live
456,A30UE6DWFNUCWX:3R2UR8A0ICNXG2VZTC2TWBAYRWXOX7,3310,065471_0.053030303030303094.png,8,63,live
457,A30UE6DWFNUCWX:3R2UR8A0ICNXG2VZTC2TWBAYRWXOX7,2966,112685_-0.007575757575757569.png,4,64,live
458,A30UE6DWFNUCWX:3R2UR8A0ICNXG2VZTC2TWBAYRWXOX7,2977,027333_-0.6287878787878788.png,3,65,live
459,A30UE6DWFNUCWX:3R2UR8A0ICNXG2VZTC2TWBAYRWXOX7,6923,102475_0.1742424242424243.png,2,66,live
460,A30UE6DWFNUCWX:3R2UR8A0ICNXG2VZTC2TWBAYRWXOX7,3595,061283_-0.49242424242424243.png,1,68,live
461,A30UE6DWFNUCWX:3R2UR8A0ICNXG2VZTC2TWBAYRWXOX7,2502,042441_-0.75.png,2,69,live
462,A30UE6DWFNUCWX:3R2UR8A0ICNXG2VZTC2TWBAYRWXOX7,2852,167679_0.3712121212121213.png,6,70,live
463,A30UE6DWFNUCWX:3R2UR8A0ICNXG2VZTC2TWBAYRWXOX7,2558,098631_0.23484848484848486.png,3,71,live
464,A30UE6DWFNUCWX:3R2UR8A0ICNXG2VZTC2TWBAYRWXOX7,2766,127629_0.7045454545454546.png,4,72,live
465,A30UE6DWFNUCWX:3R2UR8A0ICNXG2VZTC2TWBAYRWXOX7,5415,043491_-0.4318181818181818.png,3,73,live
466,A30UE6DWFNUCWX:3R2UR8A0ICNXG2VZTC2TWBAYRWXOX7,5046,134277_0.5984848484848486.png,5,74,live
467,A30UE6DWFNUCWX:3R2UR8A0ICNXG2VZTC2TWBAYRWXOX7,3118,010202_-0.32575757575757575.png,6,75,live
468,A30UE6DWFNUCWX:3R2UR8A0ICNXG2VZTC2TWBAYRWXOX7,2877,067211_0.5833333333333335.png,4,76,live
469,A30UE6DWFNUCWX:3R2UR8A0ICNXG2VZTC2TWBAYRWXOX7,6870,098030_0.41666666666666674.png,2,77,live
470,A30UE6DWFNUCWX:3R2UR8A0ICNXG2VZTC2TWBAYRWXOX7,4861,026104_-0.4772727272727273.png,1,79,live
471,A30UE6DWFNUCWX:3R2UR8A0ICNXG2VZTC2TWBAYRWXOX7,3766,127629_0.7045454545454546.png,4,80,live
472,A30UE6DWFNUCWX:3R2UR8A0ICNXG2VZTC2TWBAYRWXOX7,3453,180638_-0.26515151515151514.png,5,81,live
473,A30UE6DWFNUCWX:3R2UR8A0ICNXG2VZTC2TWBAYRWXOX7,3046,163106_0.20454545454545459.png,3,82,live
474,A30UE6DWFNUCWX:3R2UR8A0ICNXG2VZTC2TWBAYRWXOX7,2860,160014_-0.18939393939393934.png,6,83,live
475,A30UE6DWFNUCWX:3R2UR8A0ICNXG2VZTC2TWBAYRWXOX7,5350,165559_-0.5227272727272727.png,6,84,live
476,A30UE6DWFNUCWX:3R2UR8A0ICNXG2VZTC2TWBAYRWXOX7,3390,032145_-0.3560606060606061.png,7,85,live
477,A30UE6DWFNUCWX:3R2UR8A0ICNXG2VZTC2TWBAYRWXOX7,3543,150226_0.3257575757575757.png,2,86,live
478,A30UE6DWFNUCWX:3R2UR8A0ICNXG2VZTC2TWBAYRWXOX7,3374,026389_-0.022727272727272707.png,1,87,live
479,A30UE6DWFNUCWX:3R2UR8A0ICNXG2VZTC2TWBAYRWXOX7,4406,038177_-0.7196969696969697.png,2,88,live
480,A30UE6DWFNUCWX:3R2UR8A0ICNXG2VZTC2TWBAYRWXOX7,3788,040610_-0.553030303030303.png,2,90,live
481,A30UE6DWFNUCWX:3R2UR8A0ICNXG2VZTC2TWBAYRWXOX7,3814,103635_0.25.png,3,91,live
482,A30UE6DWFNUCWX:3R2UR8A0ICNXG2VZTC2TWBAYRWXOX7,3664,144397_0.26515151515151514.png,7,92,live
483,A30UE6DWFNUCWX:3R2UR8A0ICNXG2VZTC2TWBAYRWXOX7,3524,114340_-0.12878787878787878.png,1,93,live
484,A30UE6DWFNUCWX:3R2UR8A0ICNXG2VZTC2TWBAYRWXOX7,3270,053178_0.06818181818181823.png,7,94,live
485,A30UE6DWFNUCWX:3R2UR8A0ICNXG2VZTC2TWBAYRWXOX7,3773,026389_-0.022727272727272707.png,1,95,live
486,A30UE6DWFNUCWX:3R2UR8A0ICNXG2VZTC2TWBAYRWXOX7,4684,112685_-0.007575757575757569.png,3,96,live
487,A30UE6DWFNUCWX:3R2UR8A0ICNXG2VZTC2TWBAYRWXOX7,5748,041829_-0.4015151515151515.png,6,97,live
488,A30UE6DWFNUCWX:3R2UR8A0ICNXG2VZTC2TWBAYRWXOX7,2896,106456_-0.6742424242424242.png,6,98,live
489,A30UE6DWFNUCWX:3R2UR8A0ICNXG2VZTC2TWBAYRWXOX7,2974,142593_0.15909090909090917.png,7,99,live
490,A30UE6DWFNUCWX:3R2UR8A0ICNXG2VZTC2TWBAYRWXOX7,3865,109247_0.6136363636363638.png,6,101,live
491,A30UE6DWFNUCWX:3R2UR8A0ICNXG2VZTC2TWBAYRWXOX7,3310,154698_-0.20454545454545459.png,1,102,live
492,A30UE6DWFNUCWX:3R2UR8A0ICNXG2VZTC2TWBAYRWXOX7,3862,006580_-0.1742424242424242.png,2,103,live
493,A30UE6DWFNUCWX:3R2UR8A0ICNXG2VZTC2TWBAYRWXOX7,3160,179630_0.037878787878787845.png,1,104,live
494,A30UE6DWFNUCWX:3R2UR8A0ICNXG2VZTC2TWBAYRWXOX7,3718,044525_0.4015151515151516.png,6,105,live
495,A30UE6DWFNUCWX:3R2UR8A0ICNXG2VZTC2TWBAYRWXOX7,4334,033672_-0.41666666666666663.png,2,106,live
496,A30UE6DWFNUCWX:3R2UR8A0ICNXG2VZTC2TWBAYRWXOX7,2999,012864_0.2803030303030303.png,7,107,live
497,A30UE6DWFNUCWX:3R2UR8A0ICNXG2VZTC2TWBAYRWXOX7,2582,090482_0.553030303030303.png,5,108,live
498,A30UE6DWFNUCWX:3R2UR8A0ICNXG2VZTC2TWBAYRWXOX7,2662,036571_0.09848484848484851.png,1,109,live
499,A30UE6DWFNUCWX:3R2UR8A0ICNXG2VZTC2TWBAYRWXOX7,3607,026534_0.21969696969696972.png,6,110,live
500,AT6OT5K5Z4V0J:3WAKVUDHUYNYES957LA41IPZ7P87UA,10355,042205_-0.5075757575757576.png,8,2,live
501,AT6OT5K5Z4V0J:3WAKVUDHUYNYES957LA41IPZ7P87UA,8699,154698_-0.20454545454545459.png,3,3,live
502,AT6OT5K5Z4V0J:3WAKVUDHUYNYES957LA41IPZ7P87UA,4892,080609_0.5227272727272727.png,1,4,live
503,AT6OT5K5Z4V0J:3WAKVUDHUYNYES957LA41IPZ7P87UA,5309,006580_-0.1742424242424242.png,1,5,live
504,AT6OT5K5Z4V0J:3WAKVUDHUYNYES957LA41IPZ7P87UA,4941,165559_-0.5227272727272727.png,3,6,live
505,AT6OT5K5Z4V0J:3WAKVUDHUYNYES957LA41IPZ7P87UA,9723,010202_-0.32575757575757575.png,2,7,live
506,AT6OT5K5Z4V0J:3WAKVUDHUYNYES957LA41IPZ7P87UA,4234,067211_0.5833333333333335.png,4,8,live
507,AT6OT5K5Z4V0J:3WAKVUDHUYNYES957LA41IPZ7P87UA,6096,026534_0.21969696969696972.png,2,9,live
508,AT6OT5K5Z4V0J:3WAKVUDHUYNYES957LA41IPZ7P87UA,4871,148397_-0.037878787878787845.png,3,10,live
509,AT6OT5K5Z4V0J:3WAKVUDHUYNYES957LA41IPZ7P87UA,6462,044525_0.4015151515151516.png,5,11,live
510,AT6OT5K5Z4V0J:3WAKVUDHUYNYES957LA41IPZ7P87UA,9730,048059_0.46212121212121215.png,1,13,live
511,AT6OT5K5Z4V0J:3WAKVUDHUYNYES957LA41IPZ7P87UA,5517,098631_0.23484848484848486.png,2,14,live
512,AT6OT5K5Z4V0J:3WAKVUDHUYNYES957LA41IPZ7P87UA,3703,023416_-0.5984848484848485.png,2,15,live
513,AT6OT5K5Z4V0J:3WAKVUDHUYNYES957LA41IPZ7P87UA,5262,023784_0.6893939393939394.png,4,16,live
514,AT6OT5K5Z4V0J:3WAKVUDHUYNYES957LA41IPZ7P87UA,3731,134466_0.6742424242424243.png,5,17,live
515,AT6OT5K5Z4V0J:3WAKVUDHUYNYES957LA41IPZ7P87UA,5468,025504_0.75.png,1,18,live
516,AT6OT5K5Z4V0J:3WAKVUDHUYNYES957LA41IPZ7P87UA,6372,065471_0.053030303030303094.png,7,19,live
517,AT6OT5K5Z4V0J:3WAKVUDHUYNYES957LA41IPZ7P87UA,3062,127629_0.7045454545454546.png,2,20,live
518,AT6OT5K5Z4V0J:3WAKVUDHUYNYES957LA41IPZ7P87UA,3781,080609_0.5227272727272727.png,2,21,live
519,AT6OT5K5Z4V0J:3WAKVUDHUYNYES957LA41IPZ7P87UA,4435,167548_0.022727272727272707.png,3,22,live
520,AT6OT5K5Z4V0J:3WAKVUDHUYNYES957LA41IPZ7P87UA,9010,081779_0.34090909090909083.png,2,24,live
521,AT6OT5K5Z4V0J:3WAKVUDHUYNYES957LA41IPZ7P87UA,3742,031175_-0.5833333333333333.png,1,25,live
522,AT6OT5K5Z4V0J:3WAKVUDHUYNYES957LA41IPZ7P87UA,2645,198714_0.6287878787878789.png,1,26,live
523,AT6OT5K5Z4V0J:3WAKVUDHUYNYES957LA41IPZ7P87UA,8437,033672_-0.41666666666666663.png,3,27,live
524,AT6OT5K5Z4V0J:3WAKVUDHUYNYES957LA41IPZ7P87UA,3876,030657_-0.6590909090909091.png,6,28,live
525,AT6OT5K5Z4V0J:3WAKVUDHUYNYES957LA41IPZ7P87UA,3557,049976_-0.3712121212121212.png,7,29,live
526,AT6OT5K5Z4V0J:3WAKVUDHUYNYES957LA41IPZ7P87UA,3692,182685_0.446969696969697.png,5,30,live
527,AT6OT5K5Z4V0J:3WAKVUDHUYNYES957LA41IPZ7P87UA,9032,001195_-0.38636363636363635.png,5,31,live
528,AT6OT5K5Z4V0J:3WAKVUDHUYNYES957LA41IPZ7P87UA,2947,154698_-0.20454545454545459.png,2,32,live
529,AT6OT5K5Z4V0J:3WAKVUDHUYNYES957LA41IPZ7P87UA,4977,050886_-0.5681818181818181.png,4,33,live
530,AT6OT5K5Z4V0J:3WAKVUDHUYNYES957LA41IPZ7P87UA,7187,043491_-0.4318181818181818.png,3,35,live
531,AT6OT5K5Z4V0J:3WAKVUDHUYNYES957LA41IPZ7P87UA,3778,172473_0.6590909090909092.png,6,36,live
532,AT6OT5K5Z4V0J:3WAKVUDHUYNYES957LA41IPZ7P87UA,3316,041829_-0.4015151515151515.png,4,37,live
533,AT6OT5K5Z4V0J:3WAKVUDHUYNYES957LA41IPZ7P87UA,3985,144397_0.26515151515151514.png,5,38,live
534,AT6OT5K5Z4V0J:3WAKVUDHUYNYES957LA41IPZ7P87UA,4876,103635_0.25.png,3,39,live
535,AT6OT5K5Z4V0J:3WAKVUDHUYNYES957LA41IPZ7P87UA,5011,006240_0.3560606060606062.png,4,40,live
536,AT6OT5K5Z4V0J:3WAKVUDHUYNYES957LA41IPZ7P87UA,3876,142593_0.15909090909090917.png,5,41,live
537,AT6OT5K5Z4V0J:3WAKVUDHUYNYES957LA41IPZ7P87UA,5933,018758_-0.23484848484848486.png,3,42,live
538,AT6OT5K5Z4V0J:3WAKVUDHUYNYES957LA41IPZ7P87UA,4580,141962_-0.08333333333333326.png,2,43,live
539,AT6OT5K5Z4V0J:3WAKVUDHUYNYES957LA41IPZ7P87UA,5724,110088_-0.11363636363636365.png,5,44,live
540,AT6OT5K5Z4V0J:3WAKVUDHUYNYES957LA41IPZ7P87UA,4298,179630_0.037878787878787845.png,2,46,live
541,AT6OT5K5Z4V0J:3WAKVUDHUYNYES957LA41IPZ7P87UA,3138,102475_0.1742424242424243.png,2,47,live
542,AT6OT5K5Z4V0J:3WAKVUDHUYNYES957LA41IPZ7P87UA,4188,053178_0.06818181818181823.png,7,48,live
543,AT6OT5K5Z4V0J:3WAKVUDHUYNYES957LA41IPZ7P87UA,3262,167696_0.643939393939394.png,3,49,live
544,AT6OT5K5Z4V0J:3WAKVUDHUYNYES957LA41IPZ7P87UA,5972,133467_-0.3106060606060606.png,2,50,live
545,AT6OT5K5Z4V0J:3WAKVUDHUYNYES957LA41IPZ7P87UA,2673,112685_-0.007575757575757569.png,2,51,live
546,AT6OT5K5Z4V0J:3WAKVUDHUYNYES957LA41IPZ7P87UA,4604,160014_-0.18939393939393934.png,6,52,live
547,AT6OT5K5Z4V0J:3WAKVUDHUYNYES957LA41IPZ7P87UA,2512,026389_-0.022727272727272707.png,2,53,live
548,AT6OT5K5Z4V0J:3WAKVUDHUYNYES957LA41IPZ7P87UA,3747,167679_0.3712121212121213.png,6,54,live
549,AT6OT5K5Z4V0J:3WAKVUDHUYNYES957LA41IPZ7P87UA,5334,032145_-0.3560606060606061.png,5,55,live
550,AT6OT5K5Z4V0J:3WAKVUDHUYNYES957LA41IPZ7P87UA,4552,119374_0.38636363636363646.png,7,57,live
551,AT6OT5K5Z4V0J:3WAKVUDHUYNYES957LA41IPZ7P87UA,4429,026104_-0.4772727272727273.png,2,58,live
552,AT6OT5K5Z4V0J:3WAKVUDHUYNYES957LA41IPZ7P87UA,5062,090482_0.553030303030303.png,6,59,live
553,AT6OT5K5Z4V0J:3WAKVUDHUYNYES957LA41IPZ7P87UA,5099,144397_0.26515151515151514.png,7,60,live
554,AT6OT5K5Z4V0J:3WAKVUDHUYNYES957LA41IPZ7P87UA,3468,141261_0.18939393939393945.png,4,61,live
555,AT6OT5K5Z4V0J:3WAKVUDHUYNYES957LA41IPZ7P87UA,3067,010202_-0.32575757575757575.png,2,62,live
556,AT6OT5K5Z4V0J:3WAKVUDHUYNYES957LA41IPZ7P87UA,7149,119374_0.38636363636363646.png,5,63,live
557,AT6OT5K5Z4V0J:3WAKVUDHUYNYES957LA41IPZ7P87UA,3053,109247_0.6136363636363638.png,2,64,live
558,AT6OT5K5Z4V0J:3WAKVUDHUYNYES957LA41IPZ7P87UA,5347,032145_-0.3560606060606061.png,5,65,live
559,AT6OT5K5Z4V0J:3WAKVUDHUYNYES957LA41IPZ7P87UA,5227,195398_-0.14393939393939392.png,1,66,live
560,AT6OT5K5Z4V0J:3WAKVUDHUYNYES957LA41IPZ7P87UA,4518,167679_0.3712121212121213.png,6,68,live
561,AT6OT5K5Z4V0J:3WAKVUDHUYNYES957LA41IPZ7P87UA,7003,045867_-0.4621212121212121.png,6,69,live
562,AT6OT5K5Z4V0J:3WAKVUDHUYNYES957LA41IPZ7P87UA,7838,164278_-0.3409090909090909.png,5,70,live
563,AT6OT5K5Z4V0J:3WAKVUDHUYNYES957LA41IPZ7P87UA,4159,065471_0.053030303030303094.png,8,71,live
564,AT6OT5K5Z4V0J:3WAKVUDHUYNYES957LA41IPZ7P87UA,5861,180638_-0.26515151515151514.png,6,72,live
565,AT6OT5K5Z4V0J:3WAKVUDHUYNYES957LA41IPZ7P87UA,2453,112685_-0.007575757575757569.png,2,73,live
566,AT6OT5K5Z4V0J:3WAKVUDHUYNYES957LA41IPZ7P87UA,6989,038177_-0.7196969696969697.png,3,74,live
567,AT6OT5K5Z4V0J:3WAKVUDHUYNYES957LA41IPZ7P87UA,4630,031230_0.2954545454545454.png,4,75,live
568,AT6OT5K5Z4V0J:3WAKVUDHUYNYES957LA41IPZ7P87UA,6346,012864_0.2803030303030303.png,7,76,live
569,AT6OT5K5Z4V0J:3WAKVUDHUYNYES957LA41IPZ7P87UA,5107,026389_-0.022727272727272707.png,1,77,live
570,AT6OT5K5Z4V0J:3WAKVUDHUYNYES957LA41IPZ7P87UA,4341,106456_-0.6742424242424242.png,5,79,live
571,AT6OT5K5Z4V0J:3WAKVUDHUYNYES957LA41IPZ7P87UA,6267,032683_0.007575757575757569.png,5,80,live
572,AT6OT5K5Z4V0J:3WAKVUDHUYNYES957LA41IPZ7P87UA,5509,134277_0.5984848484848486.png,3,81,live
573,AT6OT5K5Z4V0J:3WAKVUDHUYNYES957LA41IPZ7P87UA,4569,125135_-0.7348484848484849.png,4,82,live
574,AT6OT5K5Z4V0J:3WAKVUDHUYNYES957LA41IPZ7P87UA,7580,090482_0.553030303030303.png,6,83,live
575,AT6OT5K5Z4V0J:3WAKVUDHUYNYES957LA41IPZ7P87UA,7253,098030_0.41666666666666674.png,4,84,live
576,AT6OT5K5Z4V0J:3WAKVUDHUYNYES957LA41IPZ7P87UA,5077,012864_0.2803030303030303.png,7,85,live
577,AT6OT5K5Z4V0J:3WAKVUDHUYNYES957LA41IPZ7P87UA,6444,099376_0.5378787878787878.png,4,86,live
578,AT6OT5K5Z4V0J:3WAKVUDHUYNYES957LA41IPZ7P87UA,4110,154764_-0.09848484848484851.png,1,87,live
579,AT6OT5K5Z4V0J:3WAKVUDHUYNYES957LA41IPZ7P87UA,6757,043491_-0.4318181818181818.png,5,88,live
580,AT6OT5K5Z4V0J:3WAKVUDHUYNYES957LA41IPZ7P87UA,5531,059180_-0.15909090909090906.png,6,90,live
581,AT6OT5K5Z4V0J:3WAKVUDHUYNYES957LA41IPZ7P87UA,6117,113917_-0.25.png,5,91,live
582,AT6OT5K5Z4V0J:3WAKVUDHUYNYES957LA41IPZ7P87UA,4436,008091_-0.6439393939393939.png,2,92,live
583,AT6OT5K5Z4V0J:3WAKVUDHUYNYES957LA41IPZ7P87UA,3700,163106_0.20454545454545459.png,3,93,live
584,AT6OT5K5Z4V0J:3WAKVUDHUYNYES957LA41IPZ7P87UA,3652,114340_-0.12878787878787878.png,3,94,live
585,AT6OT5K5Z4V0J:3WAKVUDHUYNYES957LA41IPZ7P87UA,2692,038177_-0.7196969696969697.png,4,95,live
586,AT6OT5K5Z4V0J:3WAKVUDHUYNYES957LA41IPZ7P87UA,5476,127629_0.7045454545454546.png,2,96,live
587,AT6OT5K5Z4V0J:3WAKVUDHUYNYES957LA41IPZ7P87UA,3077,179630_0.037878787878787845.png,1,97,live
588,AT6OT5K5Z4V0J:3WAKVUDHUYNYES957LA41IPZ7P87UA,4921,036571_0.09848484848484851.png,3,98,live
589,AT6OT5K5Z4V0J:3WAKVUDHUYNYES957LA41IPZ7P87UA,6341,061283_-0.49242424242424243.png,2,99,live
590,AT6OT5K5Z4V0J:3WAKVUDHUYNYES957LA41IPZ7P87UA,6001,053178_0.06818181818181823.png,8,101,live
591,AT6OT5K5Z4V0J:3WAKVUDHUYNYES957LA41IPZ7P87UA,8677,042441_-0.75.png,4,102,live
592,AT6OT5K5Z4V0J:3WAKVUDHUYNYES957LA41IPZ7P87UA,4564,150226_0.3257575757575757.png,5,103,live
593,AT6OT5K5Z4V0J:3WAKVUDHUYNYES957LA41IPZ7P87UA,3684,164329_0.5075757575757576.png,6,104,live
594,AT6OT5K5Z4V0J:3WAKVUDHUYNYES957LA41IPZ7P87UA,4594,040610_-0.553030303030303.png,3,105,live
595,AT6OT5K5Z4V0J:3WAKVUDHUYNYES957LA41IPZ7P87UA,4859,164278_-0.3409090909090909.png,5,106,live
596,AT6OT5K5Z4V0J:3WAKVUDHUYNYES957LA41IPZ7P87UA,6404,109247_0.6136363636363638.png,5,107,live
597,AT6OT5K5Z4V0J:3WAKVUDHUYNYES957LA41IPZ7P87UA,5259,180191_-0.44696969696969696.png,3,108,live
598,AT6OT5K5Z4V0J:3WAKVUDHUYNYES957LA41IPZ7P87UA,3694,103635_0.25.png,2,109,live
599,AT6OT5K5Z4V0J:3WAKVUDHUYNYES957LA41IPZ7P87UA,3442,027333_-0.6287878787878788.png,3,110,live
600,AUIPOGXK5QGRX:3FE2ERCCZZFS7TT87LSC2YOVPXQPOM,54072,103635_0.25.png,5,2,live
601,AUIPOGXK5QGRX:3FE2ERCCZZFS7TT87LSC2YOVPXQPOM,5109,065471_0.053030303030303094.png,3,3,live
602,AUIPOGXK5QGRX:3FE2ERCCZZFS7TT87LSC2YOVPXQPOM,3448,098030_0.41666666666666674.png,4,4,live
603,AUIPOGXK5QGRX:3FE2ERCCZZFS7TT87LSC2YOVPXQPOM,27245,154698_-0.20454545454545459.png,5,5,live
604,AUIPOGXK5QGRX:3FE2ERCCZZFS7TT87LSC2YOVPXQPOM,3478,026389_-0.022727272727272707.png,4,6,live
605,AUIPOGXK5QGRX:3FE2ERCCZZFS7TT87LSC2YOVPXQPOM,2417,163106_0.20454545454545459.png,5,7,live
606,AUIPOGXK5QGRX:3FE2ERCCZZFS7TT87LSC2YOVPXQPOM,2762,167548_0.022727272727272707.png,6,8,live
607,AUIPOGXK5QGRX:3FE2ERCCZZFS7TT87LSC2YOVPXQPOM,2531,144397_0.26515151515151514.png,5,9,live
608,AUIPOGXK5QGRX:3FE2ERCCZZFS7TT87LSC2YOVPXQPOM,2217,109247_0.6136363636363638.png,4,10,live
609,AUIPOGXK5QGRX:3FE2ERCCZZFS7TT87LSC2YOVPXQPOM,2401,023784_0.6893939393939394.png,5,11,live
610,AUIPOGXK5QGRX:3FE2ERCCZZFS7TT87LSC2YOVPXQPOM,31848,012864_0.2803030303030303.png,4,13,live
611,AUIPOGXK5QGRX:3FE2ERCCZZFS7TT87LSC2YOVPXQPOM,6002,112685_-0.007575757575757569.png,4,14,live
612,AUIPOGXK5QGRX:3FE2ERCCZZFS7TT87LSC2YOVPXQPOM,3424,067211_0.5833333333333335.png,4,15,live
613,AUIPOGXK5QGRX:3FE2ERCCZZFS7TT87LSC2YOVPXQPOM,2778,142593_0.15909090909090917.png,5,16,live
614,AUIPOGXK5QGRX:3FE2ERCCZZFS7TT87LSC2YOVPXQPOM,4897,154698_-0.20454545454545459.png,5,17,live
615,AUIPOGXK5QGRX:3FE2ERCCZZFS7TT87LSC2YOVPXQPOM,3138,032145_-0.3560606060606061.png,4,18,live
616,AUIPOGXK5QGRX:3FE2ERCCZZFS7TT87LSC2YOVPXQPOM,3239,042441_-0.75.png,5,19,live
617,AUIPOGXK5QGRX:3FE2ERCCZZFS7TT87LSC2YOVPXQPOM,3498,053178_0.06818181818181823.png,3,20,live
618,AUIPOGXK5QGRX:3FE2ERCCZZFS7TT87LSC2YOVPXQPOM,4146,033672_-0.41666666666666663.png,4,21,live
619,AUIPOGXK5QGRX:3FE2ERCCZZFS7TT87LSC2YOVPXQPOM,4210,041829_-0.4015151515151515.png,4,22,live
620,AUIPOGXK5QGRX:3FE2ERCCZZFS7TT87LSC2YOVPXQPOM,5692,164278_-0.3409090909090909.png,5,24,live
621,AUIPOGXK5QGRX:3FE2ERCCZZFS7TT87LSC2YOVPXQPOM,3968,114340_-0.12878787878787878.png,5,25,live
622,AUIPOGXK5QGRX:3FE2ERCCZZFS7TT87LSC2YOVPXQPOM,7249,038177_-0.7196969696969697.png,6,26,live
623,AUIPOGXK5QGRX:3FE2ERCCZZFS7TT87LSC2YOVPXQPOM,5155,025504_0.75.png,3,27,live
624,AUIPOGXK5QGRX:3FE2ERCCZZFS7TT87LSC2YOVPXQPOM,7338,038177_-0.7196969696969697.png,4,28,live
625,AUIPOGXK5QGRX:3FE2ERCCZZFS7TT87LSC2YOVPXQPOM,5041,119374_0.38636363636363646.png,5,29,live
626,AUIPOGXK5QGRX:3FE2ERCCZZFS7TT87LSC2YOVPXQPOM,3867,053178_0.06818181818181823.png,4,30,live
627,AUIPOGXK5QGRX:3FE2ERCCZZFS7TT87LSC2YOVPXQPOM,6946,043491_-0.4318181818181818.png,5,31,live
628,AUIPOGXK5QGRX:3FE2ERCCZZFS7TT87LSC2YOVPXQPOM,12722,080609_0.5227272727272727.png,6,32,live
629,AUIPOGXK5QGRX:3FE2ERCCZZFS7TT87LSC2YOVPXQPOM,15112,010202_-0.32575757575757575.png,3,33,live
630,AUIPOGXK5QGRX:3FE2ERCCZZFS7TT87LSC2YOVPXQPOM,3087,180191_-0.44696969696969696.png,5,35,live
631,AUIPOGXK5QGRX:3FE2ERCCZZFS7TT87LSC2YOVPXQPOM,2017,167679_0.3712121212121213.png,4,36,live
632,AUIPOGXK5QGRX:3FE2ERCCZZFS7TT87LSC2YOVPXQPOM,2329,032145_-0.3560606060606061.png,4,37,live
633,AUIPOGXK5QGRX:3FE2ERCCZZFS7TT87LSC2YOVPXQPOM,23635,150226_0.3257575757575757.png,5,38,live
634,AUIPOGXK5QGRX:3FE2ERCCZZFS7TT87LSC2YOVPXQPOM,2210,141962_-0.08333333333333326.png,4,39,live
635,AUIPOGXK5QGRX:3FE2ERCCZZFS7TT87LSC2YOVPXQPOM,3410,141261_0.18939393939393945.png,5,40,live
636,AUIPOGXK5QGRX:3FE2ERCCZZFS7TT87LSC2YOVPXQPOM,30118,119374_0.38636363636363646.png,4,41,live
637,AUIPOGXK5QGRX:3FE2ERCCZZFS7TT87LSC2YOVPXQPOM,8426,125135_-0.7348484848484849.png,4,42,live
638,AUIPOGXK5QGRX:3FE2ERCCZZFS7TT87LSC2YOVPXQPOM,3155,127629_0.7045454545454546.png,5,43,live
639,AUIPOGXK5QGRX:3FE2ERCCZZFS7TT87LSC2YOVPXQPOM,3434,048059_0.46212121212121215.png,6,44,live
640,AUIPOGXK5QGRX:3FE2ERCCZZFS7TT87LSC2YOVPXQPOM,7861,036571_0.09848484848484851.png,4,46,live
641,AUIPOGXK5QGRX:3FE2ERCCZZFS7TT87LSC2YOVPXQPOM,4394,198714_0.6287878787878789.png,5,47,live
642,AUIPOGXK5QGRX:3FE2ERCCZZFS7TT87LSC2YOVPXQPOM,23256,043491_-0.4318181818181818.png,4,48,live
643,AUIPOGXK5QGRX:3FE2ERCCZZFS7TT87LSC2YOVPXQPOM,4442,030657_-0.6590909090909091.png,5,49,live
644,AUIPOGXK5QGRX:3FE2ERCCZZFS7TT87LSC2YOVPXQPOM,66697,018758_-0.23484848484848486.png,4,50,live
645,AUIPOGXK5QGRX:3FE2ERCCZZFS7TT87LSC2YOVPXQPOM,2287,165559_-0.5227272727272727.png,5,51,live
646,AUIPOGXK5QGRX:3FE2ERCCZZFS7TT87LSC2YOVPXQPOM,3666,010202_-0.32575757575757575.png,3,52,live
647,AUIPOGXK5QGRX:3FE2ERCCZZFS7TT87LSC2YOVPXQPOM,2160,179630_0.037878787878787845.png,4,53,live
648,AUIPOGXK5QGRX:3FE2ERCCZZFS7TT87LSC2YOVPXQPOM,2296,061283_-0.49242424242424243.png,5,54,live
649,AUIPOGXK5QGRX:3FE2ERCCZZFS7TT87LSC2YOVPXQPOM,8108,080609_0.5227272727272727.png,2,55,live
650,AUIPOGXK5QGRX:3FE2ERCCZZFS7TT87LSC2YOVPXQPOM,4054,065471_0.053030303030303094.png,4,57,live
651,AUIPOGXK5QGRX:3FE2ERCCZZFS7TT87LSC2YOVPXQPOM,3874,182685_0.446969696969697.png,6,58,live
652,AUIPOGXK5QGRX:3FE2ERCCZZFS7TT87LSC2YOVPXQPOM,2402,023416_-0.5984848484848485.png,4,59,live
653,AUIPOGXK5QGRX:3FE2ERCCZZFS7TT87LSC2YOVPXQPOM,2097,180638_-0.26515151515151514.png,5,60,live
654,AUIPOGXK5QGRX:3FE2ERCCZZFS7TT87LSC2YOVPXQPOM,6360,195398_-0.14393939393939392.png,7,61,live
655,AUIPOGXK5QGRX:3FE2ERCCZZFS7TT87LSC2YOVPXQPOM,5292,090482_0.553030303030303.png,5,62,live
656,AUIPOGXK5QGRX:3FE2ERCCZZFS7TT87LSC2YOVPXQPOM,4502,059180_-0.15909090909090906.png,4,63,live
657,AUIPOGXK5QGRX:3FE2ERCCZZFS7TT87LSC2YOVPXQPOM,2694,026389_-0.022727272727272707.png,5,64,live
658,AUIPOGXK5QGRX:3FE2ERCCZZFS7TT87LSC2YOVPXQPOM,4115,164278_-0.3409090909090909.png,7,65,live
659,AUIPOGXK5QGRX:3FE2ERCCZZFS7TT87LSC2YOVPXQPOM,22450,081779_0.34090909090909083.png,6,66,live
660,AUIPOGXK5QGRX:3FE2ERCCZZFS7TT87LSC2YOVPXQPOM,3269,154764_-0.09848484848484851.png,5,68,live
661,AUIPOGXK5QGRX:3FE2ERCCZZFS7TT87LSC2YOVPXQPOM,5129,102475_0.1742424242424243.png,7,69,live
662,AUIPOGXK5QGRX:3FE2ERCCZZFS7TT87LSC2YOVPXQPOM,2507,031175_-0.5833333333333333.png,5,70,live
663,AUIPOGXK5QGRX:3FE2ERCCZZFS7TT87LSC2YOVPXQPOM,3920,144397_0.26515151515151514.png,6,71,live
664,AUIPOGXK5QGRX:3FE2ERCCZZFS7TT87LSC2YOVPXQPOM,9198,133467_-0.3106060606060606.png,7,72,live
665,AUIPOGXK5QGRX:3FE2ERCCZZFS7TT87LSC2YOVPXQPOM,13384,103635_0.25.png,5,73,live
666,AUIPOGXK5QGRX:3FE2ERCCZZFS7TT87LSC2YOVPXQPOM,2090,106456_-0.6742424242424242.png,6,74,live
667,AUIPOGXK5QGRX:3FE2ERCCZZFS7TT87LSC2YOVPXQPOM,1528,045867_-0.4621212121212121.png,4,75,live
668,AUIPOGXK5QGRX:3FE2ERCCZZFS7TT87LSC2YOVPXQPOM,4529,090482_0.553030303030303.png,6,76,live
669,AUIPOGXK5QGRX:3FE2ERCCZZFS7TT87LSC2YOVPXQPOM,2282,049976_-0.3712121212121212.png,5,77,live
670,AUIPOGXK5QGRX:3FE2ERCCZZFS7TT87LSC2YOVPXQPOM,9821,127629_0.7045454545454546.png,5,79,live
671,AUIPOGXK5QGRX:3FE2ERCCZZFS7TT87LSC2YOVPXQPOM,5187,044525_0.4015151515151516.png,6,80,live
672,AUIPOGXK5QGRX:3FE2ERCCZZFS7TT87LSC2YOVPXQPOM,4297,112685_-0.007575757575757569.png,6,81,live
673,AUIPOGXK5QGRX:3FE2ERCCZZFS7TT87LSC2YOVPXQPOM,4801,026104_-0.4772727272727273.png,7,82,live
674,AUIPOGXK5QGRX:3FE2ERCCZZFS7TT87LSC2YOVPXQPOM,8561,164329_0.5075757575757576.png,7,83,live
675,AUIPOGXK5QGRX:3FE2ERCCZZFS7TT87LSC2YOVPXQPOM,2353,006580_-0.1742424242424242.png,5,84,live
676,AUIPOGXK5QGRX:3FE2ERCCZZFS7TT87LSC2YOVPXQPOM,2258,032683_0.007575757575757569.png,6,85,live
677,AUIPOGXK5QGRX:3FE2ERCCZZFS7TT87LSC2YOVPXQPOM,3360,172473_0.6590909090909092.png,5,86,live
678,AUIPOGXK5QGRX:3FE2ERCCZZFS7TT87LSC2YOVPXQPOM,2378,099376_0.5378787878787878.png,7,87,live
679,AUIPOGXK5QGRX:3FE2ERCCZZFS7TT87LSC2YOVPXQPOM,1881,026534_0.21969696969696972.png,5,88,live
680,AUIPOGXK5QGRX:3FE2ERCCZZFS7TT87LSC2YOVPXQPOM,2352,110088_-0.11363636363636365.png,5,90,live
681,AUIPOGXK5QGRX:3FE2ERCCZZFS7TT87LSC2YOVPXQPOM,1689,179630_0.037878787878787845.png,6,91,live
682,AUIPOGXK5QGRX:3FE2ERCCZZFS7TT87LSC2YOVPXQPOM,2297,148397_-0.037878787878787845.png,4,92,live
683,AUIPOGXK5QGRX:3FE2ERCCZZFS7TT87LSC2YOVPXQPOM,6618,134277_0.5984848484848486.png,5,93,live
684,AUIPOGXK5QGRX:3FE2ERCCZZFS7TT87LSC2YOVPXQPOM,2233,031230_0.2954545454545454.png,6,94,live
685,AUIPOGXK5QGRX:3FE2ERCCZZFS7TT87LSC2YOVPXQPOM,1738,001195_-0.38636363636363635.png,4,95,live
686,AUIPOGXK5QGRX:3FE2ERCCZZFS7TT87LSC2YOVPXQPOM,1961,012864_0.2803030303030303.png,5,96,live
687,AUIPOGXK5QGRX:3FE2ERCCZZFS7TT87LSC2YOVPXQPOM,3169,040610_-0.553030303030303.png,7,97,live
688,AUIPOGXK5QGRX:3FE2ERCCZZFS7TT87LSC2YOVPXQPOM,1916,006240_0.3560606060606062.png,5,98,live
689,AUIPOGXK5QGRX:3FE2ERCCZZFS7TT87LSC2YOVPXQPOM,5113,167679_0.3712121212121213.png,4,99,live
690,AUIPOGXK5QGRX:3FE2ERCCZZFS7TT87LSC2YOVPXQPOM,3658,167696_0.643939393939394.png,6,101,live
691,AUIPOGXK5QGRX:3FE2ERCCZZFS7TT87LSC2YOVPXQPOM,2672,098631_0.23484848484848486.png,5,102,live
692,AUIPOGXK5QGRX:3FE2ERCCZZFS7TT87LSC2YOVPXQPOM,2650,113917_-0.25.png,4,103,live
693,AUIPOGXK5QGRX:3FE2ERCCZZFS7TT87LSC2YOVPXQPOM,2122,050886_-0.5681818181818181.png,7,104,live
694,AUIPOGXK5QGRX:3FE2ERCCZZFS7TT87LSC2YOVPXQPOM,2185,160014_-0.18939393939393934.png,3,105,live
695,AUIPOGXK5QGRX:3FE2ERCCZZFS7TT87LSC2YOVPXQPOM,4254,027333_-0.6287878787878788.png,3,106,live
696,AUIPOGXK5QGRX:3FE2ERCCZZFS7TT87LSC2YOVPXQPOM,2977,042205_-0.5075757575757576.png,2,107,live
697,AUIPOGXK5QGRX:3FE2ERCCZZFS7TT87LSC2YOVPXQPOM,3442,109247_0.6136363636363638.png,5,108,live
698,AUIPOGXK5QGRX:3FE2ERCCZZFS7TT87LSC2YOVPXQPOM,2562,008091_-0.6439393939393939.png,4,109,live
699,AUIPOGXK5QGRX:3FE2ERCCZZFS7TT87LSC2YOVPXQPOM,8378,134466_0.6742424242424243.png,6,110,live
700,A1AAO2R3FH2G49:3MX2NQ3YCB1B8SPHOX6UN5A7A1W5XN,6784,041829_-0.4015151515151515.png,4,2,live
701,A1AAO2R3FH2G49:3MX2NQ3YCB1B8SPHOX6UN5A7A1W5XN,3568,040610_-0.553030303030303.png,5,3,live
702,A1AAO2R3FH2G49:3MX2NQ3YCB1B8SPHOX6UN5A7A1W5XN,3728,160014_-0.18939393939393934.png,4,4,live
703,A1AAO2R3FH2G49:3MX2NQ3YCB1B8SPHOX6UN5A7A1W5XN,7029,008091_-0.6439393939393939.png,4,5,live
704,A1AAO2R3FH2G49:3MX2NQ3YCB1B8SPHOX6UN5A7A1W5XN,3071,023784_0.6893939393939394.png,5,6,live
705,A1AAO2R3FH2G49:3MX2NQ3YCB1B8SPHOX6UN5A7A1W5XN,4528,065471_0.053030303030303094.png,5,7,live
706,A1AAO2R3FH2G49:3MX2NQ3YCB1B8SPHOX6UN5A7A1W5XN,5408,030657_-0.6590909090909091.png,8,8,live
707,A1AAO2R3FH2G49:3MX2NQ3YCB1B8SPHOX6UN5A7A1W5XN,4527,103635_0.25.png,5,9,live
708,A1AAO2R3FH2G49:3MX2NQ3YCB1B8SPHOX6UN5A7A1W5XN,4674,038177_-0.7196969696969697.png,5,10,live
709,A1AAO2R3FH2G49:3MX2NQ3YCB1B8SPHOX6UN5A7A1W5XN,3666,114340_-0.12878787878787878.png,5,11,live
710,A1AAO2R3FH2G49:3MX2NQ3YCB1B8SPHOX6UN5A7A1W5XN,3847,112685_-0.007575757575757569.png,4,13,live
711,A1AAO2R3FH2G49:3MX2NQ3YCB1B8SPHOX6UN5A7A1W5XN,3824,112685_-0.007575757575757569.png,4,14,live
712,A1AAO2R3FH2G49:3MX2NQ3YCB1B8SPHOX6UN5A7A1W5XN,3690,098030_0.41666666666666674.png,5,15,live
713,A1AAO2R3FH2G49:3MX2NQ3YCB1B8SPHOX6UN5A7A1W5XN,3099,026389_-0.022727272727272707.png,4,16,live
714,A1AAO2R3FH2G49:3MX2NQ3YCB1B8SPHOX6UN5A7A1W5XN,3712,038177_-0.7196969696969697.png,5,17,live
715,A1AAO2R3FH2G49:3MX2NQ3YCB1B8SPHOX6UN5A7A1W5XN,3526,010202_-0.32575757575757575.png,4,18,live
716,A1AAO2R3FH2G49:3MX2NQ3YCB1B8SPHOX6UN5A7A1W5XN,6498,134466_0.6742424242424243.png,5,19,live
717,A1AAO2R3FH2G49:3MX2NQ3YCB1B8SPHOX6UN5A7A1W5XN,5455,027333_-0.6287878787878788.png,4,20,live
718,A1AAO2R3FH2G49:3MX2NQ3YCB1B8SPHOX6UN5A7A1W5XN,4945,065471_0.053030303030303094.png,5,21,live
719,A1AAO2R3FH2G49:3MX2NQ3YCB1B8SPHOX6UN5A7A1W5XN,5981,167679_0.3712121212121213.png,4,22,live
720,A1AAO2R3FH2G49:3MX2NQ3YCB1B8SPHOX6UN5A7A1W5XN,4015,026104_-0.4772727272727273.png,4,24,live
721,A1AAO2R3FH2G49:3MX2NQ3YCB1B8SPHOX6UN5A7A1W5XN,5318,125135_-0.7348484848484849.png,4,25,live
722,A1AAO2R3FH2G49:3MX2NQ3YCB1B8SPHOX6UN5A7A1W5XN,5686,106456_-0.6742424242424242.png,4,26,live
723,A1AAO2R3FH2G49:3MX2NQ3YCB1B8SPHOX6UN5A7A1W5XN,6323,165559_-0.5227272727272727.png,3,27,live
724,A1AAO2R3FH2G49:3MX2NQ3YCB1B8SPHOX6UN5A7A1W5XN,4605,061283_-0.49242424242424243.png,4,28,live
725,A1AAO2R3FH2G49:3MX2NQ3YCB1B8SPHOX6UN5A7A1W5XN,4298,036571_0.09848484848484851.png,4,29,live
726,A1AAO2R3FH2G49:3MX2NQ3YCB1B8SPHOX6UN5A7A1W5XN,4058,048059_0.46212121212121215.png,5,30,live
727,A1AAO2R3FH2G49:3MX2NQ3YCB1B8SPHOX6UN5A7A1W5XN,4712,012864_0.2803030303030303.png,4,31,live
728,A1AAO2R3FH2G49:3MX2NQ3YCB1B8SPHOX6UN5A7A1W5XN,4963,053178_0.06818181818181823.png,6,32,live
729,A1AAO2R3FH2G49:3MX2NQ3YCB1B8SPHOX6UN5A7A1W5XN,3819,081779_0.34090909090909083.png,5,33,live
730,A1AAO2R3FH2G49:3MX2NQ3YCB1B8SPHOX6UN5A7A1W5XN,5424,141261_0.18939393939393945.png,5,35,live
731,A1AAO2R3FH2G49:3MX2NQ3YCB1B8SPHOX6UN5A7A1W5XN,3529,010202_-0.32575757575757575.png,4,36,live
732,A1AAO2R3FH2G49:3MX2NQ3YCB1B8SPHOX6UN5A7A1W5XN,4066,154698_-0.20454545454545459.png,5,37,live
733,A1AAO2R3FH2G49:3MX2NQ3YCB1B8SPHOX6UN5A7A1W5XN,3944,090482_0.553030303030303.png,4,38,live
734,A1AAO2R3FH2G49:3MX2NQ3YCB1B8SPHOX6UN5A7A1W5XN,3309,090482_0.553030303030303.png,5,39,live
735,A1AAO2R3FH2G49:3MX2NQ3YCB1B8SPHOX6UN5A7A1W5XN,3896,148397_-0.037878787878787845.png,4,40,live
736,A1AAO2R3FH2G49:3MX2NQ3YCB1B8SPHOX6UN5A7A1W5XN,4228,141962_-0.08333333333333326.png,5,41,live
737,A1AAO2R3FH2G49:3MX2NQ3YCB1B8SPHOX6UN5A7A1W5XN,4847,043491_-0.4318181818181818.png,4,42,live
738,A1AAO2R3FH2G49:3MX2NQ3YCB1B8SPHOX6UN5A7A1W5XN,7772,167679_0.3712121212121213.png,5,43,live
739,A1AAO2R3FH2G49:3MX2NQ3YCB1B8SPHOX6UN5A7A1W5XN,3917,031175_-0.5833333333333333.png,4,44,live
740,A1AAO2R3FH2G49:3MX2NQ3YCB1B8SPHOX6UN5A7A1W5XN,3293,042441_-0.75.png,5,46,live
741,A1AAO2R3FH2G49:3MX2NQ3YCB1B8SPHOX6UN5A7A1W5XN,4861,103635_0.25.png,4,47,live
742,A1AAO2R3FH2G49:3MX2NQ3YCB1B8SPHOX6UN5A7A1W5XN,4969,067211_0.5833333333333335.png,5,48,live
743,A1AAO2R3FH2G49:3MX2NQ3YCB1B8SPHOX6UN5A7A1W5XN,3940,133467_-0.3106060606060606.png,6,49,live
744,A1AAO2R3FH2G49:3MX2NQ3YCB1B8SPHOX6UN5A7A1W5XN,3096,154764_-0.09848484848484851.png,5,50,live
745,A1AAO2R3FH2G49:3MX2NQ3YCB1B8SPHOX6UN5A7A1W5XN,5455,044525_0.4015151515151516.png,4,51,live
746,A1AAO2R3FH2G49:3MX2NQ3YCB1B8SPHOX6UN5A7A1W5XN,3237,142593_0.15909090909090917.png,5,52,live
747,A1AAO2R3FH2G49:3MX2NQ3YCB1B8SPHOX6UN5A7A1W5XN,2727,134277_0.5984848484848486.png,4,53,live
748,A1AAO2R3FH2G49:3MX2NQ3YCB1B8SPHOX6UN5A7A1W5XN,5169,109247_0.6136363636363638.png,5,54,live
749,A1AAO2R3FH2G49:3MX2NQ3YCB1B8SPHOX6UN5A7A1W5XN,3054,026389_-0.022727272727272707.png,4,55,live
750,A1AAO2R3FH2G49:3MX2NQ3YCB1B8SPHOX6UN5A7A1W5XN,3410,164278_-0.3409090909090909.png,5,57,live
751,A1AAO2R3FH2G49:3MX2NQ3YCB1B8SPHOX6UN5A7A1W5XN,8289,167548_0.022727272727272707.png,4,58,live
752,A1AAO2R3FH2G49:3MX2NQ3YCB1B8SPHOX6UN5A7A1W5XN,4017,182685_0.446969696969697.png,5,59,live
753,A1AAO2R3FH2G49:3MX2NQ3YCB1B8SPHOX6UN5A7A1W5XN,4841,127629_0.7045454545454546.png,4,60,live
754,A1AAO2R3FH2G49:3MX2NQ3YCB1B8SPHOX6UN5A7A1W5XN,4303,110088_-0.11363636363636365.png,5,61,live
755,A1AAO2R3FH2G49:3MX2NQ3YCB1B8SPHOX6UN5A7A1W5XN,4890,172473_0.6590909090909092.png,4,62,live
756,A1AAO2R3FH2G49:3MX2NQ3YCB1B8SPHOX6UN5A7A1W5XN,5151,080609_0.5227272727272727.png,5,63,live
757,A1AAO2R3FH2G49:3MX2NQ3YCB1B8SPHOX6UN5A7A1W5XN,3356,080609_0.5227272727272727.png,5,64,live
758,A1AAO2R3FH2G49:3MX2NQ3YCB1B8SPHOX6UN5A7A1W5XN,6436,102475_0.1742424242424243.png,4,65,live
759,A1AAO2R3FH2G49:3MX2NQ3YCB1B8SPHOX6UN5A7A1W5XN,3302,031230_0.2954545454545454.png,5,66,live
760,A1AAO2R3FH2G49:3MX2NQ3YCB1B8SPHOX6UN5A7A1W5XN,4370,099376_0.5378787878787878.png,5,68,live
761,A1AAO2R3FH2G49:3MX2NQ3YCB1B8SPHOX6UN5A7A1W5XN,4496,163106_0.20454545454545459.png,4,69,live
762,A1AAO2R3FH2G49:3MX2NQ3YCB1B8SPHOX6UN5A7A1W5XN,2986,144397_0.26515151515151514.png,5,70,live
763,A1AAO2R3FH2G49:3MX2NQ3YCB1B8SPHOX6UN5A7A1W5XN,3506,179630_0.037878787878787845.png,5,71,live
764,A1AAO2R3FH2G49:3MX2NQ3YCB1B8SPHOX6UN5A7A1W5XN,4225,045867_-0.4621212121212121.png,4,72,live
765,A1AAO2R3FH2G49:3MX2NQ3YCB1B8SPHOX6UN5A7A1W5XN,3651,032683_0.007575757575757569.png,5,73,live
766,A1AAO2R3FH2G49:3MX2NQ3YCB1B8SPHOX6UN5A7A1W5XN,3998,012864_0.2803030303030303.png,6,74,live
767,A1AAO2R3FH2G49:3MX2NQ3YCB1B8SPHOX6UN5A7A1W5XN,5240,018758_-0.23484848484848486.png,5,75,live
768,A1AAO2R3FH2G49:3MX2NQ3YCB1B8SPHOX6UN5A7A1W5XN,3325,001195_-0.38636363636363635.png,4,76,live
769,A1AAO2R3FH2G49:3MX2NQ3YCB1B8SPHOX6UN5A7A1W5XN,3832,150226_0.3257575757575757.png,5,77,live
770,A1AAO2R3FH2G49:3MX2NQ3YCB1B8SPHOX6UN5A7A1W5XN,23423,179630_0.037878787878787845.png,4,79,live
771,A1AAO2R3FH2G49:3MX2NQ3YCB1B8SPHOX6UN5A7A1W5XN,3418,164329_0.5075757575757576.png,5,80,live
772,A1AAO2R3FH2G49:3MX2NQ3YCB1B8SPHOX6UN5A7A1W5XN,2579,026534_0.21969696969696972.png,4,81,live
773,A1AAO2R3FH2G49:3MX2NQ3YCB1B8SPHOX6UN5A7A1W5XN,2276,164278_-0.3409090909090909.png,5,82,live
774,A1AAO2R3FH2G49:3MX2NQ3YCB1B8SPHOX6UN5A7A1W5XN,2717,098631_0.23484848484848486.png,5,83,live
775,A1AAO2R3FH2G49:3MX2NQ3YCB1B8SPHOX6UN5A7A1W5XN,2607,154698_-0.20454545454545459.png,4,84,live
776,A1AAO2R3FH2G49:3MX2NQ3YCB1B8SPHOX6UN5A7A1W5XN,2196,144397_0.26515151515151514.png,5,85,live
777,A1AAO2R3FH2G49:3MX2NQ3YCB1B8SPHOX6UN5A7A1W5XN,8919,032145_-0.3560606060606061.png,5,86,live
778,A1AAO2R3FH2G49:3MX2NQ3YCB1B8SPHOX6UN5A7A1W5XN,4258,032145_-0.3560606060606061.png,4,87,live
779,A1AAO2R3FH2G49:3MX2NQ3YCB1B8SPHOX6UN5A7A1W5XN,3708,109247_0.6136363636363638.png,5,88,live
780,A1AAO2R3FH2G49:3MX2NQ3YCB1B8SPHOX6UN5A7A1W5XN,4123,033672_-0.41666666666666663.png,4,90,live
781,A1AAO2R3FH2G49:3MX2NQ3YCB1B8SPHOX6UN5A7A1W5XN,15419,050886_-0.5681818181818181.png,5,91,live
782,A1AAO2R3FH2G49:3MX2NQ3YCB1B8SPHOX6UN5A7A1W5XN,4190,025504_0.75.png,4,92,live
783,A1AAO2R3FH2G49:3MX2NQ3YCB1B8SPHOX6UN5A7A1W5XN,3180,127629_0.7045454545454546.png,5,93,live
784,A1AAO2R3FH2G49:3MX2NQ3YCB1B8SPHOX6UN5A7A1W5XN,3145,042205_-0.5075757575757576.png,4,94,live
785,A1AAO2R3FH2G49:3MX2NQ3YCB1B8SPHOX6UN5A7A1W5XN,4017,195398_-0.14393939393939392.png,5,95,live
786,A1AAO2R3FH2G49:3MX2NQ3YCB1B8SPHOX6UN5A7A1W5XN,2929,053178_0.06818181818181823.png,4,96,live
787,A1AAO2R3FH2G49:3MX2NQ3YCB1B8SPHOX6UN5A7A1W5XN,4628,119374_0.38636363636363646.png,5,97,live
788,A1AAO2R3FH2G49:3MX2NQ3YCB1B8SPHOX6UN5A7A1W5XN,4705,023416_-0.5984848484848485.png,4,98,live
789,A1AAO2R3FH2G49:3MX2NQ3YCB1B8SPHOX6UN5A7A1W5XN,2809,113917_-0.25.png,5,99,live
790,A1AAO2R3FH2G49:3MX2NQ3YCB1B8SPHOX6UN5A7A1W5XN,8946,006580_-0.1742424242424242.png,4,101,live
791,A1AAO2R3FH2G49:3MX2NQ3YCB1B8SPHOX6UN5A7A1W5XN,3748,180638_-0.26515151515151514.png,5,102,live
792,A1AAO2R3FH2G49:3MX2NQ3YCB1B8SPHOX6UN5A7A1W5XN,5134,006240_0.3560606060606062.png,1,103,live
793,A1AAO2R3FH2G49:3MX2NQ3YCB1B8SPHOX6UN5A7A1W5XN,3405,119374_0.38636363636363646.png,4,104,live
794,A1AAO2R3FH2G49:3MX2NQ3YCB1B8SPHOX6UN5A7A1W5XN,6974,198714_0.6287878787878789.png,5,105,live
795,A1AAO2R3FH2G49:3MX2NQ3YCB1B8SPHOX6UN5A7A1W5XN,4278,049976_-0.3712121212121212.png,4,106,live
796,A1AAO2R3FH2G49:3MX2NQ3YCB1B8SPHOX6UN5A7A1W5XN,3656,167696_0.643939393939394.png,5,107,live
797,A1AAO2R3FH2G49:3MX2NQ3YCB1B8SPHOX6UN5A7A1W5XN,5220,180191_-0.44696969696969696.png,6,108,live
798,A1AAO2R3FH2G49:3MX2NQ3YCB1B8SPHOX6UN5A7A1W5XN,2750,059180_-0.15909090909090906.png,5,109,live
799,A1AAO2R3FH2G49:3MX2NQ3YCB1B8SPHOX6UN5A7A1W5XN,4647,043491_-0.4318181818181818.png,4,110,live
800,A3KV9A4OE8HSU7:3ZGVPD4G6VO2YP0MQBCDN6WWY4EZT3,5044,112685_-0.007575757575757569.png,6,2,live
801,A3KV9A4OE8HSU7:3ZGVPD4G6VO2YP0MQBCDN6WWY4EZT3,2476,059180_-0.15909090909090906.png,4,3,live
802,A3KV9A4OE8HSU7:3ZGVPD4G6VO2YP0MQBCDN6WWY4EZT3,12905,148397_-0.037878787878787845.png,4,4,live
803,A3KV9A4OE8HSU7:3ZGVPD4G6VO2YP0MQBCDN6WWY4EZT3,58740,182685_0.446969696969697.png,4,5,live
804,A3KV9A4OE8HSU7:3ZGVPD4G6VO2YP0MQBCDN6WWY4EZT3,83336,026389_-0.022727272727272707.png,7,6,live
805,A3KV9A4OE8HSU7:3ZGVPD4G6VO2YP0MQBCDN6WWY4EZT3,8169,134277_0.5984848484848486.png,4,7,live
806,A3KV9A4OE8HSU7:3ZGVPD4G6VO2YP0MQBCDN6WWY4EZT3,5193,026534_0.21969696969696972.png,3,8,live
807,A3KV9A4OE8HSU7:3ZGVPD4G6VO2YP0MQBCDN6WWY4EZT3,5355,048059_0.46212121212121215.png,5,9,live
808,A3KV9A4OE8HSU7:3ZGVPD4G6VO2YP0MQBCDN6WWY4EZT3,13975,042205_-0.5075757575757576.png,5,10,live
809,A3KV9A4OE8HSU7:3ZGVPD4G6VO2YP0MQBCDN6WWY4EZT3,11831,163106_0.20454545454545459.png,4,11,live
810,A3KV9A4OE8HSU7:3ZGVPD4G6VO2YP0MQBCDN6WWY4EZT3,3096,180191_-0.44696969696969696.png,6,13,live
811,A3KV9A4OE8HSU7:3ZGVPD4G6VO2YP0MQBCDN6WWY4EZT3,6076,103635_0.25.png,7,14,live
812,A3KV9A4OE8HSU7:3ZGVPD4G6VO2YP0MQBCDN6WWY4EZT3,3608,144397_0.26515151515151514.png,7,15,live
813,A3KV9A4OE8HSU7:3ZGVPD4G6VO2YP0MQBCDN6WWY4EZT3,10028,114340_-0.12878787878787878.png,6,16,live
814,A3KV9A4OE8HSU7:3ZGVPD4G6VO2YP0MQBCDN6WWY4EZT3,7725,042441_-0.75.png,7,17,live
815,A3KV9A4OE8HSU7:3ZGVPD4G6VO2YP0MQBCDN6WWY4EZT3,6654,167696_0.643939393939394.png,7,18,live
816,A3KV9A4OE8HSU7:3ZGVPD4G6VO2YP0MQBCDN6WWY4EZT3,6457,025504_0.75.png,6,19,live
817,A3KV9A4OE8HSU7:3ZGVPD4G6VO2YP0MQBCDN6WWY4EZT3,5347,001195_-0.38636363636363635.png,7,20,live
818,A3KV9A4OE8HSU7:3ZGVPD4G6VO2YP0MQBCDN6WWY4EZT3,10092,038177_-0.7196969696969697.png,7,21,live
819,A3KV9A4OE8HSU7:3ZGVPD4G6VO2YP0MQBCDN6WWY4EZT3,6070,119374_0.38636363636363646.png,6,22,live
820,A3KV9A4OE8HSU7:3ZGVPD4G6VO2YP0MQBCDN6WWY4EZT3,13212,113917_-0.25.png,7,24,live
821,A3KV9A4OE8HSU7:3ZGVPD4G6VO2YP0MQBCDN6WWY4EZT3,6941,179630_0.037878787878787845.png,7,25,live
822,A3KV9A4OE8HSU7:3ZGVPD4G6VO2YP0MQBCDN6WWY4EZT3,6178,026104_-0.4772727272727273.png,4,26,live
823,A3KV9A4OE8HSU7:3ZGVPD4G6VO2YP0MQBCDN6WWY4EZT3,6666,012864_0.2803030303030303.png,4,27,live
824,A3KV9A4OE8HSU7:3ZGVPD4G6VO2YP0MQBCDN6WWY4EZT3,7958,102475_0.1742424242424243.png,7,28,live
825,A3KV9A4OE8HSU7:3ZGVPD4G6VO2YP0MQBCDN6WWY4EZT3,5787,012864_0.2803030303030303.png,6,29,live
826,A3KV9A4OE8HSU7:3ZGVPD4G6VO2YP0MQBCDN6WWY4EZT3,3867,006240_0.3560606060606062.png,3,30,live
827,A3KV9A4OE8HSU7:3ZGVPD4G6VO2YP0MQBCDN6WWY4EZT3,3116,109247_0.6136363636363638.png,4,31,live
828,A3KV9A4OE8HSU7:3ZGVPD4G6VO2YP0MQBCDN6WWY4EZT3,3776,167679_0.3712121212121213.png,7,32,live
829,A3KV9A4OE8HSU7:3ZGVPD4G6VO2YP0MQBCDN6WWY4EZT3,5408,154698_-0.20454545454545459.png,8,33,live
830,A3KV9A4OE8HSU7:3ZGVPD4G6VO2YP0MQBCDN6WWY4EZT3,7161,098030_0.41666666666666674.png,6,35,live
831,A3KV9A4OE8HSU7:3ZGVPD4G6VO2YP0MQBCDN6WWY4EZT3,4373,106456_-0.6742424242424242.png,5,36,live
832,A3KV9A4OE8HSU7:3ZGVPD4G6VO2YP0MQBCDN6WWY4EZT3,3628,133467_-0.3106060606060606.png,6,37,live
833,A3KV9A4OE8HSU7:3ZGVPD4G6VO2YP0MQBCDN6WWY4EZT3,4364,099376_0.5378787878787878.png,7,38,live
834,A3KV9A4OE8HSU7:3ZGVPD4G6VO2YP0MQBCDN6WWY4EZT3,3975,180638_-0.26515151515151514.png,4,39,live
835,A3KV9A4OE8HSU7:3ZGVPD4G6VO2YP0MQBCDN6WWY4EZT3,33764,098631_0.23484848484848486.png,6,40,live
836,A3KV9A4OE8HSU7:3ZGVPD4G6VO2YP0MQBCDN6WWY4EZT3,11246,112685_-0.007575757575757569.png,4,41,live
837,A3KV9A4OE8HSU7:3ZGVPD4G6VO2YP0MQBCDN6WWY4EZT3,4045,032145_-0.3560606060606061.png,3,42,live
838,A3KV9A4OE8HSU7:3ZGVPD4G6VO2YP0MQBCDN6WWY4EZT3,3286,031175_-0.5833333333333333.png,4,43,live
839,A3KV9A4OE8HSU7:3ZGVPD4G6VO2YP0MQBCDN6WWY4EZT3,5837,198714_0.6287878787878789.png,5,44,live
840,A3KV9A4OE8HSU7:3ZGVPD4G6VO2YP0MQBCDN6WWY4EZT3,4766,010202_-0.32575757575757575.png,4,46,live
841,A3KV9A4OE8HSU7:3ZGVPD4G6VO2YP0MQBCDN6WWY4EZT3,6348,142593_0.15909090909090917.png,5,47,live
842,A3KV9A4OE8HSU7:3ZGVPD4G6VO2YP0MQBCDN6WWY4EZT3,3395,154764_-0.09848484848484851.png,6,48,live
843,A3KV9A4OE8HSU7:3ZGVPD4G6VO2YP0MQBCDN6WWY4EZT3,4484,141962_-0.08333333333333326.png,7,49,live
844,A3KV9A4OE8HSU7:3ZGVPD4G6VO2YP0MQBCDN6WWY4EZT3,4266,006580_-0.1742424242424242.png,8,50,live
845,A3KV9A4OE8HSU7:3ZGVPD4G6VO2YP0MQBCDN6WWY4EZT3,85038,164278_-0.3409090909090909.png,6,51,live
846,A3KV9A4OE8HSU7:3ZGVPD4G6VO2YP0MQBCDN6WWY4EZT3,2261,043491_-0.4318181818181818.png,5,52,live
847,A3KV9A4OE8HSU7:3ZGVPD4G6VO2YP0MQBCDN6WWY4EZT3,3272,030657_-0.6590909090909091.png,7,53,live
848,A3KV9A4OE8HSU7:3ZGVPD4G6VO2YP0MQBCDN6WWY4EZT3,5845,090482_0.553030303030303.png,6,54,live
849,A3KV9A4OE8HSU7:3ZGVPD4G6VO2YP0MQBCDN6WWY4EZT3,6033,049976_-0.3712121212121212.png,7,55,live
850,A3KV9A4OE8HSU7:3ZGVPD4G6VO2YP0MQBCDN6WWY4EZT3,3439,031230_0.2954545454545454.png,6,57,live
851,A3KV9A4OE8HSU7:3ZGVPD4G6VO2YP0MQBCDN6WWY4EZT3,5468,010202_-0.32575757575757575.png,4,58,live
852,A3KV9A4OE8HSU7:3ZGVPD4G6VO2YP0MQBCDN6WWY4EZT3,4184,026389_-0.022727272727272707.png,8,59,live
853,A3KV9A4OE8HSU7:3ZGVPD4G6VO2YP0MQBCDN6WWY4EZT3,4403,053178_0.06818181818181823.png,3,60,live
854,A3KV9A4OE8HSU7:3ZGVPD4G6VO2YP0MQBCDN6WWY4EZT3,3611,127629_0.7045454545454546.png,5,61,live
855,A3KV9A4OE8HSU7:3ZGVPD4G6VO2YP0MQBCDN6WWY4EZT3,8466,110088_-0.11363636363636365.png,4,62,live
856,A3KV9A4OE8HSU7:3ZGVPD4G6VO2YP0MQBCDN6WWY4EZT3,11710,032145_-0.3560606060606061.png,6,63,live
857,A3KV9A4OE8HSU7:3ZGVPD4G6VO2YP0MQBCDN6WWY4EZT3,10474,150226_0.3257575757575757.png,6,64,live
858,A3KV9A4OE8HSU7:3ZGVPD4G6VO2YP0MQBCDN6WWY4EZT3,19895,141261_0.18939393939393945.png,7,65,live
859,A3KV9A4OE8HSU7:3ZGVPD4G6VO2YP0MQBCDN6WWY4EZT3,4772,134466_0.6742424242424243.png,7,66,live
860,A3KV9A4OE8HSU7:3ZGVPD4G6VO2YP0MQBCDN6WWY4EZT3,5416,165559_-0.5227272727272727.png,4,68,live
861,A3KV9A4OE8HSU7:3ZGVPD4G6VO2YP0MQBCDN6WWY4EZT3,14754,040610_-0.553030303030303.png,6,69,live
862,A3KV9A4OE8HSU7:3ZGVPD4G6VO2YP0MQBCDN6WWY4EZT3,7193,027333_-0.6287878787878788.png,7,70,live
863,A3KV9A4OE8HSU7:3ZGVPD4G6VO2YP0MQBCDN6WWY4EZT3,6786,053178_0.06818181818181823.png,6,71,live
864,A3KV9A4OE8HSU7:3ZGVPD4G6VO2YP0MQBCDN6WWY4EZT3,5433,061283_-0.49242424242424243.png,7,72,live
865,A3KV9A4OE8HSU7:3ZGVPD4G6VO2YP0MQBCDN6WWY4EZT3,5619,038177_-0.7196969696969697.png,8,73,live
866,A3KV9A4OE8HSU7:3ZGVPD4G6VO2YP0MQBCDN6WWY4EZT3,4124,167548_0.022727272727272707.png,6,74,live
867,A3KV9A4OE8HSU7:3ZGVPD4G6VO2YP0MQBCDN6WWY4EZT3,5093,080609_0.5227272727272727.png,7,75,live
868,A3KV9A4OE8HSU7:3ZGVPD4G6VO2YP0MQBCDN6WWY4EZT3,4968,045867_-0.4621212121212121.png,7,76,live
869,A3KV9A4OE8HSU7:3ZGVPD4G6VO2YP0MQBCDN6WWY4EZT3,4033,044525_0.4015151515151516.png,6,77,live
870,A3KV9A4OE8HSU7:3ZGVPD4G6VO2YP0MQBCDN6WWY4EZT3,6803,023784_0.6893939393939394.png,7,79,live
871,A3KV9A4OE8HSU7:3ZGVPD4G6VO2YP0MQBCDN6WWY4EZT3,9621,050886_-0.5681818181818181.png,7,80,live
872,A3KV9A4OE8HSU7:3ZGVPD4G6VO2YP0MQBCDN6WWY4EZT3,5836,033672_-0.41666666666666663.png,8,81,live
873,A3KV9A4OE8HSU7:3ZGVPD4G6VO2YP0MQBCDN6WWY4EZT3,8280,043491_-0.4318181818181818.png,7,82,live
874,A3KV9A4OE8HSU7:3ZGVPD4G6VO2YP0MQBCDN6WWY4EZT3,5076,127629_0.7045454545454546.png,7,83,live
875,A3KV9A4OE8HSU7:3ZGVPD4G6VO2YP0MQBCDN6WWY4EZT3,4799,160014_-0.18939393939393934.png,3,84,live
876,A3KV9A4OE8HSU7:3ZGVPD4G6VO2YP0MQBCDN6WWY4EZT3,3787,032683_0.007575757575757569.png,6,85,live
877,A3KV9A4OE8HSU7:3ZGVPD4G6VO2YP0MQBCDN6WWY4EZT3,8057,065471_0.053030303030303094.png,6,86,live
878,A3KV9A4OE8HSU7:3ZGVPD4G6VO2YP0MQBCDN6WWY4EZT3,3888,080609_0.5227272727272727.png,7,87,live
879,A3KV9A4OE8HSU7:3ZGVPD4G6VO2YP0MQBCDN6WWY4EZT3,5105,023416_-0.5984848484848485.png,8,88,live
880,A3KV9A4OE8HSU7:3ZGVPD4G6VO2YP0MQBCDN6WWY4EZT3,4755,144397_0.26515151515151514.png,5,90,live
881,A3KV9A4OE8HSU7:3ZGVPD4G6VO2YP0MQBCDN6WWY4EZT3,5686,119374_0.38636363636363646.png,7,91,live
882,A3KV9A4OE8HSU7:3ZGVPD4G6VO2YP0MQBCDN6WWY4EZT3,3466,067211_0.5833333333333335.png,7,92,live
883,A3KV9A4OE8HSU7:3ZGVPD4G6VO2YP0MQBCDN6WWY4EZT3,4276,041829_-0.4015151515151515.png,4,93,live
884,A3KV9A4OE8HSU7:3ZGVPD4G6VO2YP0MQBCDN6WWY4EZT3,4565,036571_0.09848484848484851.png,7,94,live
885,A3KV9A4OE8HSU7:3ZGVPD4G6VO2YP0MQBCDN6WWY4EZT3,4759,167679_0.3712121212121213.png,8,95,live
886,A3KV9A4OE8HSU7:3ZGVPD4G6VO2YP0MQBCDN6WWY4EZT3,6170,103635_0.25.png,8,96,live
887,A3KV9A4OE8HSU7:3ZGVPD4G6VO2YP0MQBCDN6WWY4EZT3,11414,090482_0.553030303030303.png,7,97,live
888,A3KV9A4OE8HSU7:3ZGVPD4G6VO2YP0MQBCDN6WWY4EZT3,5155,018758_-0.23484848484848486.png,5,98,live
889,A3KV9A4OE8HSU7:3ZGVPD4G6VO2YP0MQBCDN6WWY4EZT3,6730,008091_-0.6439393939393939.png,6,99,live
890,A3KV9A4OE8HSU7:3ZGVPD4G6VO2YP0MQBCDN6WWY4EZT3,3847,125135_-0.7348484848484849.png,6,101,live
891,A3KV9A4OE8HSU7:3ZGVPD4G6VO2YP0MQBCDN6WWY4EZT3,28098,195398_-0.14393939393939392.png,7,102,live
892,A3KV9A4OE8HSU7:3ZGVPD4G6VO2YP0MQBCDN6WWY4EZT3,9595,164329_0.5075757575757576.png,7,103,live
893,A3KV9A4OE8HSU7:3ZGVPD4G6VO2YP0MQBCDN6WWY4EZT3,8117,081779_0.34090909090909083.png,8,104,live
894,A3KV9A4OE8HSU7:3ZGVPD4G6VO2YP0MQBCDN6WWY4EZT3,9787,164278_-0.3409090909090909.png,7,105,live
895,A3KV9A4OE8HSU7:3ZGVPD4G6VO2YP0MQBCDN6WWY4EZT3,13017,109247_0.6136363636363638.png,6,106,live
896,A3KV9A4OE8HSU7:3ZGVPD4G6VO2YP0MQBCDN6WWY4EZT3,5804,065471_0.053030303030303094.png,7,107,live
897,A3KV9A4OE8HSU7:3ZGVPD4G6VO2YP0MQBCDN6WWY4EZT3,9943,172473_0.6590909090909092.png,6,108,live
898,A3KV9A4OE8HSU7:3ZGVPD4G6VO2YP0MQBCDN6WWY4EZT3,3839,179630_0.037878787878787845.png,7,109,live
899,A3KV9A4OE8HSU7:3ZGVPD4G6VO2YP0MQBCDN6WWY4EZT3,10472,154698_-0.20454545454545459.png,7,110,live
900,A3RS7UCO7CQ74R:30LSNF239W2MJ0HZ7S4VMOKG2EXI2V,2077,134277_0.5984848484848486.png,4,2,live
901,A3RS7UCO7CQ74R:30LSNF239W2MJ0HZ7S4VMOKG2EXI2V,1774,061283_-0.49242424242424243.png,7,3,live
902,A3RS7UCO7CQ74R:30LSNF239W2MJ0HZ7S4VMOKG2EXI2V,1407,125135_-0.7348484848484849.png,6,4,live
903,A3RS7UCO7CQ74R:30LSNF239W2MJ0HZ7S4VMOKG2EXI2V,2718,127629_0.7045454545454546.png,9,5,live
904,A3RS7UCO7CQ74R:30LSNF239W2MJ0HZ7S4VMOKG2EXI2V,1496,119374_0.38636363636363646.png,6,6,live
905,A3RS7UCO7CQ74R:30LSNF239W2MJ0HZ7S4VMOKG2EXI2V,1319,163106_0.20454545454545459.png,4,7,live
906,A3RS7UCO7CQ74R:30LSNF239W2MJ0HZ7S4VMOKG2EXI2V,1310,148397_-0.037878787878787845.png,5,8,live
907,A3RS7UCO7CQ74R:30LSNF239W2MJ0HZ7S4VMOKG2EXI2V,2030,043491_-0.4318181818181818.png,7,9,live
908,A3RS7UCO7CQ74R:30LSNF239W2MJ0HZ7S4VMOKG2EXI2V,1414,032145_-0.3560606060606061.png,3,10,live
909,A3RS7UCO7CQ74R:30LSNF239W2MJ0HZ7S4VMOKG2EXI2V,1440,043491_-0.4318181818181818.png,5,11,live
910,A3RS7UCO7CQ74R:30LSNF239W2MJ0HZ7S4VMOKG2EXI2V,6407,025504_0.75.png,3,13,live
911,A3RS7UCO7CQ74R:30LSNF239W2MJ0HZ7S4VMOKG2EXI2V,2934,053178_0.06818181818181823.png,6,14,live
912,A3RS7UCO7CQ74R:30LSNF239W2MJ0HZ7S4VMOKG2EXI2V,2216,027333_-0.6287878787878788.png,2,15,live
913,A3RS7UCO7CQ74R:30LSNF239W2MJ0HZ7S4VMOKG2EXI2V,1887,119374_0.38636363636363646.png,8,16,live
914,A3RS7UCO7CQ74R:30LSNF239W2MJ0HZ7S4VMOKG2EXI2V,1591,167679_0.3712121212121213.png,6,17,live
915,A3RS7UCO7CQ74R:30LSNF239W2MJ0HZ7S4VMOKG2EXI2V,2183,144397_0.26515151515151514.png,7,18,live
916,A3RS7UCO7CQ74R:30LSNF239W2MJ0HZ7S4VMOKG2EXI2V,2176,010202_-0.32575757575757575.png,4,19,live
917,A3RS7UCO7CQ74R:30LSNF239W2MJ0HZ7S4VMOKG2EXI2V,1599,141962_-0.08333333333333326.png,5,20,live
918,A3RS7UCO7CQ74R:30LSNF239W2MJ0HZ7S4VMOKG2EXI2V,1927,112685_-0.007575757575757569.png,7,21,live
919,A3RS7UCO7CQ74R:30LSNF239W2MJ0HZ7S4VMOKG2EXI2V,2206,172473_0.6590909090909092.png,3,22,live
920,A3RS7UCO7CQ74R:30LSNF239W2MJ0HZ7S4VMOKG2EXI2V,5080,167548_0.022727272727272707.png,8,24,live
921,A3RS7UCO7CQ74R:30LSNF239W2MJ0HZ7S4VMOKG2EXI2V,1940,164329_0.5075757575757576.png,9,25,live
922,A3RS7UCO7CQ74R:30LSNF239W2MJ0HZ7S4VMOKG2EXI2V,1759,133467_-0.3106060606060606.png,3,26,live
923,A3RS7UCO7CQ74R:30LSNF239W2MJ0HZ7S4VMOKG2EXI2V,1750,012864_0.2803030303030303.png,5,27,live
924,A3RS7UCO7CQ74R:30LSNF239W2MJ0HZ7S4VMOKG2EXI2V,1928,065471_0.053030303030303094.png,1,28,live
925,A3RS7UCO7CQ74R:30LSNF239W2MJ0HZ7S4VMOKG2EXI2V,1551,042205_-0.5075757575757576.png,6,29,live
926,A3RS7UCO7CQ74R:30LSNF239W2MJ0HZ7S4VMOKG2EXI2V,1614,033672_-0.41666666666666663.png,5,30,live
927,A3RS7UCO7CQ74R:30LSNF239W2MJ0HZ7S4VMOKG2EXI2V,1639,045867_-0.4621212121212121.png,7,31,live
928,A3RS7UCO7CQ74R:30LSNF239W2MJ0HZ7S4VMOKG2EXI2V,1431,150226_0.3257575757575757.png,4,32,live
929,A3RS7UCO7CQ74R:30LSNF239W2MJ0HZ7S4VMOKG2EXI2V,2760,098631_0.23484848484848486.png,8,33,live
930,A3RS7UCO7CQ74R:30LSNF239W2MJ0HZ7S4VMOKG2EXI2V,2542,164278_-0.3409090909090909.png,3,35,live
931,A3RS7UCO7CQ74R:30LSNF239W2MJ0HZ7S4VMOKG2EXI2V,1895,042441_-0.75.png,6,36,live
932,A3RS7UCO7CQ74R:30LSNF239W2MJ0HZ7S4VMOKG2EXI2V,2014,134466_0.6742424242424243.png,8,37,live
933,A3RS7UCO7CQ74R:30LSNF239W2MJ0HZ7S4VMOKG2EXI2V,2272,065471_0.053030303030303094.png,9,38,live
934,A3RS7UCO7CQ74R:30LSNF239W2MJ0HZ7S4VMOKG2EXI2V,1911,048059_0.46212121212121215.png,2,39,live
935,A3RS7UCO7CQ74R:30LSNF239W2MJ0HZ7S4VMOKG2EXI2V,1710,026389_-0.022727272727272707.png,4,40,live
936,A3RS7UCO7CQ74R:30LSNF239W2MJ0HZ7S4VMOKG2EXI2V,2656,154698_-0.20454545454545459.png,6,41,live
937,A3RS7UCO7CQ74R:30LSNF239W2MJ0HZ7S4VMOKG2EXI2V,1759,032145_-0.3560606060606061.png,5,42,live
938,A3RS7UCO7CQ74R:30LSNF239W2MJ0HZ7S4VMOKG2EXI2V,1928,160014_-0.18939393939393934.png,8,43,live
939,A3RS7UCO7CQ74R:30LSNF239W2MJ0HZ7S4VMOKG2EXI2V,3248,032683_0.007575757575757569.png,2,44,live
940,A3RS7UCO7CQ74R:30LSNF239W2MJ0HZ7S4VMOKG2EXI2V,4207,102475_0.1742424242424243.png,6,46,live
941,A3RS7UCO7CQ74R:30LSNF239W2MJ0HZ7S4VMOKG2EXI2V,1807,109247_0.6136363636363638.png,4,47,live
942,A3RS7UCO7CQ74R:30LSNF239W2MJ0HZ7S4VMOKG2EXI2V,1406,059180_-0.15909090909090906.png,5,48,live
943,A3RS7UCO7CQ74R:30LSNF239W2MJ0HZ7S4VMOKG2EXI2V,2191,031175_-0.5833333333333333.png,2,49,live
944,A3RS7UCO7CQ74R:30LSNF239W2MJ0HZ7S4VMOKG2EXI2V,5119,023784_0.6893939393939394.png,7,50,live
945,A3RS7UCO7CQ74R:30LSNF239W2MJ0HZ7S4VMOKG2EXI2V,2463,098030_0.41666666666666674.png,6,51,live
946,A3RS7UCO7CQ74R:30LSNF239W2MJ0HZ7S4VMOKG2EXI2V,1990,026104_-0.4772727272727273.png,8,52,live
947,A3RS7UCO7CQ74R:30LSNF239W2MJ0HZ7S4VMOKG2EXI2V,1664,080609_0.5227272727272727.png,4,53,live
948,A3RS7UCO7CQ74R:30LSNF239W2MJ0HZ7S4VMOKG2EXI2V,1927,165559_-0.5227272727272727.png,6,54,live
949,A3RS7UCO7CQ74R:30LSNF239W2MJ0HZ7S4VMOKG2EXI2V,1847,154764_-0.09848484848484851.png,5,55,live
950,A3RS7UCO7CQ74R:30LSNF239W2MJ0HZ7S4VMOKG2EXI2V,3485,081779_0.34090909090909083.png,9,57,live
951,A3RS7UCO7CQ74R:30LSNF239W2MJ0HZ7S4VMOKG2EXI2V,1496,106456_-0.6742424242424242.png,4,58,live
952,A3RS7UCO7CQ74R:30LSNF239W2MJ0HZ7S4VMOKG2EXI2V,2311,030657_-0.6590909090909091.png,6,59,live
953,A3RS7UCO7CQ74R:30LSNF239W2MJ0HZ7S4VMOKG2EXI2V,2358,127629_0.7045454545454546.png,2,60,live
954,A3RS7UCO7CQ74R:30LSNF239W2MJ0HZ7S4VMOKG2EXI2V,1470,179630_0.037878787878787845.png,6,61,live
955,A3RS7UCO7CQ74R:30LSNF239W2MJ0HZ7S4VMOKG2EXI2V,2072,112685_-0.007575757575757569.png,7,62,live
956,A3RS7UCO7CQ74R:30LSNF239W2MJ0HZ7S4VMOKG2EXI2V,2095,144397_0.26515151515151514.png,6,63,live
957,A3RS7UCO7CQ74R:30LSNF239W2MJ0HZ7S4VMOKG2EXI2V,35207,026389_-0.022727272727272707.png,7,64,live
958,A3RS7UCO7CQ74R:30LSNF239W2MJ0HZ7S4VMOKG2EXI2V,2455,008091_-0.6439393939393939.png,5,65,live
959,A3RS7UCO7CQ74R:30LSNF239W2MJ0HZ7S4VMOKG2EXI2V,1992,044525_0.4015151515151516.png,8,66,live
960,A3RS7UCO7CQ74R:30LSNF239W2MJ0HZ7S4VMOKG2EXI2V,2038,180638_-0.26515151515151514.png,4,68,live
961,A3RS7UCO7CQ74R:30LSNF239W2MJ0HZ7S4VMOKG2EXI2V,2830,001195_-0.38636363636363635.png,1,69,live
962,A3RS7UCO7CQ74R:30LSNF239W2MJ0HZ7S4VMOKG2EXI2V,1559,103635_0.25.png,6,70,live
963,A3RS7UCO7CQ74R:30LSNF239W2MJ0HZ7S4VMOKG2EXI2V,1943,114340_-0.12878787878787878.png,5,71,live
964,A3RS7UCO7CQ74R:30LSNF239W2MJ0HZ7S4VMOKG2EXI2V,1766,010202_-0.32575757575757575.png,8,72,live
965,A3RS7UCO7CQ74R:30LSNF239W2MJ0HZ7S4VMOKG2EXI2V,1958,103635_0.25.png,6,73,live
966,A3RS7UCO7CQ74R:30LSNF239W2MJ0HZ7S4VMOKG2EXI2V,1887,109247_0.6136363636363638.png,3,74,live
967,A3RS7UCO7CQ74R:30LSNF239W2MJ0HZ7S4VMOKG2EXI2V,1472,041829_-0.4015151515151515.png,5,75,live
968,A3RS7UCO7CQ74R:30LSNF239W2MJ0HZ7S4VMOKG2EXI2V,1709,090482_0.553030303030303.png,2,76,live
969,A3RS7UCO7CQ74R:30LSNF239W2MJ0HZ7S4VMOKG2EXI2V,2584,099376_0.5378787878787878.png,7,77,live
970,A3RS7UCO7CQ74R:30LSNF239W2MJ0HZ7S4VMOKG2EXI2V,3861,141261_0.18939393939393945.png,5,79,live
971,A3RS7UCO7CQ74R:30LSNF239W2MJ0HZ7S4VMOKG2EXI2V,1757,012864_0.2803030303030303.png,8,80,live
972,A3RS7UCO7CQ74R:30LSNF239W2MJ0HZ7S4VMOKG2EXI2V,1912,006240_0.3560606060606062.png,5,81,live
973,A3RS7UCO7CQ74R:30LSNF239W2MJ0HZ7S4VMOKG2EXI2V,2167,198714_0.6287878787878789.png,3,82,live
974,A3RS7UCO7CQ74R:30LSNF239W2MJ0HZ7S4VMOKG2EXI2V,1511,038177_-0.7196969696969697.png,6,83,live
975,A3RS7UCO7CQ74R:30LSNF239W2MJ0HZ7S4VMOKG2EXI2V,1688,018758_-0.23484848484848486.png,5,84,live
976,A3RS7UCO7CQ74R:30LSNF239W2MJ0HZ7S4VMOKG2EXI2V,2895,049976_-0.3712121212121212.png,2,85,live
977,A3RS7UCO7CQ74R:30LSNF239W2MJ0HZ7S4VMOKG2EXI2V,3007,179630_0.037878787878787845.png,6,86,live
978,A3RS7UCO7CQ74R:30LSNF239W2MJ0HZ7S4VMOKG2EXI2V,1647,167679_0.3712121212121213.png,5,87,live
979,A3RS7UCO7CQ74R:30LSNF239W2MJ0HZ7S4VMOKG2EXI2V,1776,164278_-0.3409090909090909.png,7,88,live
980,A3RS7UCO7CQ74R:30LSNF239W2MJ0HZ7S4VMOKG2EXI2V,1782,053178_0.06818181818181823.png,6,90,live
981,A3RS7UCO7CQ74R:30LSNF239W2MJ0HZ7S4VMOKG2EXI2V,2070,038177_-0.7196969696969697.png,7,91,live
982,A3RS7UCO7CQ74R:30LSNF239W2MJ0HZ7S4VMOKG2EXI2V,1704,023416_-0.5984848484848485.png,5,92,live
983,A3RS7UCO7CQ74R:30LSNF239W2MJ0HZ7S4VMOKG2EXI2V,1910,026534_0.21969696969696972.png,3,93,live
984,A3RS7UCO7CQ74R:30LSNF239W2MJ0HZ7S4VMOKG2EXI2V,2343,142593_0.15909090909090917.png,5,94,live
985,A3RS7UCO7CQ74R:30LSNF239W2MJ0HZ7S4VMOKG2EXI2V,1559,067211_0.5833333333333335.png,6,95,live
986,A3RS7UCO7CQ74R:30LSNF239W2MJ0HZ7S4VMOKG2EXI2V,1558,182685_0.446969696969697.png,4,96,live
987,A3RS7UCO7CQ74R:30LSNF239W2MJ0HZ7S4VMOKG2EXI2V,1592,110088_-0.11363636363636365.png,7,97,live
988,A3RS7UCO7CQ74R:30LSNF239W2MJ0HZ7S4VMOKG2EXI2V,2062,080609_0.5227272727272727.png,8,98,live
989,A3RS7UCO7CQ74R:30LSNF239W2MJ0HZ7S4VMOKG2EXI2V,1335,036571_0.09848484848484851.png,6,99,live
990,A3RS7UCO7CQ74R:30LSNF239W2MJ0HZ7S4VMOKG2EXI2V,1602,090482_0.553030303030303.png,5,101,live
991,A3RS7UCO7CQ74R:30LSNF239W2MJ0HZ7S4VMOKG2EXI2V,1558,195398_-0.14393939393939392.png,6,102,live
992,A3RS7UCO7CQ74R:30LSNF239W2MJ0HZ7S4VMOKG2EXI2V,1879,180191_-0.44696969696969696.png,8,103,live
993,A3RS7UCO7CQ74R:30LSNF239W2MJ0HZ7S4VMOKG2EXI2V,1605,113917_-0.25.png,6,104,live
994,A3RS7UCO7CQ74R:30LSNF239W2MJ0HZ7S4VMOKG2EXI2V,2903,031230_0.2954545454545454.png,4,105,live
995,A3RS7UCO7CQ74R:30LSNF239W2MJ0HZ7S4VMOKG2EXI2V,1830,154698_-0.20454545454545459.png,6,106,live
996,A3RS7UCO7CQ74R:30LSNF239W2MJ0HZ7S4VMOKG2EXI2V,2111,167696_0.643939393939394.png,9,107,live
997,A3RS7UCO7CQ74R:30LSNF239W2MJ0HZ7S4VMOKG2EXI2V,2016,006580_-0.1742424242424242.png,3,108,live
998,A3RS7UCO7CQ74R:30LSNF239W2MJ0HZ7S4VMOKG2EXI2V,1630,050886_-0.5681818181818181.png,5,109,live
999,A3RS7UCO7CQ74R:30LSNF239W2MJ0HZ7S4VMOKG2EXI2V,2279,040610_-0.553030303030303.png,4,110,live
1000,A14BO0JIQTNMOW:3GGAI1SQEX5LD1ZSP0RTQU0JVF5MC1,7397,163106_0.20454545454545459.png,8,2,live
1001,A14BO0JIQTNMOW:3GGAI1SQEX5LD1ZSP0RTQU0JVF5MC1,2717,038177_-0.7196969696969697.png,7,3,live
1002,A14BO0JIQTNMOW:3GGAI1SQEX5LD1ZSP0RTQU0JVF5MC1,4430,041829_-0.4015151515151515.png,7,4,live
1003,A14BO0JIQTNMOW:3GGAI1SQEX5LD1ZSP0RTQU0JVF5MC1,3007,148397_-0.037878787878787845.png,6,5,live
1004,A14BO0JIQTNMOW:3GGAI1SQEX5LD1ZSP0RTQU0JVF5MC1,2926,050886_-0.5681818181818181.png,7,6,live
1005,A14BO0JIQTNMOW:3GGAI1SQEX5LD1ZSP0RTQU0JVF5MC1,6262,198714_0.6287878787878789.png,8,7,live
1006,A14BO0JIQTNMOW:3GGAI1SQEX5LD1ZSP0RTQU0JVF5MC1,4709,167679_0.3712121212121213.png,7,8,live
1007,A14BO0JIQTNMOW:3GGAI1SQEX5LD1ZSP0RTQU0JVF5MC1,3319,119374_0.38636363636363646.png,8,9,live
1008,A14BO0JIQTNMOW:3GGAI1SQEX5LD1ZSP0RTQU0JVF5MC1,5006,010202_-0.32575757575757575.png,8,10,live
1009,A14BO0JIQTNMOW:3GGAI1SQEX5LD1ZSP0RTQU0JVF5MC1,5805,053178_0.06818181818181823.png,6,11,live
1010,A14BO0JIQTNMOW:3GGAI1SQEX5LD1ZSP0RTQU0JVF5MC1,3990,098030_0.41666666666666674.png,8,13,live
1011,A14BO0JIQTNMOW:3GGAI1SQEX5LD1ZSP0RTQU0JVF5MC1,3879,061283_-0.49242424242424243.png,7,14,live
1012,A14BO0JIQTNMOW:3GGAI1SQEX5LD1ZSP0RTQU0JVF5MC1,4422,165559_-0.5227272727272727.png,8,15,live
1013,A14BO0JIQTNMOW:3GGAI1SQEX5LD1ZSP0RTQU0JVF5MC1,3902,065471_0.053030303030303094.png,7,16,live
1014,A14BO0JIQTNMOW:3GGAI1SQEX5LD1ZSP0RTQU0JVF5MC1,5478,018758_-0.23484848484848486.png,6,17,live
1015,A14BO0JIQTNMOW:3GGAI1SQEX5LD1ZSP0RTQU0JVF5MC1,6310,109247_0.6136363636363638.png,7,18,live
1016,A14BO0JIQTNMOW:3GGAI1SQEX5LD1ZSP0RTQU0JVF5MC1,2886,090482_0.553030303030303.png,8,19,live
1017,A14BO0JIQTNMOW:3GGAI1SQEX5LD1ZSP0RTQU0JVF5MC1,4606,026389_-0.022727272727272707.png,8,20,live
1018,A14BO0JIQTNMOW:3GGAI1SQEX5LD1ZSP0RTQU0JVF5MC1,3950,099376_0.5378787878787878.png,9,21,live
1019,A14BO0JIQTNMOW:3GGAI1SQEX5LD1ZSP0RTQU0JVF5MC1,3278,023784_0.6893939393939394.png,8,22,live
1020,A14BO0JIQTNMOW:3GGAI1SQEX5LD1ZSP0RTQU0JVF5MC1,4766,141962_-0.08333333333333326.png,9,24,live
1021,A14BO0JIQTNMOW:3GGAI1SQEX5LD1ZSP0RTQU0JVF5MC1,4263,119374_0.38636363636363646.png,8,25,live
1022,A14BO0JIQTNMOW:3GGAI1SQEX5LD1ZSP0RTQU0JVF5MC1,4294,045867_-0.4621212121212121.png,7,26,live
1023,A14BO0JIQTNMOW:3GGAI1SQEX5LD1ZSP0RTQU0JVF5MC1,3415,182685_0.446969696969697.png,6,27,live
1024,A14BO0JIQTNMOW:3GGAI1SQEX5LD1ZSP0RTQU0JVF5MC1,3685,150226_0.3257575757575757.png,8,28,live
1025,A14BO0JIQTNMOW:3GGAI1SQEX5LD1ZSP0RTQU0JVF5MC1,2590,006580_-0.1742424242424242.png,7,29,live
1026,A14BO0JIQTNMOW:3GGAI1SQEX5LD1ZSP0RTQU0JVF5MC1,2454,042441_-0.75.png,8,30,live
1027,A14BO0JIQTNMOW:3GGAI1SQEX5LD1ZSP0RTQU0JVF5MC1,4360,049976_-0.3712121212121212.png,8,31,live
1028,A14BO0JIQTNMOW:3GGAI1SQEX5LD1ZSP0RTQU0JVF5MC1,3302,179630_0.037878787878787845.png,7,32,live
1029,A14BO0JIQTNMOW:3GGAI1SQEX5LD1ZSP0RTQU0JVF5MC1,2478,059180_-0.15909090909090906.png,8,33,live
1030,A14BO0JIQTNMOW:3GGAI1SQEX5LD1ZSP0RTQU0JVF5MC1,2664,026389_-0.022727272727272707.png,7,35,live
1031,A14BO0JIQTNMOW:3GGAI1SQEX5LD1ZSP0RTQU0JVF5MC1,2621,180191_-0.44696969696969696.png,8,36,live
1032,A14BO0JIQTNMOW:3GGAI1SQEX5LD1ZSP0RTQU0JVF5MC1,1966,026104_-0.4772727272727273.png,7,37,live
1033,A14BO0JIQTNMOW:3GGAI1SQEX5LD1ZSP0RTQU0JVF5MC1,3710,154764_-0.09848484848484851.png,8,38,live
1034,A14BO0JIQTNMOW:3GGAI1SQEX5LD1ZSP0RTQU0JVF5MC1,3159,102475_0.1742424242424243.png,7,39,live
1035,A14BO0JIQTNMOW:3GGAI1SQEX5LD1ZSP0RTQU0JVF5MC1,2741,048059_0.46212121212121215.png,8,40,live
1036,A14BO0JIQTNMOW:3GGAI1SQEX5LD1ZSP0RTQU0JVF5MC1,4086,025504_0.75.png,7,41,live
1037,A14BO0JIQTNMOW:3GGAI1SQEX5LD1ZSP0RTQU0JVF5MC1,3413,112685_-0.007575757575757569.png,8,42,live
1038,A14BO0JIQTNMOW:3GGAI1SQEX5LD1ZSP0RTQU0JVF5MC1,2632,167696_0.643939393939394.png,7,43,live
1039,A14BO0JIQTNMOW:3GGAI1SQEX5LD1ZSP0RTQU0JVF5MC1,1959,001195_-0.38636363636363635.png,8,44,live
1040,A14BO0JIQTNMOW:3GGAI1SQEX5LD1ZSP0RTQU0JVF5MC1,2131,164329_0.5075757575757576.png,8,46,live
1041,A14BO0JIQTNMOW:3GGAI1SQEX5LD1ZSP0RTQU0JVF5MC1,2189,038177_-0.7196969696969697.png,9,47,live
1042,A14BO0JIQTNMOW:3GGAI1SQEX5LD1ZSP0RTQU0JVF5MC1,4868,012864_0.2803030303030303.png,6,48,live
1043,A14BO0JIQTNMOW:3GGAI1SQEX5LD1ZSP0RTQU0JVF5MC1,4550,043491_-0.4318181818181818.png,7,49,live
1044,A14BO0JIQTNMOW:3GGAI1SQEX5LD1ZSP0RTQU0JVF5MC1,3375,032145_-0.3560606060606061.png,8,50,live
1045,A14BO0JIQTNMOW:3GGAI1SQEX5LD1ZSP0RTQU0JVF5MC1,3006,195398_-0.14393939393939392.png,9,51,live
1046,A14BO0JIQTNMOW:3GGAI1SQEX5LD1ZSP0RTQU0JVF5MC1,2509,142593_0.15909090909090917.png,8,52,live
1047,A14BO0JIQTNMOW:3GGAI1SQEX5LD1ZSP0RTQU0JVF5MC1,3590,127629_0.7045454545454546.png,7,53,live
1048,A14BO0JIQTNMOW:3GGAI1SQEX5LD1ZSP0RTQU0JVF5MC1,3310,179630_0.037878787878787845.png,8,54,live
1049,A14BO0JIQTNMOW:3GGAI1SQEX5LD1ZSP0RTQU0JVF5MC1,4279,012864_0.2803030303030303.png,7,55,live
1050,A14BO0JIQTNMOW:3GGAI1SQEX5LD1ZSP0RTQU0JVF5MC1,2118,134466_0.6742424242424243.png,7,57,live
