A1P0M5D9IGZIDK:3RANCT1ZVHOLG4CVK2MK6KBVQFXUBH,0,1548237854876,"{""rt"": 27598, ""trial_type"": ""instructions"", ""view_history"": ""[{\""page_index\"":0,\""viewing_time\"":6001},{\""page_index\"":1,\""viewing_time\"":8957},{\""page_index\"":2,\""viewing_time\"":12639}]"", ""task_type"": ""instruction"", ""task_payment"": 1, ""task_version"": 1, ""internal_node_id"": ""0.0-0.0"", ""time_elapsed"": 27605, ""debug_mode"": ""live"", ""task_name"": ""aggressive-modifae-single"", ""task_unique_trial"": 100, ""trial_index"": 0}"
A1P0M5D9IGZIDK:3RANCT1ZVHOLG4CVK2MK6KBVQFXUBH,1,1548237880500,"{""rt"": 25598, ""trial_type"": ""survey-multi-choice"", ""task_type"": ""demographic-multichoice"", ""responses"": ""{\""Q0\"":\""18-25\"",\""Q1\"":\""Male\"",\""Q2\"":\""No\"",\""Q3\"":\""2\"",\""Q4\"":\""White\"",\""Q5\"":\""Some college, no degree\"",\""Q6\"":\""$50,000 - $74,999\""}"", ""task_payment"": 1, ""task_version"": 1, ""time_elapsed"": 53230, ""sanity_check_1_continue"": true, ""random_num"": 2, ""debug_mode"": ""live"", ""questions"": ""[{\""prompt\"":\""What is your age?\"",\""options\"":[\""Under 18\"",\""18-25\"",\""26-35\"",\""36-45\"",\""46-55\"",\""56+\""],\""required\"":true},{\""prompt\"":\""What is your gender?\"",\""options\"":[\""Male\"",\""Female\"",\""Other/Prefer not to say\""],\""required\"":true},{\""prompt\"":\""Are you of Hispanic, Latino, or Spanish origin?\"",\""options\"":[\""Yes\"",\""No\""],\""required\"":true},{\""prompt\"":\""Please choose the option that matches the number here: 2\"",\""options\"":[\""1\"",\""2\"",\""3\"",\""4\""],\""required\"":true},{\""prompt\"":\""How would you describe yourself?\"",\""options\"":[\""American Indian or Alaskan Native\"",\""Asian\"",\""Black or African-American\"",\""Native Hawaiian or Other Pacific Islander\"",\""White\""],\""required\"":true},{\""prompt\"":\""What is the highest degree or level of school you have completed? (If you&#8217;re currently enrolled in school, please indicate the highest degree you have received)\"",\""options\"":[\""Less than a high school diploma\"",\""High school degree or equivalent (e.g. GED)\"",\""Some college, no degree\"",\""Associate degree (e.g. AA, AS)\"",\""Bachelor&#8217;s degree (e.g. BA, BS) or above\""],\""required\"":true},{\""prompt\"":\""What is the total income of all members of your household?\"",\""options\"":[\""Less than $20,000\"",\""$20,000  - $49,999\"",\""$50,000 - $74,999\"",\""$75,000 and above\""],\""required\"":true}]"", ""internal_node_id"": ""0.0-1.0-0.0"", ""task_unique_trial"": 100, ""task_name"": ""aggressive-modifae-single"", ""trial_index"": 1}"
A1P0M5D9IGZIDK:3RANCT1ZVHOLG4CVK2MK6KBVQFXUBH,2,1548237885155,"{""rt"": 4651, ""trial_type"": ""face-likert-amanda"", ""debug_mode"": ""live"", ""task_type"": ""face trials"", ""responses"": ""{\""Q0\"":0}"", ""task_payment"": 1, ""task_version"": 1, ""internal_node_id"": ""0.0-2.0-0.0-0.0"", ""time_elapsed"": 57886, ""imgName"": ""/static/images/modifae_new_linspace/aggressive/198714_0.6287878787878789.png"", ""questions"": ""[{\""prompt\"":\""<p>How <b>aggressive</b> does this person look to <b>most people</b>? Rate from 1-9</p>\"",\""labels\"":[\""1 <br/><b>Not aggressive at all</b>\"",\""2\"",\""3\"",\""4\"",\""5\"",\""6\"",\""7\"",\""8\"",\""9  <br/><b>Extremely aggressive</b>\""],\""required\"":true}]"", ""task_unique_trial"": 100, ""task_name"": ""aggressive-modifae-single"", ""trial_index"": 2, ""isRepeat"": 0}"
A1P0M5D9IGZIDK:3RANCT1ZVHOLG4CVK2MK6KBVQFXUBH,3,1548237888742,"{""rt"": 3582, ""trial_type"": ""face-likert-amanda"", ""debug_mode"": ""live"", ""task_type"": ""face trials"", ""responses"": ""{\""Q0\"":0}"", ""task_payment"": 1, ""task_version"": 1, ""internal_node_id"": ""0.0-2.0-0.0-1.0"", ""time_elapsed"": 61473, ""imgName"": ""/static/images/modifae_new_linspace/aggressive/041829_-0.4015151515151515.png"", ""questions"": ""[{\""prompt\"":\""<p>How <b>aggressive</b> does this person look to <b>most people</b>? Rate from 1-9</p>\"",\""labels\"":[\""1 <br/><b>Not aggressive at all</b>\"",\""2\"",\""3\"",\""4\"",\""5\"",\""6\"",\""7\"",\""8\"",\""9  <br/><b>Extremely aggressive</b>\""],\""required\"":true}]"", ""task_unique_trial"": 100, ""task_name"": ""aggressive-modifae-single"", ""trial_index"": 3, ""isRepeat"": 0}"
A1P0M5D9IGZIDK:3RANCT1ZVHOLG4CVK2MK6KBVQFXUBH,4,1548237892406,"{""rt"": 3659, ""trial_type"": ""face-likert-amanda"", ""debug_mode"": ""live"", ""task_type"": ""face trials"", ""responses"": ""{\""Q0\"":3}"", ""task_payment"": 1, ""task_version"": 1, ""internal_node_id"": ""0.0-2.0-0.0-2.0"", ""time_elapsed"": 65137, ""imgName"": ""/static/images/modifae_new_linspace/aggressive/164278_-0.3409090909090909.png"", ""questions"": ""[{\""prompt\"":\""<p>How <b>aggressive</b> does this person look to <b>most people</b>? Rate from 1-9</p>\"",\""labels\"":[\""1 <br/><b>Not aggressive at all</b>\"",\""2\"",\""3\"",\""4\"",\""5\"",\""6\"",\""7\"",\""8\"",\""9  <br/><b>Extremely aggressive</b>\""],\""required\"":true}]"", ""task_unique_trial"": 100, ""task_name"": ""aggressive-modifae-single"", ""trial_index"": 4, ""isRepeat"": 0}"
A1P0M5D9IGZIDK:3RANCT1ZVHOLG4CVK2MK6KBVQFXUBH,5,1548237895408,"{""rt"": 2999, ""trial_type"": ""face-likert-amanda"", ""debug_mode"": ""live"", ""task_type"": ""face trials"", ""responses"": ""{\""Q0\"":3}"", ""task_payment"": 1, ""task_version"": 1, ""internal_node_id"": ""0.0-2.0-0.0-3.0"", ""time_elapsed"": 68139, ""imgName"": ""/static/images/modifae_new_linspace/aggressive/042205_-0.5075757575757576.png"", ""questions"": ""[{\""prompt\"":\""<p>How <b>aggressive</b> does this person look to <b>most people</b>? Rate from 1-9</p>\"",\""labels\"":[\""1 <br/><b>Not aggressive at all</b>\"",\""2\"",\""3\"",\""4\"",\""5\"",\""6\"",\""7\"",\""8\"",\""9  <br/><b>Extremely aggressive</b>\""],\""required\"":true}]"", ""task_unique_trial"": 100, ""task_name"": ""aggressive-modifae-single"", ""trial_index"": 5, ""isRepeat"": 0}"
A1P0M5D9IGZIDK:3RANCT1ZVHOLG4CVK2MK6KBVQFXUBH,6,1548237898889,"{""rt"": 3479, ""trial_type"": ""face-likert-amanda"", ""debug_mode"": ""live"", ""task_type"": ""face trials"", ""responses"": ""{\""Q0\"":0}"", ""task_payment"": 1, ""task_version"": 1, ""internal_node_id"": ""0.0-2.0-0.0-4.0"", ""time_elapsed"": 71619, ""imgName"": ""/static/images/modifae_new_linspace/aggressive/114340_-0.12878787878787878.png"", ""questions"": ""[{\""prompt\"":\""<p>How <b>aggressive</b> does this person look to <b>most people</b>? Rate from 1-9</p>\"",\""labels\"":[\""1 <br/><b>Not aggressive at all</b>\"",\""2\"",\""3\"",\""4\"",\""5\"",\""6\"",\""7\"",\""8\"",\""9  <br/><b>Extremely aggressive</b>\""],\""required\"":true}]"", ""task_unique_trial"": 100, ""task_name"": ""aggressive-modifae-single"", ""trial_index"": 6, ""isRepeat"": 0}"
A1P0M5D9IGZIDK:3RANCT1ZVHOLG4CVK2MK6KBVQFXUBH,7,1548237902979,"{""rt"": 4087, ""trial_type"": ""face-likert-amanda"", ""debug_mode"": ""live"", ""task_type"": ""face trials"", ""responses"": ""{\""Q0\"":0}"", ""task_payment"": 1, ""task_version"": 1, ""internal_node_id"": ""0.0-2.0-0.0-5.0"", ""time_elapsed"": 75710, ""imgName"": ""/static/images/modifae_new_linspace/aggressive/023784_0.6893939393939394.png"", ""questions"": ""[{\""prompt\"":\""<p>How <b>aggressive</b> does this person look to <b>most people</b>? Rate from 1-9</p>\"",\""labels\"":[\""1 <br/><b>Not aggressive at all</b>\"",\""2\"",\""3\"",\""4\"",\""5\"",\""6\"",\""7\"",\""8\"",\""9  <br/><b>Extremely aggressive</b>\""],\""required\"":true}]"", ""task_unique_trial"": 100, ""task_name"": ""aggressive-modifae-single"", ""trial_index"": 7, ""isRepeat"": 0}"
A1P0M5D9IGZIDK:3RANCT1ZVHOLG4CVK2MK6KBVQFXUBH,8,1548237907083,"{""rt"": 4102, ""trial_type"": ""face-likert-amanda"", ""debug_mode"": ""live"", ""task_type"": ""face trials"", ""responses"": ""{\""Q0\"":1}"", ""task_payment"": 1, ""task_version"": 1, ""internal_node_id"": ""0.0-2.0-0.0-6.0"", ""time_elapsed"": 79813, ""imgName"": ""/static/images/modifae_new_linspace/aggressive/179630_0.037878787878787845.png"", ""questions"": ""[{\""prompt\"":\""<p>How <b>aggressive</b> does this person look to <b>most people</b>? Rate from 1-9</p>\"",\""labels\"":[\""1 <br/><b>Not aggressive at all</b>\"",\""2\"",\""3\"",\""4\"",\""5\"",\""6\"",\""7\"",\""8\"",\""9  <br/><b>Extremely aggressive</b>\""],\""required\"":true}]"", ""task_unique_trial"": 100, ""task_name"": ""aggressive-modifae-single"", ""trial_index"": 8, ""isRepeat"": 0}"
A1P0M5D9IGZIDK:3RANCT1ZVHOLG4CVK2MK6KBVQFXUBH,9,1548237910216,"{""rt"": 3131, ""trial_type"": ""face-likert-amanda"", ""debug_mode"": ""live"", ""task_type"": ""face trials"", ""responses"": ""{\""Q0\"":2}"", ""task_payment"": 1, ""task_version"": 1, ""internal_node_id"": ""0.0-2.0-0.0-7.0"", ""time_elapsed"": 82947, ""imgName"": ""/static/images/modifae_new_linspace/aggressive/044525_0.4015151515151516.png"", ""questions"": ""[{\""prompt\"":\""<p>How <b>aggressive</b> does this person look to <b>most people</b>? Rate from 1-9</p>\"",\""labels\"":[\""1 <br/><b>Not aggressive at all</b>\"",\""2\"",\""3\"",\""4\"",\""5\"",\""6\"",\""7\"",\""8\"",\""9  <br/><b>Extremely aggressive</b>\""],\""required\"":true}]"", ""task_unique_trial"": 100, ""task_name"": ""aggressive-modifae-single"", ""trial_index"": 9, ""isRepeat"": 0}"
A1P0M5D9IGZIDK:3RANCT1ZVHOLG4CVK2MK6KBVQFXUBH,10,1548237914393,"{""rt"": 4174, ""trial_type"": ""face-likert-amanda"", ""debug_mode"": ""live"", ""task_type"": ""face trials"", ""responses"": ""{\""Q0\"":2}"", ""task_payment"": 1, ""task_version"": 1, ""internal_node_id"": ""0.0-2.0-0.0-8.0"", ""time_elapsed"": 87124, ""imgName"": ""/static/images/modifae_new_linspace/aggressive/043491_-0.4318181818181818.png"", ""questions"": ""[{\""prompt\"":\""<p>How <b>aggressive</b> does this person look to <b>most people</b>? Rate from 1-9</p>\"",\""labels\"":[\""1 <br/><b>Not aggressive at all</b>\"",\""2\"",\""3\"",\""4\"",\""5\"",\""6\"",\""7\"",\""8\"",\""9  <br/><b>Extremely aggressive</b>\""],\""required\"":true}]"", ""task_unique_trial"": 100, ""task_name"": ""aggressive-modifae-single"", ""trial_index"": 10, ""isRepeat"": 0}"
A1P0M5D9IGZIDK:3RANCT1ZVHOLG4CVK2MK6KBVQFXUBH,11,1548237916692,"{""rt"": 2296, ""trial_type"": ""face-likert-amanda"", ""debug_mode"": ""live"", ""task_type"": ""face trials"", ""responses"": ""{\""Q0\"":3}"", ""task_payment"": 1, ""task_version"": 1, ""internal_node_id"": ""0.0-2.0-0.0-9.0"", ""time_elapsed"": 89423, ""imgName"": ""/static/images/modifae_new_linspace/aggressive/164278_-0.3409090909090909.png"", ""questions"": ""[{\""prompt\"":\""<p>How <b>aggressive</b> does this person look to <b>most people</b>? Rate from 1-9</p>\"",\""labels\"":[\""1 <br/><b>Not aggressive at all</b>\"",\""2\"",\""3\"",\""4\"",\""5\"",\""6\"",\""7\"",\""8\"",\""9  <br/><b>Extremely aggressive</b>\""],\""required\"":true}]"", ""task_unique_trial"": 100, ""task_name"": ""aggressive-modifae-single"", ""trial_index"": 11, ""isRepeat"": 0}"
A1P0M5D9IGZIDK:3RANCT1ZVHOLG4CVK2MK6KBVQFXUBH,12,1548237918696,"{""rt"": null, ""trial_type"": ""html-keyboard-response"", ""task_unique_trial"": 100, ""stimulus"": ""<p>Good job!</p>"", ""task_version"": 1, ""internal_node_id"": ""0.0-2.0-1.0"", ""task_payment"": 1, ""time_elapsed"": 91427, ""debug_mode"": ""live"", ""key_press"": null, ""task_name"": ""aggressive-modifae-single"", ""trial_index"": 12}"
A1P0M5D9IGZIDK:3RANCT1ZVHOLG4CVK2MK6KBVQFXUBH,13,1548237923407,"{""rt"": 4706, ""trial_type"": ""face-likert-amanda"", ""debug_mode"": ""live"", ""task_type"": ""face trials"", ""responses"": ""{\""Q0\"":1}"", ""task_payment"": 1, ""task_version"": 1, ""internal_node_id"": ""0.0-3.0-0.0-0.0"", ""time_elapsed"": 96138, ""imgName"": ""/static/images/modifae_new_linspace/aggressive/098030_0.41666666666666674.png"", ""questions"": ""[{\""prompt\"":\""<p>How <b>aggressive</b> does this person look to <b>most people</b>? Rate from 1-9</p>\"",\""labels\"":[\""1 <br/><b>Not aggressive at all</b>\"",\""2\"",\""3\"",\""4\"",\""5\"",\""6\"",\""7\"",\""8\"",\""9  <br/><b>Extremely aggressive</b>\""],\""required\"":true}]"", ""task_unique_trial"": 100, ""task_name"": ""aggressive-modifae-single"", ""trial_index"": 13, ""isRepeat"": 0}"
A1P0M5D9IGZIDK:3RANCT1ZVHOLG4CVK2MK6KBVQFXUBH,14,1548237926381,"{""rt"": 2970, ""trial_type"": ""face-likert-amanda"", ""debug_mode"": ""live"", ""task_type"": ""face trials"", ""responses"": ""{\""Q0\"":0}"", ""task_payment"": 1, ""task_version"": 1, ""internal_node_id"": ""0.0-3.0-0.0-1.0"", ""time_elapsed"": 99112, ""imgName"": ""/static/images/modifae_new_linspace/aggressive/154764_-0.09848484848484851.png"", ""questions"": ""[{\""prompt\"":\""<p>How <b>aggressive</b> does this person look to <b>most people</b>? Rate from 1-9</p>\"",\""labels\"":[\""1 <br/><b>Not aggressive at all</b>\"",\""2\"",\""3\"",\""4\"",\""5\"",\""6\"",\""7\"",\""8\"",\""9  <br/><b>Extremely aggressive</b>\""],\""required\"":true}]"", ""task_unique_trial"": 100, ""task_name"": ""aggressive-modifae-single"", ""trial_index"": 14, ""isRepeat"": 0}"
A1P0M5D9IGZIDK:3RANCT1ZVHOLG4CVK2MK6KBVQFXUBH,15,1548237929747,"{""rt"": 3361, ""trial_type"": ""face-likert-amanda"", ""debug_mode"": ""live"", ""task_type"": ""face trials"", ""responses"": ""{\""Q0\"":3}"", ""task_payment"": 1, ""task_version"": 1, ""internal_node_id"": ""0.0-3.0-0.0-2.0"", ""time_elapsed"": 102478, ""imgName"": ""/static/images/modifae_new_linspace/aggressive/125135_-0.7348484848484849.png"", ""questions"": ""[{\""prompt\"":\""<p>How <b>aggressive</b> does this person look to <b>most people</b>? Rate from 1-9</p>\"",\""labels\"":[\""1 <br/><b>Not aggressive at all</b>\"",\""2\"",\""3\"",\""4\"",\""5\"",\""6\"",\""7\"",\""8\"",\""9  <br/><b>Extremely aggressive</b>\""],\""required\"":true}]"", ""task_unique_trial"": 100, ""task_name"": ""aggressive-modifae-single"", ""trial_index"": 15, ""isRepeat"": 0}"
A1P0M5D9IGZIDK:3RANCT1ZVHOLG4CVK2MK6KBVQFXUBH,16,1548237932907,"{""rt"": 3158, ""trial_type"": ""face-likert-amanda"", ""debug_mode"": ""live"", ""task_type"": ""face trials"", ""responses"": ""{\""Q0\"":2}"", ""task_payment"": 1, ""task_version"": 1, ""internal_node_id"": ""0.0-3.0-0.0-3.0"", ""time_elapsed"": 105637, ""imgName"": ""/static/images/modifae_new_linspace/aggressive/061283_-0.49242424242424243.png"", ""questions"": ""[{\""prompt\"":\""<p>How <b>aggressive</b> does this person look to <b>most people</b>? Rate from 1-9</p>\"",\""labels\"":[\""1 <br/><b>Not aggressive at all</b>\"",\""2\"",\""3\"",\""4\"",\""5\"",\""6\"",\""7\"",\""8\"",\""9  <br/><b>Extremely aggressive</b>\""],\""required\"":true}]"", ""task_unique_trial"": 100, ""task_name"": ""aggressive-modifae-single"", ""trial_index"": 16, ""isRepeat"": 0}"
A1P0M5D9IGZIDK:3RANCT1ZVHOLG4CVK2MK6KBVQFXUBH,17,1548237937393,"{""rt"": 4483, ""trial_type"": ""face-likert-amanda"", ""debug_mode"": ""live"", ""task_type"": ""face trials"", ""responses"": ""{\""Q0\"":1}"", ""task_payment"": 1, ""task_version"": 1, ""internal_node_id"": ""0.0-3.0-0.0-4.0"", ""time_elapsed"": 110124, ""imgName"": ""/static/images/modifae_new_linspace/aggressive/164329_0.5075757575757576.png"", ""questions"": ""[{\""prompt\"":\""<p>How <b>aggressive</b> does this person look to <b>most people</b>? Rate from 1-9</p>\"",\""labels\"":[\""1 <br/><b>Not aggressive at all</b>\"",\""2\"",\""3\"",\""4\"",\""5\"",\""6\"",\""7\"",\""8\"",\""9  <br/><b>Extremely aggressive</b>\""],\""required\"":true}]"", ""task_unique_trial"": 100, ""task_name"": ""aggressive-modifae-single"", ""trial_index"": 17, ""isRepeat"": 0}"
A1P0M5D9IGZIDK:3RANCT1ZVHOLG4CVK2MK6KBVQFXUBH,18,1548237940534,"{""rt"": 3136, ""trial_type"": ""face-likert-amanda"", ""debug_mode"": ""live"", ""task_type"": ""face trials"", ""responses"": ""{\""Q0\"":0}"", ""task_payment"": 1, ""task_version"": 1, ""internal_node_id"": ""0.0-3.0-0.0-5.0"", ""time_elapsed"": 113265, ""imgName"": ""/static/images/modifae_new_linspace/aggressive/006580_-0.1742424242424242.png"", ""questions"": ""[{\""prompt\"":\""<p>How <b>aggressive</b> does this person look to <b>most people</b>? Rate from 1-9</p>\"",\""labels\"":[\""1 <br/><b>Not aggressive at all</b>\"",\""2\"",\""3\"",\""4\"",\""5\"",\""6\"",\""7\"",\""8\"",\""9  <br/><b>Extremely aggressive</b>\""],\""required\"":true}]"", ""task_unique_trial"": 100, ""task_name"": ""aggressive-modifae-single"", ""trial_index"": 18, ""isRepeat"": 0}"
A1P0M5D9IGZIDK:3RANCT1ZVHOLG4CVK2MK6KBVQFXUBH,19,1548237943700,"{""rt"": 3163, ""trial_type"": ""face-likert-amanda"", ""debug_mode"": ""live"", ""task_type"": ""face trials"", ""responses"": ""{\""Q0\"":1}"", ""task_payment"": 1, ""task_version"": 1, ""internal_node_id"": ""0.0-3.0-0.0-6.0"", ""time_elapsed"": 116431, ""imgName"": ""/static/images/modifae_new_linspace/aggressive/038177_-0.7196969696969697.png"", ""questions"": ""[{\""prompt\"":\""<p>How <b>aggressive</b> does this person look to <b>most people</b>? Rate from 1-9</p>\"",\""labels\"":[\""1 <br/><b>Not aggressive at all</b>\"",\""2\"",\""3\"",\""4\"",\""5\"",\""6\"",\""7\"",\""8\"",\""9  <br/><b>Extremely aggressive</b>\""],\""required\"":true}]"", ""task_unique_trial"": 100, ""task_name"": ""aggressive-modifae-single"", ""trial_index"": 19, ""isRepeat"": 0}"
A1P0M5D9IGZIDK:3RANCT1ZVHOLG4CVK2MK6KBVQFXUBH,20,1548237946602,"{""rt"": 2899, ""trial_type"": ""face-likert-amanda"", ""debug_mode"": ""live"", ""task_type"": ""face trials"", ""responses"": ""{\""Q0\"":0}"", ""task_payment"": 1, ""task_version"": 1, ""internal_node_id"": ""0.0-3.0-0.0-7.0"", ""time_elapsed"": 119333, ""imgName"": ""/static/images/modifae_new_linspace/aggressive/010202_-0.32575757575757575.png"", ""questions"": ""[{\""prompt\"":\""<p>How <b>aggressive</b> does this person look to <b>most people</b>? Rate from 1-9</p>\"",\""labels\"":[\""1 <br/><b>Not aggressive at all</b>\"",\""2\"",\""3\"",\""4\"",\""5\"",\""6\"",\""7\"",\""8\"",\""9  <br/><b>Extremely aggressive</b>\""],\""required\"":true}]"", ""task_unique_trial"": 100, ""task_name"": ""aggressive-modifae-single"", ""trial_index"": 20, ""isRepeat"": 0}"
A1P0M5D9IGZIDK:3RANCT1ZVHOLG4CVK2MK6KBVQFXUBH,21,1548237949744,"{""rt"": 3138, ""trial_type"": ""face-likert-amanda"", ""debug_mode"": ""live"", ""task_type"": ""face trials"", ""responses"": ""{\""Q0\"":0}"", ""task_payment"": 1, ""task_version"": 1, ""internal_node_id"": ""0.0-3.0-0.0-8.0"", ""time_elapsed"": 122474, ""imgName"": ""/static/images/modifae_new_linspace/aggressive/036571_0.09848484848484851.png"", ""questions"": ""[{\""prompt\"":\""<p>How <b>aggressive</b> does this person look to <b>most people</b>? Rate from 1-9</p>\"",\""labels\"":[\""1 <br/><b>Not aggressive at all</b>\"",\""2\"",\""3\"",\""4\"",\""5\"",\""6\"",\""7\"",\""8\"",\""9  <br/><b>Extremely aggressive</b>\""],\""required\"":true}]"", ""task_unique_trial"": 100, ""task_name"": ""aggressive-modifae-single"", ""trial_index"": 21, ""isRepeat"": 0}"
A1P0M5D9IGZIDK:3RANCT1ZVHOLG4CVK2MK6KBVQFXUBH,22,1548237953339,"{""rt"": 3592, ""trial_type"": ""face-likert-amanda"", ""debug_mode"": ""live"", ""task_type"": ""face trials"", ""responses"": ""{\""Q0\"":3}"", ""task_payment"": 1, ""task_version"": 1, ""internal_node_id"": ""0.0-3.0-0.0-9.0"", ""time_elapsed"": 126070, ""imgName"": ""/static/images/modifae_new_linspace/aggressive/110088_-0.11363636363636365.png"", ""questions"": ""[{\""prompt\"":\""<p>How <b>aggressive</b> does this person look to <b>most people</b>? Rate from 1-9</p>\"",\""labels\"":[\""1 <br/><b>Not aggressive at all</b>\"",\""2\"",\""3\"",\""4\"",\""5\"",\""6\"",\""7\"",\""8\"",\""9  <br/><b>Extremely aggressive</b>\""],\""required\"":true}]"", ""task_unique_trial"": 100, ""task_name"": ""aggressive-modifae-single"", ""trial_index"": 22, ""isRepeat"": 0}"
A1P0M5D9IGZIDK:3RANCT1ZVHOLG4CVK2MK6KBVQFXUBH,23,1548237954342,"{""rt"": null, ""trial_type"": ""html-keyboard-response"", ""task_unique_trial"": 100, ""stimulus"": ""<p>Good job!</p>"", ""task_version"": 1, ""internal_node_id"": ""0.0-3.0-1.0"", ""task_payment"": 1, ""time_elapsed"": 127073, ""debug_mode"": ""live"", ""key_press"": null, ""task_name"": ""aggressive-modifae-single"", ""trial_index"": 23}"
A1P0M5D9IGZIDK:3RANCT1ZVHOLG4CVK2MK6KBVQFXUBH,24,1548237956765,"{""rt"": 2422, ""trial_type"": ""face-likert-amanda"", ""debug_mode"": ""live"", ""task_type"": ""face trials"", ""responses"": ""{\""Q0\"":1}"", ""task_payment"": 1, ""task_version"": 1, ""internal_node_id"": ""0.0-4.0-0.0-0.0"", ""time_elapsed"": 129496, ""imgName"": ""/static/images/modifae_new_linspace/aggressive/038177_-0.7196969696969697.png"", ""questions"": ""[{\""prompt\"":\""<p>How <b>aggressive</b> does this person look to <b>most people</b>? Rate from 1-9</p>\"",\""labels\"":[\""1 <br/><b>Not aggressive at all</b>\"",\""2\"",\""3\"",\""4\"",\""5\"",\""6\"",\""7\"",\""8\"",\""9  <br/><b>Extremely aggressive</b>\""],\""required\"":true}]"", ""task_unique_trial"": 100, ""task_name"": ""aggressive-modifae-single"", ""trial_index"": 24, ""isRepeat"": 0}"
A1P0M5D9IGZIDK:3RANCT1ZVHOLG4CVK2MK6KBVQFXUBH,25,1548237960646,"{""rt"": 3878, ""trial_type"": ""face-likert-amanda"", ""debug_mode"": ""live"", ""task_type"": ""face trials"", ""responses"": ""{\""Q0\"":4}"", ""task_payment"": 1, ""task_version"": 1, ""internal_node_id"": ""0.0-4.0-0.0-1.0"", ""time_elapsed"": 133377, ""imgName"": ""/static/images/modifae_new_linspace/aggressive/167679_0.3712121212121213.png"", ""questions"": ""[{\""prompt\"":\""<p>How <b>aggressive</b> does this person look to <b>most people</b>? Rate from 1-9</p>\"",\""labels\"":[\""1 <br/><b>Not aggressive at all</b>\"",\""2\"",\""3\"",\""4\"",\""5\"",\""6\"",\""7\"",\""8\"",\""9  <br/><b>Extremely aggressive</b>\""],\""required\"":true}]"", ""task_unique_trial"": 100, ""task_name"": ""aggressive-modifae-single"", ""trial_index"": 25, ""isRepeat"": 0}"
A1P0M5D9IGZIDK:3RANCT1ZVHOLG4CVK2MK6KBVQFXUBH,26,1548237963579,"{""rt"": 2931, ""trial_type"": ""face-likert-amanda"", ""debug_mode"": ""live"", ""task_type"": ""face trials"", ""responses"": ""{\""Q0\"":0}"", ""task_payment"": 1, ""task_version"": 1, ""internal_node_id"": ""0.0-4.0-0.0-2.0"", ""time_elapsed"": 136310, ""imgName"": ""/static/images/modifae_new_linspace/aggressive/154698_-0.20454545454545459.png"", ""questions"": ""[{\""prompt\"":\""<p>How <b>aggressive</b> does this person look to <b>most people</b>? Rate from 1-9</p>\"",\""labels\"":[\""1 <br/><b>Not aggressive at all</b>\"",\""2\"",\""3\"",\""4\"",\""5\"",\""6\"",\""7\"",\""8\"",\""9  <br/><b>Extremely aggressive</b>\""],\""required\"":true}]"", ""task_unique_trial"": 100, ""task_name"": ""aggressive-modifae-single"", ""trial_index"": 26, ""isRepeat"": 0}"
A1P0M5D9IGZIDK:3RANCT1ZVHOLG4CVK2MK6KBVQFXUBH,27,1548237966975,"{""rt"": 3393, ""trial_type"": ""face-likert-amanda"", ""debug_mode"": ""live"", ""task_type"": ""face trials"", ""responses"": ""{\""Q0\"":5}"", ""task_payment"": 1, ""task_version"": 1, ""internal_node_id"": ""0.0-4.0-0.0-3.0"", ""time_elapsed"": 139706, ""imgName"": ""/static/images/modifae_new_linspace/aggressive/050886_-0.5681818181818181.png"", ""questions"": ""[{\""prompt\"":\""<p>How <b>aggressive</b> does this person look to <b>most people</b>? Rate from 1-9</p>\"",\""labels\"":[\""1 <br/><b>Not aggressive at all</b>\"",\""2\"",\""3\"",\""4\"",\""5\"",\""6\"",\""7\"",\""8\"",\""9  <br/><b>Extremely aggressive</b>\""],\""required\"":true}]"", ""task_unique_trial"": 100, ""task_name"": ""aggressive-modifae-single"", ""trial_index"": 27, ""isRepeat"": 0}"
A1P0M5D9IGZIDK:3RANCT1ZVHOLG4CVK2MK6KBVQFXUBH,28,1548237970589,"{""rt"": 3610, ""trial_type"": ""face-likert-amanda"", ""debug_mode"": ""live"", ""task_type"": ""face trials"", ""responses"": ""{\""Q0\"":0}"", ""task_payment"": 1, ""task_version"": 1, ""internal_node_id"": ""0.0-4.0-0.0-4.0"", ""time_elapsed"": 143320, ""imgName"": ""/static/images/modifae_new_linspace/aggressive/040610_-0.553030303030303.png"", ""questions"": ""[{\""prompt\"":\""<p>How <b>aggressive</b> does this person look to <b>most people</b>? Rate from 1-9</p>\"",\""labels\"":[\""1 <br/><b>Not aggressive at all</b>\"",\""2\"",\""3\"",\""4\"",\""5\"",\""6\"",\""7\"",\""8\"",\""9  <br/><b>Extremely aggressive</b>\""],\""required\"":true}]"", ""task_unique_trial"": 100, ""task_name"": ""aggressive-modifae-single"", ""trial_index"": 28, ""isRepeat"": 0}"
A1P0M5D9IGZIDK:3RANCT1ZVHOLG4CVK2MK6KBVQFXUBH,29,1548237973721,"{""rt"": 3127, ""trial_type"": ""face-likert-amanda"", ""debug_mode"": ""live"", ""task_type"": ""face trials"", ""responses"": ""{\""Q0\"":0}"", ""task_payment"": 1, ""task_version"": 1, ""internal_node_id"": ""0.0-4.0-0.0-5.0"", ""time_elapsed"": 146452, ""imgName"": ""/static/images/modifae_new_linspace/aggressive/026104_-0.4772727272727273.png"", ""questions"": ""[{\""prompt\"":\""<p>How <b>aggressive</b> does this person look to <b>most people</b>? Rate from 1-9</p>\"",\""labels\"":[\""1 <br/><b>Not aggressive at all</b>\"",\""2\"",\""3\"",\""4\"",\""5\"",\""6\"",\""7\"",\""8\"",\""9  <br/><b>Extremely aggressive</b>\""],\""required\"":true}]"", ""task_unique_trial"": 100, ""task_name"": ""aggressive-modifae-single"", ""trial_index"": 29, ""isRepeat"": 0}"
A1P0M5D9IGZIDK:3RANCT1ZVHOLG4CVK2MK6KBVQFXUBH,30,1548237977277,"{""rt"": 3552, ""trial_type"": ""face-likert-amanda"", ""debug_mode"": ""live"", ""task_type"": ""face trials"", ""responses"": ""{\""Q0\"":2}"", ""task_payment"": 1, ""task_version"": 1, ""internal_node_id"": ""0.0-4.0-0.0-6.0"", ""time_elapsed"": 150008, ""imgName"": ""/static/images/modifae_new_linspace/aggressive/099376_0.5378787878787878.png"", ""questions"": ""[{\""prompt\"":\""<p>How <b>aggressive</b> does this person look to <b>most people</b>? Rate from 1-9</p>\"",\""labels\"":[\""1 <br/><b>Not aggressive at all</b>\"",\""2\"",\""3\"",\""4\"",\""5\"",\""6\"",\""7\"",\""8\"",\""9  <br/><b>Extremely aggressive</b>\""],\""required\"":true}]"", ""task_unique_trial"": 100, ""task_name"": ""aggressive-modifae-single"", ""trial_index"": 30, ""isRepeat"": 0}"
A1P0M5D9IGZIDK:3RANCT1ZVHOLG4CVK2MK6KBVQFXUBH,31,1548237980392,"{""rt"": 3112, ""trial_type"": ""face-likert-amanda"", ""debug_mode"": ""live"", ""task_type"": ""face trials"", ""responses"": ""{\""Q0\"":6}"", ""task_payment"": 1, ""task_version"": 1, ""internal_node_id"": ""0.0-4.0-0.0-7.0"", ""time_elapsed"": 153123, ""imgName"": ""/static/images/modifae_new_linspace/aggressive/119374_0.38636363636363646.png"", ""questions"": ""[{\""prompt\"":\""<p>How <b>aggressive</b> does this person look to <b>most people</b>? Rate from 1-9</p>\"",\""labels\"":[\""1 <br/><b>Not aggressive at all</b>\"",\""2\"",\""3\"",\""4\"",\""5\"",\""6\"",\""7\"",\""8\"",\""9  <br/><b>Extremely aggressive</b>\""],\""required\"":true}]"", ""task_unique_trial"": 100, ""task_name"": ""aggressive-modifae-single"", ""trial_index"": 31, ""isRepeat"": 0}"
A1P0M5D9IGZIDK:3RANCT1ZVHOLG4CVK2MK6KBVQFXUBH,32,1548237983151,"{""rt"": 2756, ""trial_type"": ""face-likert-amanda"", ""debug_mode"": ""live"", ""task_type"": ""face trials"", ""responses"": ""{\""Q0\"":0}"", ""task_payment"": 1, ""task_version"": 1, ""internal_node_id"": ""0.0-4.0-0.0-8.0"", ""time_elapsed"": 155881, ""imgName"": ""/static/images/modifae_new_linspace/aggressive/080609_0.5227272727272727.png"", ""questions"": ""[{\""prompt\"":\""<p>How <b>aggressive</b> does this person look to <b>most people</b>? Rate from 1-9</p>\"",\""labels\"":[\""1 <br/><b>Not aggressive at all</b>\"",\""2\"",\""3\"",\""4\"",\""5\"",\""6\"",\""7\"",\""8\"",\""9  <br/><b>Extremely aggressive</b>\""],\""required\"":true}]"", ""task_unique_trial"": 100, ""task_name"": ""aggressive-modifae-single"", ""trial_index"": 32, ""isRepeat"": 0}"
A1P0M5D9IGZIDK:3RANCT1ZVHOLG4CVK2MK6KBVQFXUBH,33,1548237987385,"{""rt"": 4231, ""trial_type"": ""face-likert-amanda"", ""debug_mode"": ""live"", ""task_type"": ""face trials"", ""responses"": ""{\""Q0\"":1}"", ""task_payment"": 1, ""task_version"": 1, ""internal_node_id"": ""0.0-4.0-0.0-9.0"", ""time_elapsed"": 160116, ""imgName"": ""/static/images/modifae_new_linspace/aggressive/163106_0.20454545454545459.png"", ""questions"": ""[{\""prompt\"":\""<p>How <b>aggressive</b> does this person look to <b>most people</b>? Rate from 1-9</p>\"",\""labels\"":[\""1 <br/><b>Not aggressive at all</b>\"",\""2\"",\""3\"",\""4\"",\""5\"",\""6\"",\""7\"",\""8\"",\""9  <br/><b>Extremely aggressive</b>\""],\""required\"":true}]"", ""task_unique_trial"": 100, ""task_name"": ""aggressive-modifae-single"", ""trial_index"": 33, ""isRepeat"": 0}"
A1P0M5D9IGZIDK:3RANCT1ZVHOLG4CVK2MK6KBVQFXUBH,34,1548237989388,"{""rt"": null, ""trial_type"": ""html-keyboard-response"", ""task_unique_trial"": 100, ""stimulus"": ""<p>Good job!</p>"", ""task_version"": 1, ""internal_node_id"": ""0.0-4.0-1.0"", ""task_payment"": 1, ""time_elapsed"": 162119, ""debug_mode"": ""live"", ""key_press"": null, ""task_name"": ""aggressive-modifae-single"", ""trial_index"": 34}"
A1P0M5D9IGZIDK:3RANCT1ZVHOLG4CVK2MK6KBVQFXUBH,35,1548237996385,"{""rt"": 6995, ""trial_type"": ""face-likert-amanda"", ""debug_mode"": ""live"", ""task_type"": ""face trials"", ""responses"": ""{\""Q0\"":5}"", ""task_payment"": 1, ""task_version"": 1, ""internal_node_id"": ""0.0-5.0-0.0-0.0"", ""time_elapsed"": 169116, ""imgName"": ""/static/images/modifae_new_linspace/aggressive/119374_0.38636363636363646.png"", ""questions"": ""[{\""prompt\"":\""<p>How <b>aggressive</b> does this person look to <b>most people</b>? Rate from 1-9</p>\"",\""labels\"":[\""1 <br/><b>Not aggressive at all</b>\"",\""2\"",\""3\"",\""4\"",\""5\"",\""6\"",\""7\"",\""8\"",\""9  <br/><b>Extremely aggressive</b>\""],\""required\"":true}]"", ""task_unique_trial"": 100, ""task_name"": ""aggressive-modifae-single"", ""trial_index"": 35, ""isRepeat"": 0}"
A1P0M5D9IGZIDK:3RANCT1ZVHOLG4CVK2MK6KBVQFXUBH,36,1548238000218,"{""rt"": 3829, ""trial_type"": ""face-likert-amanda"", ""debug_mode"": ""live"", ""task_type"": ""face trials"", ""responses"": ""{\""Q0\"":1}"", ""task_payment"": 1, ""task_version"": 1, ""internal_node_id"": ""0.0-5.0-0.0-1.0"", ""time_elapsed"": 172949, ""imgName"": ""/static/images/modifae_new_linspace/aggressive/031175_-0.5833333333333333.png"", ""questions"": ""[{\""prompt\"":\""<p>How <b>aggressive</b> does this person look to <b>most people</b>? Rate from 1-9</p>\"",\""labels\"":[\""1 <br/><b>Not aggressive at all</b>\"",\""2\"",\""3\"",\""4\"",\""5\"",\""6\"",\""7\"",\""8\"",\""9  <br/><b>Extremely aggressive</b>\""],\""required\"":true}]"", ""task_unique_trial"": 100, ""task_name"": ""aggressive-modifae-single"", ""trial_index"": 36, ""isRepeat"": 0}"
A1P0M5D9IGZIDK:3RANCT1ZVHOLG4CVK2MK6KBVQFXUBH,37,1548238003278,"{""rt"": 3057, ""trial_type"": ""face-likert-amanda"", ""debug_mode"": ""live"", ""task_type"": ""face trials"", ""responses"": ""{\""Q0\"":3}"", ""task_payment"": 1, ""task_version"": 1, ""internal_node_id"": ""0.0-5.0-0.0-2.0"", ""time_elapsed"": 176009, ""imgName"": ""/static/images/modifae_new_linspace/aggressive/160014_-0.18939393939393934.png"", ""questions"": ""[{\""prompt\"":\""<p>How <b>aggressive</b> does this person look to <b>most people</b>? Rate from 1-9</p>\"",\""labels\"":[\""1 <br/><b>Not aggressive at all</b>\"",\""2\"",\""3\"",\""4\"",\""5\"",\""6\"",\""7\"",\""8\"",\""9  <br/><b>Extremely aggressive</b>\""],\""required\"":true}]"", ""task_unique_trial"": 100, ""task_name"": ""aggressive-modifae-single"", ""trial_index"": 37, ""isRepeat"": 0}"
A1P0M5D9IGZIDK:3RANCT1ZVHOLG4CVK2MK6KBVQFXUBH,38,1548238006294,"{""rt"": 3013, ""trial_type"": ""face-likert-amanda"", ""debug_mode"": ""live"", ""task_type"": ""face trials"", ""responses"": ""{\""Q0\"":0}"", ""task_payment"": 1, ""task_version"": 1, ""internal_node_id"": ""0.0-5.0-0.0-3.0"", ""time_elapsed"": 179025, ""imgName"": ""/static/images/modifae_new_linspace/aggressive/102475_0.1742424242424243.png"", ""questions"": ""[{\""prompt\"":\""<p>How <b>aggressive</b> does this person look to <b>most people</b>? Rate from 1-9</p>\"",\""labels\"":[\""1 <br/><b>Not aggressive at all</b>\"",\""2\"",\""3\"",\""4\"",\""5\"",\""6\"",\""7\"",\""8\"",\""9  <br/><b>Extremely aggressive</b>\""],\""required\"":true}]"", ""task_unique_trial"": 100, ""task_name"": ""aggressive-modifae-single"", ""trial_index"": 38, ""isRepeat"": 0}"
A1P0M5D9IGZIDK:3RANCT1ZVHOLG4CVK2MK6KBVQFXUBH,39,1548238009319,"{""rt"": 3022, ""trial_type"": ""face-likert-amanda"", ""debug_mode"": ""live"", ""task_type"": ""face trials"", ""responses"": ""{\""Q0\"":1}"", ""task_payment"": 1, ""task_version"": 1, ""internal_node_id"": ""0.0-5.0-0.0-4.0"", ""time_elapsed"": 182050, ""imgName"": ""/static/images/modifae_new_linspace/aggressive/031230_0.2954545454545454.png"", ""questions"": ""[{\""prompt\"":\""<p>How <b>aggressive</b> does this person look to <b>most people</b>? Rate from 1-9</p>\"",\""labels\"":[\""1 <br/><b>Not aggressive at all</b>\"",\""2\"",\""3\"",\""4\"",\""5\"",\""6\"",\""7\"",\""8\"",\""9  <br/><b>Extremely aggressive</b>\""],\""required\"":true}]"", ""task_unique_trial"": 100, ""task_name"": ""aggressive-modifae-single"", ""trial_index"": 39, ""isRepeat"": 0}"
A1P0M5D9IGZIDK:3RANCT1ZVHOLG4CVK2MK6KBVQFXUBH,40,1548238012347,"{""rt"": 3025, ""trial_type"": ""face-likert-amanda"", ""debug_mode"": ""live"", ""task_type"": ""face trials"", ""responses"": ""{\""Q0\"":0}"", ""task_payment"": 1, ""task_version"": 1, ""internal_node_id"": ""0.0-5.0-0.0-5.0"", ""time_elapsed"": 185078, ""imgName"": ""/static/images/modifae_new_linspace/aggressive/113917_-0.25.png"", ""questions"": ""[{\""prompt\"":\""<p>How <b>aggressive</b> does this person look to <b>most people</b>? Rate from 1-9</p>\"",\""labels\"":[\""1 <br/><b>Not aggressive at all</b>\"",\""2\"",\""3\"",\""4\"",\""5\"",\""6\"",\""7\"",\""8\"",\""9  <br/><b>Extremely aggressive</b>\""],\""required\"":true}]"", ""task_unique_trial"": 100, ""task_name"": ""aggressive-modifae-single"", ""trial_index"": 40, ""isRepeat"": 0}"
A1P0M5D9IGZIDK:3RANCT1ZVHOLG4CVK2MK6KBVQFXUBH,41,1548238015991,"{""rt"": 3642, ""trial_type"": ""face-likert-amanda"", ""debug_mode"": ""live"", ""task_type"": ""face trials"", ""responses"": ""{\""Q0\"":3}"", ""task_payment"": 1, ""task_version"": 1, ""internal_node_id"": ""0.0-5.0-0.0-6.0"", ""time_elapsed"": 188722, ""imgName"": ""/static/images/modifae_new_linspace/aggressive/059180_-0.15909090909090906.png"", ""questions"": ""[{\""prompt\"":\""<p>How <b>aggressive</b> does this person look to <b>most people</b>? Rate from 1-9</p>\"",\""labels\"":[\""1 <br/><b>Not aggressive at all</b>\"",\""2\"",\""3\"",\""4\"",\""5\"",\""6\"",\""7\"",\""8\"",\""9  <br/><b>Extremely aggressive</b>\""],\""required\"":true}]"", ""task_unique_trial"": 100, ""task_name"": ""aggressive-modifae-single"", ""trial_index"": 41, ""isRepeat"": 0}"
A1P0M5D9IGZIDK:3RANCT1ZVHOLG4CVK2MK6KBVQFXUBH,42,1548238019077,"{""rt"": 3083, ""trial_type"": ""face-likert-amanda"", ""debug_mode"": ""live"", ""task_type"": ""face trials"", ""responses"": ""{\""Q0\"":4}"", ""task_payment"": 1, ""task_version"": 1, ""internal_node_id"": ""0.0-5.0-0.0-7.0"", ""time_elapsed"": 191808, ""imgName"": ""/static/images/modifae_new_linspace/aggressive/167548_0.022727272727272707.png"", ""questions"": ""[{\""prompt\"":\""<p>How <b>aggressive</b> does this person look to <b>most people</b>? Rate from 1-9</p>\"",\""labels\"":[\""1 <br/><b>Not aggressive at all</b>\"",\""2\"",\""3\"",\""4\"",\""5\"",\""6\"",\""7\"",\""8\"",\""9  <br/><b>Extremely aggressive</b>\""],\""required\"":true}]"", ""task_unique_trial"": 100, ""task_name"": ""aggressive-modifae-single"", ""trial_index"": 42, ""isRepeat"": 0}"
A1P0M5D9IGZIDK:3RANCT1ZVHOLG4CVK2MK6KBVQFXUBH,43,1548238022686,"{""rt"": 3606, ""trial_type"": ""face-likert-amanda"", ""debug_mode"": ""live"", ""task_type"": ""face trials"", ""responses"": ""{\""Q0\"":0}"", ""task_payment"": 1, ""task_version"": 1, ""internal_node_id"": ""0.0-5.0-0.0-8.0"", ""time_elapsed"": 195417, ""imgName"": ""/static/images/modifae_new_linspace/aggressive/148397_-0.037878787878787845.png"", ""questions"": ""[{\""prompt\"":\""<p>How <b>aggressive</b> does this person look to <b>most people</b>? Rate from 1-9</p>\"",\""labels\"":[\""1 <br/><b>Not aggressive at all</b>\"",\""2\"",\""3\"",\""4\"",\""5\"",\""6\"",\""7\"",\""8\"",\""9  <br/><b>Extremely aggressive</b>\""],\""required\"":true}]"", ""task_unique_trial"": 100, ""task_name"": ""aggressive-modifae-single"", ""trial_index"": 43, ""isRepeat"": 0}"
A1P0M5D9IGZIDK:3RANCT1ZVHOLG4CVK2MK6KBVQFXUBH,44,1548238025912,"{""rt"": 3223, ""trial_type"": ""face-likert-amanda"", ""debug_mode"": ""live"", ""task_type"": ""face trials"", ""responses"": ""{\""Q0\"":0}"", ""task_payment"": 1, ""task_version"": 1, ""internal_node_id"": ""0.0-5.0-0.0-9.0"", ""time_elapsed"": 198643, ""imgName"": ""/static/images/modifae_new_linspace/aggressive/018758_-0.23484848484848486.png"", ""questions"": ""[{\""prompt\"":\""<p>How <b>aggressive</b> does this person look to <b>most people</b>? Rate from 1-9</p>\"",\""labels\"":[\""1 <br/><b>Not aggressive at all</b>\"",\""2\"",\""3\"",\""4\"",\""5\"",\""6\"",\""7\"",\""8\"",\""9  <br/><b>Extremely aggressive</b>\""],\""required\"":true}]"", ""task_unique_trial"": 100, ""task_name"": ""aggressive-modifae-single"", ""trial_index"": 44, ""isRepeat"": 0}"
A1P0M5D9IGZIDK:3RANCT1ZVHOLG4CVK2MK6KBVQFXUBH,45,1548238026915,"{""rt"": null, ""trial_type"": ""html-keyboard-response"", ""task_unique_trial"": 100, ""stimulus"": ""<p>Good job!</p>"", ""task_version"": 1, ""internal_node_id"": ""0.0-5.0-1.0"", ""task_payment"": 1, ""time_elapsed"": 199645, ""debug_mode"": ""live"", ""key_press"": null, ""task_name"": ""aggressive-modifae-single"", ""trial_index"": 45}"
A1P0M5D9IGZIDK:3RANCT1ZVHOLG4CVK2MK6KBVQFXUBH,46,1548238030073,"{""rt"": 3154, ""trial_type"": ""face-likert-amanda"", ""debug_mode"": ""live"", ""task_type"": ""face trials"", ""responses"": ""{\""Q0\"":0}"", ""task_payment"": 1, ""task_version"": 1, ""internal_node_id"": ""0.0-6.0-0.0-0.0"", ""time_elapsed"": 202802, ""imgName"": ""/static/images/modifae_new_linspace/aggressive/033672_-0.41666666666666663.png"", ""questions"": ""[{\""prompt\"":\""<p>How <b>aggressive</b> does this person look to <b>most people</b>? Rate from 1-9</p>\"",\""labels\"":[\""1 <br/><b>Not aggressive at all</b>\"",\""2\"",\""3\"",\""4\"",\""5\"",\""6\"",\""7\"",\""8\"",\""9  <br/><b>Extremely aggressive</b>\""],\""required\"":true}]"", ""task_unique_trial"": 100, ""task_name"": ""aggressive-modifae-single"", ""trial_index"": 46, ""isRepeat"": 0}"
A1P0M5D9IGZIDK:3RANCT1ZVHOLG4CVK2MK6KBVQFXUBH,47,1548238034478,"{""rt"": 4404, ""trial_type"": ""face-likert-amanda"", ""debug_mode"": ""live"", ""task_type"": ""face trials"", ""responses"": ""{\""Q0\"":4}"", ""task_payment"": 1, ""task_version"": 1, ""internal_node_id"": ""0.0-6.0-0.0-1.0"", ""time_elapsed"": 207209, ""imgName"": ""/static/images/modifae_new_linspace/aggressive/167679_0.3712121212121213.png"", ""questions"": ""[{\""prompt\"":\""<p>How <b>aggressive</b> does this person look to <b>most people</b>? Rate from 1-9</p>\"",\""labels\"":[\""1 <br/><b>Not aggressive at all</b>\"",\""2\"",\""3\"",\""4\"",\""5\"",\""6\"",\""7\"",\""8\"",\""9  <br/><b>Extremely aggressive</b>\""],\""required\"":true}]"", ""task_unique_trial"": 100, ""task_name"": ""aggressive-modifae-single"", ""trial_index"": 47, ""isRepeat"": 0}"
A1P0M5D9IGZIDK:3RANCT1ZVHOLG4CVK2MK6KBVQFXUBH,48,1548238038554,"{""rt"": 4073, ""trial_type"": ""face-likert-amanda"", ""debug_mode"": ""live"", ""task_type"": ""face trials"", ""responses"": ""{\""Q0\"":5}"", ""task_payment"": 1, ""task_version"": 1, ""internal_node_id"": ""0.0-6.0-0.0-2.0"", ""time_elapsed"": 211285, ""imgName"": ""/static/images/modifae_new_linspace/aggressive/109247_0.6136363636363638.png"", ""questions"": ""[{\""prompt\"":\""<p>How <b>aggressive</b> does this person look to <b>most people</b>? Rate from 1-9</p>\"",\""labels\"":[\""1 <br/><b>Not aggressive at all</b>\"",\""2\"",\""3\"",\""4\"",\""5\"",\""6\"",\""7\"",\""8\"",\""9  <br/><b>Extremely aggressive</b>\""],\""required\"":true}]"", ""task_unique_trial"": 100, ""task_name"": ""aggressive-modifae-single"", ""trial_index"": 48, ""isRepeat"": 0}"
A1P0M5D9IGZIDK:3RANCT1ZVHOLG4CVK2MK6KBVQFXUBH,49,1548238041635,"{""rt"": 3079, ""trial_type"": ""face-likert-amanda"", ""debug_mode"": ""live"", ""task_type"": ""face trials"", ""responses"": ""{\""Q0\"":0}"", ""task_payment"": 1, ""task_version"": 1, ""internal_node_id"": ""0.0-6.0-0.0-3.0"", ""time_elapsed"": 214366, ""imgName"": ""/static/images/modifae_new_linspace/aggressive/103635_0.25.png"", ""questions"": ""[{\""prompt\"":\""<p>How <b>aggressive</b> does this person look to <b>most people</b>? Rate from 1-9</p>\"",\""labels\"":[\""1 <br/><b>Not aggressive at all</b>\"",\""2\"",\""3\"",\""4\"",\""5\"",\""6\"",\""7\"",\""8\"",\""9  <br/><b>Extremely aggressive</b>\""],\""required\"":true}]"", ""task_unique_trial"": 100, ""task_name"": ""aggressive-modifae-single"", ""trial_index"": 49, ""isRepeat"": 0}"
A1P0M5D9IGZIDK:3RANCT1ZVHOLG4CVK2MK6KBVQFXUBH,50,1548238044927,"{""rt"": 3289, ""trial_type"": ""face-likert-amanda"", ""debug_mode"": ""live"", ""task_type"": ""face trials"", ""responses"": ""{\""Q0\"":2}"", ""task_payment"": 1, ""task_version"": 1, ""internal_node_id"": ""0.0-6.0-0.0-4.0"", ""time_elapsed"": 217658, ""imgName"": ""/static/images/modifae_new_linspace/aggressive/144397_0.26515151515151514.png"", ""questions"": ""[{\""prompt\"":\""<p>How <b>aggressive</b> does this person look to <b>most people</b>? Rate from 1-9</p>\"",\""labels\"":[\""1 <br/><b>Not aggressive at all</b>\"",\""2\"",\""3\"",\""4\"",\""5\"",\""6\"",\""7\"",\""8\"",\""9  <br/><b>Extremely aggressive</b>\""],\""required\"":true}]"", ""task_unique_trial"": 100, ""task_name"": ""aggressive-modifae-single"", ""trial_index"": 50, ""isRepeat"": 0}"
A1P0M5D9IGZIDK:3RANCT1ZVHOLG4CVK2MK6KBVQFXUBH,51,1548238048224,"{""rt"": 3294, ""trial_type"": ""face-likert-amanda"", ""debug_mode"": ""live"", ""task_type"": ""face trials"", ""responses"": ""{\""Q0\"":4}"", ""task_payment"": 1, ""task_version"": 1, ""internal_node_id"": ""0.0-6.0-0.0-5.0"", ""time_elapsed"": 220955, ""imgName"": ""/static/images/modifae_new_linspace/aggressive/012864_0.2803030303030303.png"", ""questions"": ""[{\""prompt\"":\""<p>How <b>aggressive</b> does this person look to <b>most people</b>? Rate from 1-9</p>\"",\""labels\"":[\""1 <br/><b>Not aggressive at all</b>\"",\""2\"",\""3\"",\""4\"",\""5\"",\""6\"",\""7\"",\""8\"",\""9  <br/><b>Extremely aggressive</b>\""],\""required\"":true}]"", ""task_unique_trial"": 100, ""task_name"": ""aggressive-modifae-single"", ""trial_index"": 51, ""isRepeat"": 0}"
A1P0M5D9IGZIDK:3RANCT1ZVHOLG4CVK2MK6KBVQFXUBH,52,1548238051479,"{""rt"": 3252, ""trial_type"": ""face-likert-amanda"", ""debug_mode"": ""live"", ""task_type"": ""face trials"", ""responses"": ""{\""Q0\"":2}"", ""task_payment"": 1, ""task_version"": 1, ""internal_node_id"": ""0.0-6.0-0.0-6.0"", ""time_elapsed"": 224210, ""imgName"": ""/static/images/modifae_new_linspace/aggressive/090482_0.553030303030303.png"", ""questions"": ""[{\""prompt\"":\""<p>How <b>aggressive</b> does this person look to <b>most people</b>? Rate from 1-9</p>\"",\""labels\"":[\""1 <br/><b>Not aggressive at all</b>\"",\""2\"",\""3\"",\""4\"",\""5\"",\""6\"",\""7\"",\""8\"",\""9  <br/><b>Extremely aggressive</b>\""],\""required\"":true}]"", ""task_unique_trial"": 100, ""task_name"": ""aggressive-modifae-single"", ""trial_index"": 52, ""isRepeat"": 0}"
A1P0M5D9IGZIDK:3RANCT1ZVHOLG4CVK2MK6KBVQFXUBH,53,1548238055418,"{""rt"": 3937, ""trial_type"": ""face-likert-amanda"", ""debug_mode"": ""live"", ""task_type"": ""face trials"", ""responses"": ""{\""Q0\"":1}"", ""task_payment"": 1, ""task_version"": 1, ""internal_node_id"": ""0.0-6.0-0.0-7.0"", ""time_elapsed"": 228149, ""imgName"": ""/static/images/modifae_new_linspace/aggressive/179630_0.037878787878787845.png"", ""questions"": ""[{\""prompt\"":\""<p>How <b>aggressive</b> does this person look to <b>most people</b>? Rate from 1-9</p>\"",\""labels\"":[\""1 <br/><b>Not aggressive at all</b>\"",\""2\"",\""3\"",\""4\"",\""5\"",\""6\"",\""7\"",\""8\"",\""9  <br/><b>Extremely aggressive</b>\""],\""required\"":true}]"", ""task_unique_trial"": 100, ""task_name"": ""aggressive-modifae-single"", ""trial_index"": 53, ""isRepeat"": 0}"
A1P0M5D9IGZIDK:3RANCT1ZVHOLG4CVK2MK6KBVQFXUBH,54,1548238058868,"{""rt"": 3447, ""trial_type"": ""face-likert-amanda"", ""debug_mode"": ""live"", ""task_type"": ""face trials"", ""responses"": ""{\""Q0\"":0}"", ""task_payment"": 1, ""task_version"": 1, ""internal_node_id"": ""0.0-6.0-0.0-8.0"", ""time_elapsed"": 231599, ""imgName"": ""/static/images/modifae_new_linspace/aggressive/112685_-0.007575757575757569.png"", ""questions"": ""[{\""prompt\"":\""<p>How <b>aggressive</b> does this person look to <b>most people</b>? Rate from 1-9</p>\"",\""labels\"":[\""1 <br/><b>Not aggressive at all</b>\"",\""2\"",\""3\"",\""4\"",\""5\"",\""6\"",\""7\"",\""8\"",\""9  <br/><b>Extremely aggressive</b>\""],\""required\"":true}]"", ""task_unique_trial"": 100, ""task_name"": ""aggressive-modifae-single"", ""trial_index"": 54, ""isRepeat"": 0}"
A1P0M5D9IGZIDK:3RANCT1ZVHOLG4CVK2MK6KBVQFXUBH,55,1548238062549,"{""rt"": 3678, ""trial_type"": ""face-likert-amanda"", ""debug_mode"": ""live"", ""task_type"": ""face trials"", ""responses"": ""{\""Q0\"":3}"", ""task_payment"": 1, ""task_version"": 1, ""internal_node_id"": ""0.0-6.0-0.0-9.0"", ""time_elapsed"": 235279, ""imgName"": ""/static/images/modifae_new_linspace/aggressive/106456_-0.6742424242424242.png"", ""questions"": ""[{\""prompt\"":\""<p>How <b>aggressive</b> does this person look to <b>most people</b>? Rate from 1-9</p>\"",\""labels\"":[\""1 <br/><b>Not aggressive at all</b>\"",\""2\"",\""3\"",\""4\"",\""5\"",\""6\"",\""7\"",\""8\"",\""9  <br/><b>Extremely aggressive</b>\""],\""required\"":true}]"", ""task_unique_trial"": 100, ""task_name"": ""aggressive-modifae-single"", ""trial_index"": 55, ""isRepeat"": 0}"
A1P0M5D9IGZIDK:3RANCT1ZVHOLG4CVK2MK6KBVQFXUBH,56,1548238064551,"{""rt"": null, ""trial_type"": ""html-keyboard-response"", ""task_unique_trial"": 100, ""stimulus"": ""<p>Good job!</p>"", ""task_version"": 1, ""internal_node_id"": ""0.0-6.0-1.0"", ""task_payment"": 1, ""time_elapsed"": 237282, ""debug_mode"": ""live"", ""key_press"": null, ""task_name"": ""aggressive-modifae-single"", ""trial_index"": 56}"
A1P0M5D9IGZIDK:3RANCT1ZVHOLG4CVK2MK6KBVQFXUBH,57,1548238068416,"{""rt"": 3862, ""trial_type"": ""face-likert-amanda"", ""debug_mode"": ""live"", ""task_type"": ""face trials"", ""responses"": ""{\""Q0\"":2}"", ""task_payment"": 1, ""task_version"": 1, ""internal_node_id"": ""0.0-7.0-0.0-0.0"", ""time_elapsed"": 241147, ""imgName"": ""/static/images/modifae_new_linspace/aggressive/032683_0.007575757575757569.png"", ""questions"": ""[{\""prompt\"":\""<p>How <b>aggressive</b> does this person look to <b>most people</b>? Rate from 1-9</p>\"",\""labels\"":[\""1 <br/><b>Not aggressive at all</b>\"",\""2\"",\""3\"",\""4\"",\""5\"",\""6\"",\""7\"",\""8\"",\""9  <br/><b>Extremely aggressive</b>\""],\""required\"":true}]"", ""task_unique_trial"": 100, ""task_name"": ""aggressive-modifae-single"", ""trial_index"": 57, ""isRepeat"": 0}"
A1P0M5D9IGZIDK:3RANCT1ZVHOLG4CVK2MK6KBVQFXUBH,58,1548238072063,"{""rt"": 3644, ""trial_type"": ""face-likert-amanda"", ""debug_mode"": ""live"", ""task_type"": ""face trials"", ""responses"": ""{\""Q0\"":4}"", ""task_payment"": 1, ""task_version"": 1, ""internal_node_id"": ""0.0-7.0-0.0-1.0"", ""time_elapsed"": 244794, ""imgName"": ""/static/images/modifae_new_linspace/aggressive/065471_0.053030303030303094.png"", ""questions"": ""[{\""prompt\"":\""<p>How <b>aggressive</b> does this person look to <b>most people</b>? Rate from 1-9</p>\"",\""labels\"":[\""1 <br/><b>Not aggressive at all</b>\"",\""2\"",\""3\"",\""4\"",\""5\"",\""6\"",\""7\"",\""8\"",\""9  <br/><b>Extremely aggressive</b>\""],\""required\"":true}]"", ""task_unique_trial"": 100, ""task_name"": ""aggressive-modifae-single"", ""trial_index"": 58, ""isRepeat"": 0}"
A1P0M5D9IGZIDK:3RANCT1ZVHOLG4CVK2MK6KBVQFXUBH,59,1548238076572,"{""rt"": 4505, ""trial_type"": ""face-likert-amanda"", ""debug_mode"": ""live"", ""task_type"": ""face trials"", ""responses"": ""{\""Q0\"":3}"", ""task_payment"": 1, ""task_version"": 1, ""internal_node_id"": ""0.0-7.0-0.0-2.0"", ""time_elapsed"": 249302, ""imgName"": ""/static/images/modifae_new_linspace/aggressive/142593_0.15909090909090917.png"", ""questions"": ""[{\""prompt\"":\""<p>How <b>aggressive</b> does this person look to <b>most people</b>? Rate from 1-9</p>\"",\""labels\"":[\""1 <br/><b>Not aggressive at all</b>\"",\""2\"",\""3\"",\""4\"",\""5\"",\""6\"",\""7\"",\""8\"",\""9  <br/><b>Extremely aggressive</b>\""],\""required\"":true}]"", ""task_unique_trial"": 100, ""task_name"": ""aggressive-modifae-single"", ""trial_index"": 59, ""isRepeat"": 0}"
A1P0M5D9IGZIDK:3RANCT1ZVHOLG4CVK2MK6KBVQFXUBH,60,1548238079604,"{""rt"": 3030, ""trial_type"": ""face-likert-amanda"", ""debug_mode"": ""live"", ""task_type"": ""face trials"", ""responses"": ""{\""Q0\"":0}"", ""task_payment"": 1, ""task_version"": 1, ""internal_node_id"": ""0.0-7.0-0.0-3.0"", ""time_elapsed"": 252334, ""imgName"": ""/static/images/modifae_new_linspace/aggressive/098631_0.23484848484848486.png"", ""questions"": ""[{\""prompt\"":\""<p>How <b>aggressive</b> does this person look to <b>most people</b>? Rate from 1-9</p>\"",\""labels\"":[\""1 <br/><b>Not aggressive at all</b>\"",\""2\"",\""3\"",\""4\"",\""5\"",\""6\"",\""7\"",\""8\"",\""9  <br/><b>Extremely aggressive</b>\""],\""required\"":true}]"", ""task_unique_trial"": 100, ""task_name"": ""aggressive-modifae-single"", ""trial_index"": 60, ""isRepeat"": 0}"
A1P0M5D9IGZIDK:3RANCT1ZVHOLG4CVK2MK6KBVQFXUBH,61,1548238083194,"{""rt"": 3588, ""trial_type"": ""face-likert-amanda"", ""debug_mode"": ""live"", ""task_type"": ""face trials"", ""responses"": ""{\""Q0\"":1}"", ""task_payment"": 1, ""task_version"": 1, ""internal_node_id"": ""0.0-7.0-0.0-4.0"", ""time_elapsed"": 255924, ""imgName"": ""/static/images/modifae_new_linspace/aggressive/006240_0.3560606060606062.png"", ""questions"": ""[{\""prompt\"":\""<p>How <b>aggressive</b> does this person look to <b>most people</b>? Rate from 1-9</p>\"",\""labels\"":[\""1 <br/><b>Not aggressive at all</b>\"",\""2\"",\""3\"",\""4\"",\""5\"",\""6\"",\""7\"",\""8\"",\""9  <br/><b>Extremely aggressive</b>\""],\""required\"":true}]"", ""task_unique_trial"": 100, ""task_name"": ""aggressive-modifae-single"", ""trial_index"": 61, ""isRepeat"": 0}"
A1P0M5D9IGZIDK:3RANCT1ZVHOLG4CVK2MK6KBVQFXUBH,62,1548238086142,"{""rt"": 2945, ""trial_type"": ""face-likert-amanda"", ""debug_mode"": ""live"", ""task_type"": ""face trials"", ""responses"": ""{\""Q0\"":3}"", ""task_payment"": 1, ""task_version"": 1, ""internal_node_id"": ""0.0-7.0-0.0-5.0"", ""time_elapsed"": 258873, ""imgName"": ""/static/images/modifae_new_linspace/aggressive/134277_0.5984848484848486.png"", ""questions"": ""[{\""prompt\"":\""<p>How <b>aggressive</b> does this person look to <b>most people</b>? Rate from 1-9</p>\"",\""labels\"":[\""1 <br/><b>Not aggressive at all</b>\"",\""2\"",\""3\"",\""4\"",\""5\"",\""6\"",\""7\"",\""8\"",\""9  <br/><b>Extremely aggressive</b>\""],\""required\"":true}]"", ""task_unique_trial"": 100, ""task_name"": ""aggressive-modifae-single"", ""trial_index"": 62, ""isRepeat"": 0}"
A1P0M5D9IGZIDK:3RANCT1ZVHOLG4CVK2MK6KBVQFXUBH,63,1548238091088,"{""rt"": 4943, ""trial_type"": ""face-likert-amanda"", ""debug_mode"": ""live"", ""task_type"": ""face trials"", ""responses"": ""{\""Q0\"":1}"", ""task_payment"": 1, ""task_version"": 1, ""internal_node_id"": ""0.0-7.0-0.0-6.0"", ""time_elapsed"": 263819, ""imgName"": ""/static/images/modifae_new_linspace/aggressive/045867_-0.4621212121212121.png"", ""questions"": ""[{\""prompt\"":\""<p>How <b>aggressive</b> does this person look to <b>most people</b>? Rate from 1-9</p>\"",\""labels\"":[\""1 <br/><b>Not aggressive at all</b>\"",\""2\"",\""3\"",\""4\"",\""5\"",\""6\"",\""7\"",\""8\"",\""9  <br/><b>Extremely aggressive</b>\""],\""required\"":true}]"", ""task_unique_trial"": 100, ""task_name"": ""aggressive-modifae-single"", ""trial_index"": 63, ""isRepeat"": 0}"
A1P0M5D9IGZIDK:3RANCT1ZVHOLG4CVK2MK6KBVQFXUBH,64,1548238094569,"{""rt"": 3479, ""trial_type"": ""face-likert-amanda"", ""debug_mode"": ""live"", ""task_type"": ""face trials"", ""responses"": ""{\""Q0\"":2}"", ""task_payment"": 1, ""task_version"": 1, ""internal_node_id"": ""0.0-7.0-0.0-7.0"", ""time_elapsed"": 267300, ""imgName"": ""/static/images/modifae_new_linspace/aggressive/053178_0.06818181818181823.png"", ""questions"": ""[{\""prompt\"":\""<p>How <b>aggressive</b> does this person look to <b>most people</b>? Rate from 1-9</p>\"",\""labels\"":[\""1 <br/><b>Not aggressive at all</b>\"",\""2\"",\""3\"",\""4\"",\""5\"",\""6\"",\""7\"",\""8\"",\""9  <br/><b>Extremely aggressive</b>\""],\""required\"":true}]"", ""task_unique_trial"": 100, ""task_name"": ""aggressive-modifae-single"", ""trial_index"": 64, ""isRepeat"": 0}"
A1P0M5D9IGZIDK:3RANCT1ZVHOLG4CVK2MK6KBVQFXUBH,65,1548238097481,"{""rt"": 2910, ""trial_type"": ""face-likert-amanda"", ""debug_mode"": ""live"", ""task_type"": ""face trials"", ""responses"": ""{\""Q0\"":0}"", ""task_payment"": 1, ""task_version"": 1, ""internal_node_id"": ""0.0-7.0-0.0-8.0"", ""time_elapsed"": 270212, ""imgName"": ""/static/images/modifae_new_linspace/aggressive/010202_-0.32575757575757575.png"", ""questions"": ""[{\""prompt\"":\""<p>How <b>aggressive</b> does this person look to <b>most people</b>? Rate from 1-9</p>\"",\""labels\"":[\""1 <br/><b>Not aggressive at all</b>\"",\""2\"",\""3\"",\""4\"",\""5\"",\""6\"",\""7\"",\""8\"",\""9  <br/><b>Extremely aggressive</b>\""],\""required\"":true}]"", ""task_unique_trial"": 100, ""task_name"": ""aggressive-modifae-single"", ""trial_index"": 65, ""isRepeat"": 0}"
A1P0M5D9IGZIDK:3RANCT1ZVHOLG4CVK2MK6KBVQFXUBH,66,1548238100420,"{""rt"": 2935, ""trial_type"": ""face-likert-amanda"", ""debug_mode"": ""live"", ""task_type"": ""face trials"", ""responses"": ""{\""Q0\"":0}"", ""task_payment"": 1, ""task_version"": 1, ""internal_node_id"": ""0.0-7.0-0.0-9.0"", ""time_elapsed"": 273151, ""imgName"": ""/static/images/modifae_new_linspace/aggressive/154698_-0.20454545454545459.png"", ""questions"": ""[{\""prompt\"":\""<p>How <b>aggressive</b> does this person look to <b>most people</b>? Rate from 1-9</p>\"",\""labels\"":[\""1 <br/><b>Not aggressive at all</b>\"",\""2\"",\""3\"",\""4\"",\""5\"",\""6\"",\""7\"",\""8\"",\""9  <br/><b>Extremely aggressive</b>\""],\""required\"":true}]"", ""task_unique_trial"": 100, ""task_name"": ""aggressive-modifae-single"", ""trial_index"": 66, ""isRepeat"": 0}"
A1P0M5D9IGZIDK:3RANCT1ZVHOLG4CVK2MK6KBVQFXUBH,67,1548238102423,"{""rt"": null, ""trial_type"": ""html-keyboard-response"", ""task_unique_trial"": 100, ""stimulus"": ""<p>Good job!</p>"", ""task_version"": 1, ""internal_node_id"": ""0.0-7.0-1.0"", ""task_payment"": 1, ""time_elapsed"": 275153, ""debug_mode"": ""live"", ""key_press"": null, ""task_name"": ""aggressive-modifae-single"", ""trial_index"": 67}"
A1P0M5D9IGZIDK:3RANCT1ZVHOLG4CVK2MK6KBVQFXUBH,68,1548238105036,"{""rt"": 2605, ""trial_type"": ""face-likert-amanda"", ""debug_mode"": ""live"", ""task_type"": ""face trials"", ""responses"": ""{\""Q0\"":0}"", ""task_payment"": 1, ""task_version"": 1, ""internal_node_id"": ""0.0-8.0-0.0-0.0"", ""time_elapsed"": 277764, ""imgName"": ""/static/images/modifae_new_linspace/aggressive/112685_-0.007575757575757569.png"", ""questions"": ""[{\""prompt\"":\""<p>How <b>aggressive</b> does this person look to <b>most people</b>? Rate from 1-9</p>\"",\""labels\"":[\""1 <br/><b>Not aggressive at all</b>\"",\""2\"",\""3\"",\""4\"",\""5\"",\""6\"",\""7\"",\""8\"",\""9  <br/><b>Extremely aggressive</b>\""],\""required\"":true}]"", ""task_unique_trial"": 100, ""task_name"": ""aggressive-modifae-single"", ""trial_index"": 68, ""isRepeat"": 0}"
A1P0M5D9IGZIDK:3RANCT1ZVHOLG4CVK2MK6KBVQFXUBH,69,1548238108284,"{""rt"": 3245, ""trial_type"": ""face-likert-amanda"", ""debug_mode"": ""live"", ""task_type"": ""face trials"", ""responses"": ""{\""Q0\"":0}"", ""task_payment"": 1, ""task_version"": 1, ""internal_node_id"": ""0.0-8.0-0.0-1.0"", ""time_elapsed"": 281015, ""imgName"": ""/static/images/modifae_new_linspace/aggressive/180191_-0.44696969696969696.png"", ""questions"": ""[{\""prompt\"":\""<p>How <b>aggressive</b> does this person look to <b>most people</b>? Rate from 1-9</p>\"",\""labels\"":[\""1 <br/><b>Not aggressive at all</b>\"",\""2\"",\""3\"",\""4\"",\""5\"",\""6\"",\""7\"",\""8\"",\""9  <br/><b>Extremely aggressive</b>\""],\""required\"":true}]"", ""task_unique_trial"": 100, ""task_name"": ""aggressive-modifae-single"", ""trial_index"": 69, ""isRepeat"": 0}"
A1P0M5D9IGZIDK:3RANCT1ZVHOLG4CVK2MK6KBVQFXUBH,70,1548238111655,"{""rt"": 3369, ""trial_type"": ""face-likert-amanda"", ""debug_mode"": ""live"", ""task_type"": ""face trials"", ""responses"": ""{\""Q0\"":0}"", ""task_payment"": 1, ""task_version"": 1, ""internal_node_id"": ""0.0-8.0-0.0-2.0"", ""time_elapsed"": 284386, ""imgName"": ""/static/images/modifae_new_linspace/aggressive/032145_-0.3560606060606061.png"", ""questions"": ""[{\""prompt\"":\""<p>How <b>aggressive</b> does this person look to <b>most people</b>? Rate from 1-9</p>\"",\""labels\"":[\""1 <br/><b>Not aggressive at all</b>\"",\""2\"",\""3\"",\""4\"",\""5\"",\""6\"",\""7\"",\""8\"",\""9  <br/><b>Extremely aggressive</b>\""],\""required\"":true}]"", ""task_unique_trial"": 100, ""task_name"": ""aggressive-modifae-single"", ""trial_index"": 70, ""isRepeat"": 0}"
A1P0M5D9IGZIDK:3RANCT1ZVHOLG4CVK2MK6KBVQFXUBH,71,1548238114641,"{""rt"": 2983, ""trial_type"": ""face-likert-amanda"", ""debug_mode"": ""live"", ""task_type"": ""face trials"", ""responses"": ""{\""Q0\"":3}"", ""task_payment"": 1, ""task_version"": 1, ""internal_node_id"": ""0.0-8.0-0.0-3.0"", ""time_elapsed"": 287372, ""imgName"": ""/static/images/modifae_new_linspace/aggressive/090482_0.553030303030303.png"", ""questions"": ""[{\""prompt\"":\""<p>How <b>aggressive</b> does this person look to <b>most people</b>? Rate from 1-9</p>\"",\""labels\"":[\""1 <br/><b>Not aggressive at all</b>\"",\""2\"",\""3\"",\""4\"",\""5\"",\""6\"",\""7\"",\""8\"",\""9  <br/><b>Extremely aggressive</b>\""],\""required\"":true}]"", ""task_unique_trial"": 100, ""task_name"": ""aggressive-modifae-single"", ""trial_index"": 71, ""isRepeat"": 0}"
A1P0M5D9IGZIDK:3RANCT1ZVHOLG4CVK2MK6KBVQFXUBH,72,1548238118171,"{""rt"": 3528, ""trial_type"": ""face-likert-amanda"", ""debug_mode"": ""live"", ""task_type"": ""face trials"", ""responses"": ""{\""Q0\"":2}"", ""task_payment"": 1, ""task_version"": 1, ""internal_node_id"": ""0.0-8.0-0.0-4.0"", ""time_elapsed"": 290902, ""imgName"": ""/static/images/modifae_new_linspace/aggressive/134466_0.6742424242424243.png"", ""questions"": ""[{\""prompt\"":\""<p>How <b>aggressive</b> does this person look to <b>most people</b>? Rate from 1-9</p>\"",\""labels\"":[\""1 <br/><b>Not aggressive at all</b>\"",\""2\"",\""3\"",\""4\"",\""5\"",\""6\"",\""7\"",\""8\"",\""9  <br/><b>Extremely aggressive</b>\""],\""required\"":true}]"", ""task_unique_trial"": 100, ""task_name"": ""aggressive-modifae-single"", ""trial_index"": 72, ""isRepeat"": 0}"
A1P0M5D9IGZIDK:3RANCT1ZVHOLG4CVK2MK6KBVQFXUBH,73,1548238121363,"{""rt"": 3188, ""trial_type"": ""face-likert-amanda"", ""debug_mode"": ""live"", ""task_type"": ""face trials"", ""responses"": ""{\""Q0\"":2}"", ""task_payment"": 1, ""task_version"": 1, ""internal_node_id"": ""0.0-8.0-0.0-5.0"", ""time_elapsed"": 294094, ""imgName"": ""/static/images/modifae_new_linspace/aggressive/172473_0.6590909090909092.png"", ""questions"": ""[{\""prompt\"":\""<p>How <b>aggressive</b> does this person look to <b>most people</b>? Rate from 1-9</p>\"",\""labels\"":[\""1 <br/><b>Not aggressive at all</b>\"",\""2\"",\""3\"",\""4\"",\""5\"",\""6\"",\""7\"",\""8\"",\""9  <br/><b>Extremely aggressive</b>\""],\""required\"":true}]"", ""task_unique_trial"": 100, ""task_name"": ""aggressive-modifae-single"", ""trial_index"": 73, ""isRepeat"": 0}"
A1P0M5D9IGZIDK:3RANCT1ZVHOLG4CVK2MK6KBVQFXUBH,74,1548238125146,"{""rt"": 3780, ""trial_type"": ""face-likert-amanda"", ""debug_mode"": ""live"", ""task_type"": ""face trials"", ""responses"": ""{\""Q0\"":1}"", ""task_payment"": 1, ""task_version"": 1, ""internal_node_id"": ""0.0-8.0-0.0-6.0"", ""time_elapsed"": 297877, ""imgName"": ""/static/images/modifae_new_linspace/aggressive/165559_-0.5227272727272727.png"", ""questions"": ""[{\""prompt\"":\""<p>How <b>aggressive</b> does this person look to <b>most people</b>? Rate from 1-9</p>\"",\""labels\"":[\""1 <br/><b>Not aggressive at all</b>\"",\""2\"",\""3\"",\""4\"",\""5\"",\""6\"",\""7\"",\""8\"",\""9  <br/><b>Extremely aggressive</b>\""],\""required\"":true}]"", ""task_unique_trial"": 100, ""task_name"": ""aggressive-modifae-single"", ""trial_index"": 74, ""isRepeat"": 0}"
A1P0M5D9IGZIDK:3RANCT1ZVHOLG4CVK2MK6KBVQFXUBH,75,1548238128437,"{""rt"": 3289, ""trial_type"": ""face-likert-amanda"", ""debug_mode"": ""live"", ""task_type"": ""face trials"", ""responses"": ""{\""Q0\"":0}"", ""task_payment"": 1, ""task_version"": 1, ""internal_node_id"": ""0.0-8.0-0.0-7.0"", ""time_elapsed"": 301168, ""imgName"": ""/static/images/modifae_new_linspace/aggressive/195398_-0.14393939393939392.png"", ""questions"": ""[{\""prompt\"":\""<p>How <b>aggressive</b> does this person look to <b>most people</b>? Rate from 1-9</p>\"",\""labels\"":[\""1 <br/><b>Not aggressive at all</b>\"",\""2\"",\""3\"",\""4\"",\""5\"",\""6\"",\""7\"",\""8\"",\""9  <br/><b>Extremely aggressive</b>\""],\""required\"":true}]"", ""task_unique_trial"": 100, ""task_name"": ""aggressive-modifae-single"", ""trial_index"": 75, ""isRepeat"": 0}"
A1P0M5D9IGZIDK:3RANCT1ZVHOLG4CVK2MK6KBVQFXUBH,76,1548238131775,"{""rt"": 3335, ""trial_type"": ""face-likert-amanda"", ""debug_mode"": ""live"", ""task_type"": ""face trials"", ""responses"": ""{\""Q0\"":3}"", ""task_payment"": 1, ""task_version"": 1, ""internal_node_id"": ""0.0-8.0-0.0-8.0"", ""time_elapsed"": 304506, ""imgName"": ""/static/images/modifae_new_linspace/aggressive/065471_0.053030303030303094.png"", ""questions"": ""[{\""prompt\"":\""<p>How <b>aggressive</b> does this person look to <b>most people</b>? Rate from 1-9</p>\"",\""labels\"":[\""1 <br/><b>Not aggressive at all</b>\"",\""2\"",\""3\"",\""4\"",\""5\"",\""6\"",\""7\"",\""8\"",\""9  <br/><b>Extremely aggressive</b>\""],\""required\"":true}]"", ""task_unique_trial"": 100, ""task_name"": ""aggressive-modifae-single"", ""trial_index"": 76, ""isRepeat"": 0}"
A1P0M5D9IGZIDK:3RANCT1ZVHOLG4CVK2MK6KBVQFXUBH,77,1548238134500,"{""rt"": 2723, ""trial_type"": ""face-likert-amanda"", ""debug_mode"": ""live"", ""task_type"": ""face trials"", ""responses"": ""{\""Q0\"":0}"", ""task_payment"": 1, ""task_version"": 1, ""internal_node_id"": ""0.0-8.0-0.0-9.0"", ""time_elapsed"": 307231, ""imgName"": ""/static/images/modifae_new_linspace/aggressive/103635_0.25.png"", ""questions"": ""[{\""prompt\"":\""<p>How <b>aggressive</b> does this person look to <b>most people</b>? Rate from 1-9</p>\"",\""labels\"":[\""1 <br/><b>Not aggressive at all</b>\"",\""2\"",\""3\"",\""4\"",\""5\"",\""6\"",\""7\"",\""8\"",\""9  <br/><b>Extremely aggressive</b>\""],\""required\"":true}]"", ""task_unique_trial"": 100, ""task_name"": ""aggressive-modifae-single"", ""trial_index"": 77, ""isRepeat"": 0}"
A1P0M5D9IGZIDK:3RANCT1ZVHOLG4CVK2MK6KBVQFXUBH,78,1548238136002,"{""rt"": null, ""trial_type"": ""html-keyboard-response"", ""task_unique_trial"": 100, ""stimulus"": ""<p>Good job!</p>"", ""task_version"": 1, ""internal_node_id"": ""0.0-8.0-1.0"", ""task_payment"": 1, ""time_elapsed"": 308733, ""debug_mode"": ""live"", ""key_press"": null, ""task_name"": ""aggressive-modifae-single"", ""trial_index"": 78}"
A1P0M5D9IGZIDK:3RANCT1ZVHOLG4CVK2MK6KBVQFXUBH,79,1548238141380,"{""rt"": 5374, ""trial_type"": ""face-likert-amanda"", ""debug_mode"": ""live"", ""task_type"": ""face trials"", ""responses"": ""{\""Q0\"":1}"", ""task_payment"": 1, ""task_version"": 1, ""internal_node_id"": ""0.0-9.0-0.0-0.0"", ""time_elapsed"": 314111, ""imgName"": ""/static/images/modifae_new_linspace/aggressive/144397_0.26515151515151514.png"", ""questions"": ""[{\""prompt\"":\""<p>How <b>aggressive</b> does this person look to <b>most people</b>? Rate from 1-9</p>\"",\""labels\"":[\""1 <br/><b>Not aggressive at all</b>\"",\""2\"",\""3\"",\""4\"",\""5\"",\""6\"",\""7\"",\""8\"",\""9  <br/><b>Extremely aggressive</b>\""],\""required\"":true}]"", ""task_unique_trial"": 100, ""task_name"": ""aggressive-modifae-single"", ""trial_index"": 79, ""isRepeat"": 0}"
A1P0M5D9IGZIDK:3RANCT1ZVHOLG4CVK2MK6KBVQFXUBH,80,1548238144306,"{""rt"": 2923, ""trial_type"": ""face-likert-amanda"", ""debug_mode"": ""live"", ""task_type"": ""face trials"", ""responses"": ""{\""Q0\"":0}"", ""task_payment"": 1, ""task_version"": 1, ""internal_node_id"": ""0.0-9.0-0.0-1.0"", ""time_elapsed"": 317037, ""imgName"": ""/static/images/modifae_new_linspace/aggressive/025504_0.75.png"", ""questions"": ""[{\""prompt\"":\""<p>How <b>aggressive</b> does this person look to <b>most people</b>? Rate from 1-9</p>\"",\""labels\"":[\""1 <br/><b>Not aggressive at all</b>\"",\""2\"",\""3\"",\""4\"",\""5\"",\""6\"",\""7\"",\""8\"",\""9  <br/><b>Extremely aggressive</b>\""],\""required\"":true}]"", ""task_unique_trial"": 100, ""task_name"": ""aggressive-modifae-single"", ""trial_index"": 80, ""isRepeat"": 0}"
A1P0M5D9IGZIDK:3RANCT1ZVHOLG4CVK2MK6KBVQFXUBH,81,1548238148851,"{""rt"": 4542, ""trial_type"": ""face-likert-amanda"", ""debug_mode"": ""live"", ""task_type"": ""face trials"", ""responses"": ""{\""Q0\"":1}"", ""task_payment"": 1, ""task_version"": 1, ""internal_node_id"": ""0.0-9.0-0.0-2.0"", ""time_elapsed"": 321582, ""imgName"": ""/static/images/modifae_new_linspace/aggressive/133467_-0.3106060606060606.png"", ""questions"": ""[{\""prompt\"":\""<p>How <b>aggressive</b> does this person look to <b>most people</b>? Rate from 1-9</p>\"",\""labels\"":[\""1 <br/><b>Not aggressive at all</b>\"",\""2\"",\""3\"",\""4\"",\""5\"",\""6\"",\""7\"",\""8\"",\""9  <br/><b>Extremely aggressive</b>\""],\""required\"":true}]"", ""task_unique_trial"": 100, ""task_name"": ""aggressive-modifae-single"", ""trial_index"": 81, ""isRepeat"": 0}"
A1P0M5D9IGZIDK:3RANCT1ZVHOLG4CVK2MK6KBVQFXUBH,82,1548238151502,"{""rt"": 2647, ""trial_type"": ""face-likert-amanda"", ""debug_mode"": ""live"", ""task_type"": ""face trials"", ""responses"": ""{\""Q0\"":0}"", ""task_payment"": 1, ""task_version"": 1, ""internal_node_id"": ""0.0-9.0-0.0-3.0"", ""time_elapsed"": 324233, ""imgName"": ""/static/images/modifae_new_linspace/aggressive/080609_0.5227272727272727.png"", ""questions"": ""[{\""prompt\"":\""<p>How <b>aggressive</b> does this person look to <b>most people</b>? Rate from 1-9</p>\"",\""labels\"":[\""1 <br/><b>Not aggressive at all</b>\"",\""2\"",\""3\"",\""4\"",\""5\"",\""6\"",\""7\"",\""8\"",\""9  <br/><b>Extremely aggressive</b>\""],\""required\"":true}]"", ""task_unique_trial"": 100, ""task_name"": ""aggressive-modifae-single"", ""trial_index"": 82, ""isRepeat"": 0}"
A1P0M5D9IGZIDK:3RANCT1ZVHOLG4CVK2MK6KBVQFXUBH,83,1548238154588,"{""rt"": 3082, ""trial_type"": ""face-likert-amanda"", ""debug_mode"": ""live"", ""task_type"": ""face trials"", ""responses"": ""{\""Q0\"":3}"", ""task_payment"": 1, ""task_version"": 1, ""internal_node_id"": ""0.0-9.0-0.0-4.0"", ""time_elapsed"": 327319, ""imgName"": ""/static/images/modifae_new_linspace/aggressive/043491_-0.4318181818181818.png"", ""questions"": ""[{\""prompt\"":\""<p>How <b>aggressive</b> does this person look to <b>most people</b>? Rate from 1-9</p>\"",\""labels\"":[\""1 <br/><b>Not aggressive at all</b>\"",\""2\"",\""3\"",\""4\"",\""5\"",\""6\"",\""7\"",\""8\"",\""9  <br/><b>Extremely aggressive</b>\""],\""required\"":true}]"", ""task_unique_trial"": 100, ""task_name"": ""aggressive-modifae-single"", ""trial_index"": 83, ""isRepeat"": 0}"
A1P0M5D9IGZIDK:3RANCT1ZVHOLG4CVK2MK6KBVQFXUBH,84,1548238158182,"{""rt"": 3591, ""trial_type"": ""face-likert-amanda"", ""debug_mode"": ""live"", ""task_type"": ""face trials"", ""responses"": ""{\""Q0\"":5}"", ""task_payment"": 1, ""task_version"": 1, ""internal_node_id"": ""0.0-9.0-0.0-5.0"", ""time_elapsed"": 330913, ""imgName"": ""/static/images/modifae_new_linspace/aggressive/109247_0.6136363636363638.png"", ""questions"": ""[{\""prompt\"":\""<p>How <b>aggressive</b> does this person look to <b>most people</b>? Rate from 1-9</p>\"",\""labels\"":[\""1 <br/><b>Not aggressive at all</b>\"",\""2\"",\""3\"",\""4\"",\""5\"",\""6\"",\""7\"",\""8\"",\""9  <br/><b>Extremely aggressive</b>\""],\""required\"":true}]"", ""task_unique_trial"": 100, ""task_name"": ""aggressive-modifae-single"", ""trial_index"": 84, ""isRepeat"": 0}"
A1P0M5D9IGZIDK:3RANCT1ZVHOLG4CVK2MK6KBVQFXUBH,85,1548238161080,"{""rt"": 2896, ""trial_type"": ""face-likert-amanda"", ""debug_mode"": ""live"", ""task_type"": ""face trials"", ""responses"": ""{\""Q0\"":0}"", ""task_payment"": 1, ""task_version"": 1, ""internal_node_id"": ""0.0-9.0-0.0-6.0"", ""time_elapsed"": 333811, ""imgName"": ""/static/images/modifae_new_linspace/aggressive/008091_-0.6439393939393939.png"", ""questions"": ""[{\""prompt\"":\""<p>How <b>aggressive</b> does this person look to <b>most people</b>? Rate from 1-9</p>\"",\""labels\"":[\""1 <br/><b>Not aggressive at all</b>\"",\""2\"",\""3\"",\""4\"",\""5\"",\""6\"",\""7\"",\""8\"",\""9  <br/><b>Extremely aggressive</b>\""],\""required\"":true}]"", ""task_unique_trial"": 100, ""task_name"": ""aggressive-modifae-single"", ""trial_index"": 85, ""isRepeat"": 0}"
A1P0M5D9IGZIDK:3RANCT1ZVHOLG4CVK2MK6KBVQFXUBH,86,1548238163663,"{""rt"": 2581, ""trial_type"": ""face-likert-amanda"", ""debug_mode"": ""live"", ""task_type"": ""face trials"", ""responses"": ""{\""Q0\"":0}"", ""task_payment"": 1, ""task_version"": 1, ""internal_node_id"": ""0.0-9.0-0.0-7.0"", ""time_elapsed"": 336394, ""imgName"": ""/static/images/modifae_new_linspace/aggressive/001195_-0.38636363636363635.png"", ""questions"": ""[{\""prompt\"":\""<p>How <b>aggressive</b> does this person look to <b>most people</b>? Rate from 1-9</p>\"",\""labels\"":[\""1 <br/><b>Not aggressive at all</b>\"",\""2\"",\""3\"",\""4\"",\""5\"",\""6\"",\""7\"",\""8\"",\""9  <br/><b>Extremely aggressive</b>\""],\""required\"":true}]"", ""task_unique_trial"": 100, ""task_name"": ""aggressive-modifae-single"", ""trial_index"": 86, ""isRepeat"": 0}"
A1P0M5D9IGZIDK:3RANCT1ZVHOLG4CVK2MK6KBVQFXUBH,87,1548238167188,"{""rt"": 3522, ""trial_type"": ""face-likert-amanda"", ""debug_mode"": ""live"", ""task_type"": ""face trials"", ""responses"": ""{\""Q0\"":2}"", ""task_payment"": 1, ""task_version"": 1, ""internal_node_id"": ""0.0-9.0-0.0-8.0"", ""time_elapsed"": 339919, ""imgName"": ""/static/images/modifae_new_linspace/aggressive/081779_0.34090909090909083.png"", ""questions"": ""[{\""prompt\"":\""<p>How <b>aggressive</b> does this person look to <b>most people</b>? Rate from 1-9</p>\"",\""labels\"":[\""1 <br/><b>Not aggressive at all</b>\"",\""2\"",\""3\"",\""4\"",\""5\"",\""6\"",\""7\"",\""8\"",\""9  <br/><b>Extremely aggressive</b>\""],\""required\"":true}]"", ""task_unique_trial"": 100, ""task_name"": ""aggressive-modifae-single"", ""trial_index"": 87, ""isRepeat"": 0}"
A1P0M5D9IGZIDK:3RANCT1ZVHOLG4CVK2MK6KBVQFXUBH,88,1548238171073,"{""rt"": 3882, ""trial_type"": ""face-likert-amanda"", ""debug_mode"": ""live"", ""task_type"": ""face trials"", ""responses"": ""{\""Q0\"":1}"", ""task_payment"": 1, ""task_version"": 1, ""internal_node_id"": ""0.0-9.0-0.0-9.0"", ""time_elapsed"": 343804, ""imgName"": ""/static/images/modifae_new_linspace/aggressive/180638_-0.26515151515151514.png"", ""questions"": ""[{\""prompt\"":\""<p>How <b>aggressive</b> does this person look to <b>most people</b>? Rate from 1-9</p>\"",\""labels\"":[\""1 <br/><b>Not aggressive at all</b>\"",\""2\"",\""3\"",\""4\"",\""5\"",\""6\"",\""7\"",\""8\"",\""9  <br/><b>Extremely aggressive</b>\""],\""required\"":true}]"", ""task_unique_trial"": 100, ""task_name"": ""aggressive-modifae-single"", ""trial_index"": 88, ""isRepeat"": 0}"
A1P0M5D9IGZIDK:3RANCT1ZVHOLG4CVK2MK6KBVQFXUBH,89,1548238172576,"{""rt"": null, ""trial_type"": ""html-keyboard-response"", ""task_unique_trial"": 100, ""stimulus"": ""<p>Good job!</p>"", ""task_version"": 1, ""internal_node_id"": ""0.0-9.0-1.0"", ""task_payment"": 1, ""time_elapsed"": 345307, ""debug_mode"": ""live"", ""key_press"": null, ""task_name"": ""aggressive-modifae-single"", ""trial_index"": 89}"
A1P0M5D9IGZIDK:3RANCT1ZVHOLG4CVK2MK6KBVQFXUBH,90,1548238175482,"{""rt"": 2904, ""trial_type"": ""face-likert-amanda"", ""debug_mode"": ""live"", ""task_type"": ""face trials"", ""responses"": ""{\""Q0\"":0}"", ""task_payment"": 1, ""task_version"": 1, ""internal_node_id"": ""0.0-10.0-0.0-0.0"", ""time_elapsed"": 348213, ""imgName"": ""/static/images/modifae_new_linspace/aggressive/032145_-0.3560606060606061.png"", ""questions"": ""[{\""prompt\"":\""<p>How <b>aggressive</b> does this person look to <b>most people</b>? Rate from 1-9</p>\"",\""labels\"":[\""1 <br/><b>Not aggressive at all</b>\"",\""2\"",\""3\"",\""4\"",\""5\"",\""6\"",\""7\"",\""8\"",\""9  <br/><b>Extremely aggressive</b>\""],\""required\"":true}]"", ""task_unique_trial"": 100, ""task_name"": ""aggressive-modifae-single"", ""trial_index"": 90, ""isRepeat"": 0}"
A1P0M5D9IGZIDK:3RANCT1ZVHOLG4CVK2MK6KBVQFXUBH,91,1548238178792,"{""rt"": 3305, ""trial_type"": ""face-likert-amanda"", ""debug_mode"": ""live"", ""task_type"": ""face trials"", ""responses"": ""{\""Q0\"":0}"", ""task_payment"": 1, ""task_version"": 1, ""internal_node_id"": ""0.0-10.0-0.0-1.0"", ""time_elapsed"": 351523, ""imgName"": ""/static/images/modifae_new_linspace/aggressive/150226_0.3257575757575757.png"", ""questions"": ""[{\""prompt\"":\""<p>How <b>aggressive</b> does this person look to <b>most people</b>? Rate from 1-9</p>\"",\""labels\"":[\""1 <br/><b>Not aggressive at all</b>\"",\""2\"",\""3\"",\""4\"",\""5\"",\""6\"",\""7\"",\""8\"",\""9  <br/><b>Extremely aggressive</b>\""],\""required\"":true}]"", ""task_unique_trial"": 100, ""task_name"": ""aggressive-modifae-single"", ""trial_index"": 91, ""isRepeat"": 0}"
A1P0M5D9IGZIDK:3RANCT1ZVHOLG4CVK2MK6KBVQFXUBH,92,1548238181531,"{""rt"": 2735, ""trial_type"": ""face-likert-amanda"", ""debug_mode"": ""live"", ""task_type"": ""face trials"", ""responses"": ""{\""Q0\"":0}"", ""task_payment"": 1, ""task_version"": 1, ""internal_node_id"": ""0.0-10.0-0.0-2.0"", ""time_elapsed"": 354262, ""imgName"": ""/static/images/modifae_new_linspace/aggressive/048059_0.46212121212121215.png"", ""questions"": ""[{\""prompt\"":\""<p>How <b>aggressive</b> does this person look to <b>most people</b>? Rate from 1-9</p>\"",\""labels\"":[\""1 <br/><b>Not aggressive at all</b>\"",\""2\"",\""3\"",\""4\"",\""5\"",\""6\"",\""7\"",\""8\"",\""9  <br/><b>Extremely aggressive</b>\""],\""required\"":true}]"", ""task_unique_trial"": 100, ""task_name"": ""aggressive-modifae-single"", ""trial_index"": 92, ""isRepeat"": 0}"
A1P0M5D9IGZIDK:3RANCT1ZVHOLG4CVK2MK6KBVQFXUBH,93,1548238184175,"{""rt"": 2642, ""trial_type"": ""face-likert-amanda"", ""debug_mode"": ""live"", ""task_type"": ""face trials"", ""responses"": ""{\""Q0\"":0}"", ""task_payment"": 1, ""task_version"": 1, ""internal_node_id"": ""0.0-10.0-0.0-3.0"", ""time_elapsed"": 356906, ""imgName"": ""/static/images/modifae_new_linspace/aggressive/141962_-0.08333333333333326.png"", ""questions"": ""[{\""prompt\"":\""<p>How <b>aggressive</b> does this person look to <b>most people</b>? Rate from 1-9</p>\"",\""labels\"":[\""1 <br/><b>Not aggressive at all</b>\"",\""2\"",\""3\"",\""4\"",\""5\"",\""6\"",\""7\"",\""8\"",\""9  <br/><b>Extremely aggressive</b>\""],\""required\"":true}]"", ""task_unique_trial"": 100, ""task_name"": ""aggressive-modifae-single"", ""trial_index"": 93, ""isRepeat"": 0}"
A1P0M5D9IGZIDK:3RANCT1ZVHOLG4CVK2MK6KBVQFXUBH,94,1548238188208,"{""rt"": 4032, ""trial_type"": ""face-likert-amanda"", ""debug_mode"": ""live"", ""task_type"": ""face trials"", ""responses"": ""{\""Q0\"":4}"", ""task_payment"": 1, ""task_version"": 1, ""internal_node_id"": ""0.0-10.0-0.0-4.0"", ""time_elapsed"": 360939, ""imgName"": ""/static/images/modifae_new_linspace/aggressive/182685_0.446969696969697.png"", ""questions"": ""[{\""prompt\"":\""<p>How <b>aggressive</b> does this person look to <b>most people</b>? Rate from 1-9</p>\"",\""labels\"":[\""1 <br/><b>Not aggressive at all</b>\"",\""2\"",\""3\"",\""4\"",\""5\"",\""6\"",\""7\"",\""8\"",\""9  <br/><b>Extremely aggressive</b>\""],\""required\"":true}]"", ""task_unique_trial"": 100, ""task_name"": ""aggressive-modifae-single"", ""trial_index"": 94, ""isRepeat"": 0}"
A1P0M5D9IGZIDK:3RANCT1ZVHOLG4CVK2MK6KBVQFXUBH,95,1548238192324,"{""rt"": 4113, ""trial_type"": ""face-likert-amanda"", ""debug_mode"": ""live"", ""task_type"": ""face trials"", ""responses"": ""{\""Q0\"":4}"", ""task_payment"": 1, ""task_version"": 1, ""internal_node_id"": ""0.0-10.0-0.0-5.0"", ""time_elapsed"": 365055, ""imgName"": ""/static/images/modifae_new_linspace/aggressive/030657_-0.6590909090909091.png"", ""questions"": ""[{\""prompt\"":\""<p>How <b>aggressive</b> does this person look to <b>most people</b>? Rate from 1-9</p>\"",\""labels\"":[\""1 <br/><b>Not aggressive at all</b>\"",\""2\"",\""3\"",\""4\"",\""5\"",\""6\"",\""7\"",\""8\"",\""9  <br/><b>Extremely aggressive</b>\""],\""required\"":true}]"", ""task_unique_trial"": 100, ""task_name"": ""aggressive-modifae-single"", ""trial_index"": 95, ""isRepeat"": 0}"
A1P0M5D9IGZIDK:3RANCT1ZVHOLG4CVK2MK6KBVQFXUBH,96,1548238195296,"{""rt"": 2969, ""trial_type"": ""face-likert-amanda"", ""debug_mode"": ""live"", ""task_type"": ""face trials"", ""responses"": ""{\""Q0\"":1}"", ""task_payment"": 1, ""task_version"": 1, ""internal_node_id"": ""0.0-10.0-0.0-6.0"", ""time_elapsed"": 368027, ""imgName"": ""/static/images/modifae_new_linspace/aggressive/049976_-0.3712121212121212.png"", ""questions"": ""[{\""prompt\"":\""<p>How <b>aggressive</b> does this person look to <b>most people</b>? Rate from 1-9</p>\"",\""labels\"":[\""1 <br/><b>Not aggressive at all</b>\"",\""2\"",\""3\"",\""4\"",\""5\"",\""6\"",\""7\"",\""8\"",\""9  <br/><b>Extremely aggressive</b>\""],\""required\"":true}]"", ""task_unique_trial"": 100, ""task_name"": ""aggressive-modifae-single"", ""trial_index"": 96, ""isRepeat"": 0}"
A1P0M5D9IGZIDK:3RANCT1ZVHOLG4CVK2MK6KBVQFXUBH,97,1548238197691,"{""rt"": 2391, ""trial_type"": ""face-likert-amanda"", ""debug_mode"": ""live"", ""task_type"": ""face trials"", ""responses"": ""{\""Q0\"":0}"", ""task_payment"": 1, ""task_version"": 1, ""internal_node_id"": ""0.0-10.0-0.0-7.0"", ""time_elapsed"": 370422, ""imgName"": ""/static/images/modifae_new_linspace/aggressive/027333_-0.6287878787878788.png"", ""questions"": ""[{\""prompt\"":\""<p>How <b>aggressive</b> does this person look to <b>most people</b>? Rate from 1-9</p>\"",\""labels\"":[\""1 <br/><b>Not aggressive at all</b>\"",\""2\"",\""3\"",\""4\"",\""5\"",\""6\"",\""7\"",\""8\"",\""9  <br/><b>Extremely aggressive</b>\""],\""required\"":true}]"", ""task_unique_trial"": 100, ""task_name"": ""aggressive-modifae-single"", ""trial_index"": 97, ""isRepeat"": 0}"
A1P0M5D9IGZIDK:3RANCT1ZVHOLG4CVK2MK6KBVQFXUBH,98,1548238200450,"{""rt"": 2755, ""trial_type"": ""face-likert-amanda"", ""debug_mode"": ""live"", ""task_type"": ""face trials"", ""responses"": ""{\""Q0\"":1}"", ""task_payment"": 1, ""task_version"": 1, ""internal_node_id"": ""0.0-10.0-0.0-8.0"", ""time_elapsed"": 373181, ""imgName"": ""/static/images/modifae_new_linspace/aggressive/023416_-0.5984848484848485.png"", ""questions"": ""[{\""prompt\"":\""<p>How <b>aggressive</b> does this person look to <b>most people</b>? Rate from 1-9</p>\"",\""labels\"":[\""1 <br/><b>Not aggressive at all</b>\"",\""2\"",\""3\"",\""4\"",\""5\"",\""6\"",\""7\"",\""8\"",\""9  <br/><b>Extremely aggressive</b>\""],\""required\"":true}]"", ""task_unique_trial"": 100, ""task_name"": ""aggressive-modifae-single"", ""trial_index"": 98, ""isRepeat"": 0}"
A1P0M5D9IGZIDK:3RANCT1ZVHOLG4CVK2MK6KBVQFXUBH,99,1548238204426,"{""rt"": 3974, ""trial_type"": ""face-likert-amanda"", ""debug_mode"": ""live"", ""task_type"": ""face trials"", ""responses"": ""{\""Q0\"":4}"", ""task_payment"": 1, ""task_version"": 1, ""internal_node_id"": ""0.0-10.0-0.0-9.0"", ""time_elapsed"": 377157, ""imgName"": ""/static/images/modifae_new_linspace/aggressive/012864_0.2803030303030303.png"", ""questions"": ""[{\""prompt\"":\""<p>How <b>aggressive</b> does this person look to <b>most people</b>? Rate from 1-9</p>\"",\""labels\"":[\""1 <br/><b>Not aggressive at all</b>\"",\""2\"",\""3\"",\""4\"",\""5\"",\""6\"",\""7\"",\""8\"",\""9  <br/><b>Extremely aggressive</b>\""],\""required\"":true}]"", ""task_unique_trial"": 100, ""task_name"": ""aggressive-modifae-single"", ""trial_index"": 99, ""isRepeat"": 0}"
A1P0M5D9IGZIDK:3RANCT1ZVHOLG4CVK2MK6KBVQFXUBH,100,1548238205429,"{""rt"": null, ""trial_type"": ""html-keyboard-response"", ""task_unique_trial"": 100, ""stimulus"": ""<p>Good job!</p>"", ""task_version"": 1, ""internal_node_id"": ""0.0-10.0-1.0"", ""task_payment"": 1, ""time_elapsed"": 378160, ""debug_mode"": ""live"", ""key_press"": null, ""task_name"": ""aggressive-modifae-single"", ""trial_index"": 100}"
A1P0M5D9IGZIDK:3RANCT1ZVHOLG4CVK2MK6KBVQFXUBH,101,1548238211103,"{""rt"": 5671, ""trial_type"": ""face-likert-amanda"", ""debug_mode"": ""live"", ""task_type"": ""face trials"", ""responses"": ""{\""Q0\"":2}"", ""task_payment"": 1, ""task_version"": 1, ""internal_node_id"": ""0.0-11.0-0.0-0.0"", ""time_elapsed"": 383834, ""imgName"": ""/static/images/modifae_new_linspace/aggressive/141261_0.18939393939393945.png"", ""questions"": ""[{\""prompt\"":\""<p>How <b>aggressive</b> does this person look to <b>most people</b>? Rate from 1-9</p>\"",\""labels\"":[\""1 <br/><b>Not aggressive at all</b>\"",\""2\"",\""3\"",\""4\"",\""5\"",\""6\"",\""7\"",\""8\"",\""9  <br/><b>Extremely aggressive</b>\""],\""required\"":true}]"", ""task_unique_trial"": 100, ""task_name"": ""aggressive-modifae-single"", ""trial_index"": 101, ""isRepeat"": 0}"
A1P0M5D9IGZIDK:3RANCT1ZVHOLG4CVK2MK6KBVQFXUBH,102,1548238214308,"{""rt"": 3202, ""trial_type"": ""face-likert-amanda"", ""debug_mode"": ""live"", ""task_type"": ""face trials"", ""responses"": ""{\""Q0\"":0}"", ""task_payment"": 1, ""task_version"": 1, ""internal_node_id"": ""0.0-11.0-0.0-1.0"", ""time_elapsed"": 387039, ""imgName"": ""/static/images/modifae_new_linspace/aggressive/026389_-0.022727272727272707.png"", ""questions"": ""[{\""prompt\"":\""<p>How <b>aggressive</b> does this person look to <b>most people</b>? Rate from 1-9</p>\"",\""labels\"":[\""1 <br/><b>Not aggressive at all</b>\"",\""2\"",\""3\"",\""4\"",\""5\"",\""6\"",\""7\"",\""8\"",\""9  <br/><b>Extremely aggressive</b>\""],\""required\"":true}]"", ""task_unique_trial"": 100, ""task_name"": ""aggressive-modifae-single"", ""trial_index"": 102, ""isRepeat"": 0}"
A1P0M5D9IGZIDK:3RANCT1ZVHOLG4CVK2MK6KBVQFXUBH,103,1548238219030,"{""rt"": 4718, ""trial_type"": ""face-likert-amanda"", ""debug_mode"": ""live"", ""task_type"": ""face trials"", ""responses"": ""{\""Q0\"":5}"", ""task_payment"": 1, ""task_version"": 1, ""internal_node_id"": ""0.0-11.0-0.0-2.0"", ""time_elapsed"": 391761, ""imgName"": ""/static/images/modifae_new_linspace/aggressive/042441_-0.75.png"", ""questions"": ""[{\""prompt\"":\""<p>How <b>aggressive</b> does this person look to <b>most people</b>? Rate from 1-9</p>\"",\""labels\"":[\""1 <br/><b>Not aggressive at all</b>\"",\""2\"",\""3\"",\""4\"",\""5\"",\""6\"",\""7\"",\""8\"",\""9  <br/><b>Extremely aggressive</b>\""],\""required\"":true}]"", ""task_unique_trial"": 100, ""task_name"": ""aggressive-modifae-single"", ""trial_index"": 103, ""isRepeat"": 0}"
A1P0M5D9IGZIDK:3RANCT1ZVHOLG4CVK2MK6KBVQFXUBH,104,1548238222462,"{""rt"": 3428, ""trial_type"": ""face-likert-amanda"", ""debug_mode"": ""live"", ""task_type"": ""face trials"", ""responses"": ""{\""Q0\"":2}"", ""task_payment"": 1, ""task_version"": 1, ""internal_node_id"": ""0.0-11.0-0.0-3.0"", ""time_elapsed"": 395193, ""imgName"": ""/static/images/modifae_new_linspace/aggressive/026534_0.21969696969696972.png"", ""questions"": ""[{\""prompt\"":\""<p>How <b>aggressive</b> does this person look to <b>most people</b>? Rate from 1-9</p>\"",\""labels\"":[\""1 <br/><b>Not aggressive at all</b>\"",\""2\"",\""3\"",\""4\"",\""5\"",\""6\"",\""7\"",\""8\"",\""9  <br/><b>Extremely aggressive</b>\""],\""required\"":true}]"", ""task_unique_trial"": 100, ""task_name"": ""aggressive-modifae-single"", ""trial_index"": 104, ""isRepeat"": 0}"
A1P0M5D9IGZIDK:3RANCT1ZVHOLG4CVK2MK6KBVQFXUBH,105,1548238225890,"{""rt"": 3424, ""trial_type"": ""face-likert-amanda"", ""debug_mode"": ""live"", ""task_type"": ""face trials"", ""responses"": ""{\""Q0\"":1}"", ""task_payment"": 1, ""task_version"": 1, ""internal_node_id"": ""0.0-11.0-0.0-4.0"", ""time_elapsed"": 398620, ""imgName"": ""/static/images/modifae_new_linspace/aggressive/127629_0.7045454545454546.png"", ""questions"": ""[{\""prompt\"":\""<p>How <b>aggressive</b> does this person look to <b>most people</b>? Rate from 1-9</p>\"",\""labels\"":[\""1 <br/><b>Not aggressive at all</b>\"",\""2\"",\""3\"",\""4\"",\""5\"",\""6\"",\""7\"",\""8\"",\""9  <br/><b>Extremely aggressive</b>\""],\""required\"":true}]"", ""task_unique_trial"": 100, ""task_name"": ""aggressive-modifae-single"", ""trial_index"": 105, ""isRepeat"": 0}"
A1P0M5D9IGZIDK:3RANCT1ZVHOLG4CVK2MK6KBVQFXUBH,106,1548238228489,"{""rt"": 2598, ""trial_type"": ""face-likert-amanda"", ""debug_mode"": ""live"", ""task_type"": ""face trials"", ""responses"": ""{\""Q0\"":1}"", ""task_payment"": 1, ""task_version"": 1, ""internal_node_id"": ""0.0-11.0-0.0-5.0"", ""time_elapsed"": 401220, ""imgName"": ""/static/images/modifae_new_linspace/aggressive/053178_0.06818181818181823.png"", ""questions"": ""[{\""prompt\"":\""<p>How <b>aggressive</b> does this person look to <b>most people</b>? Rate from 1-9</p>\"",\""labels\"":[\""1 <br/><b>Not aggressive at all</b>\"",\""2\"",\""3\"",\""4\"",\""5\"",\""6\"",\""7\"",\""8\"",\""9  <br/><b>Extremely aggressive</b>\""],\""required\"":true}]"", ""task_unique_trial"": 100, ""task_name"": ""aggressive-modifae-single"", ""trial_index"": 106, ""isRepeat"": 0}"
A1P0M5D9IGZIDK:3RANCT1ZVHOLG4CVK2MK6KBVQFXUBH,107,1548238231043,"{""rt"": 2552, ""trial_type"": ""face-likert-amanda"", ""debug_mode"": ""live"", ""task_type"": ""face trials"", ""responses"": ""{\""Q0\"":0}"", ""task_payment"": 1, ""task_version"": 1, ""internal_node_id"": ""0.0-11.0-0.0-6.0"", ""time_elapsed"": 403774, ""imgName"": ""/static/images/modifae_new_linspace/aggressive/026389_-0.022727272727272707.png"", ""questions"": ""[{\""prompt\"":\""<p>How <b>aggressive</b> does this person look to <b>most people</b>? Rate from 1-9</p>\"",\""labels\"":[\""1 <br/><b>Not aggressive at all</b>\"",\""2\"",\""3\"",\""4\"",\""5\"",\""6\"",\""7\"",\""8\"",\""9  <br/><b>Extremely aggressive</b>\""],\""required\"":true}]"", ""task_unique_trial"": 100, ""task_name"": ""aggressive-modifae-single"", ""trial_index"": 107, ""isRepeat"": 0}"
A1P0M5D9IGZIDK:3RANCT1ZVHOLG4CVK2MK6KBVQFXUBH,108,1548238234702,"{""rt"": 3657, ""trial_type"": ""face-likert-amanda"", ""debug_mode"": ""live"", ""task_type"": ""face trials"", ""responses"": ""{\""Q0\"":5}"", ""task_payment"": 1, ""task_version"": 1, ""internal_node_id"": ""0.0-11.0-0.0-7.0"", ""time_elapsed"": 407433, ""imgName"": ""/static/images/modifae_new_linspace/aggressive/067211_0.5833333333333335.png"", ""questions"": ""[{\""prompt\"":\""<p>How <b>aggressive</b> does this person look to <b>most people</b>? Rate from 1-9</p>\"",\""labels\"":[\""1 <br/><b>Not aggressive at all</b>\"",\""2\"",\""3\"",\""4\"",\""5\"",\""6\"",\""7\"",\""8\"",\""9  <br/><b>Extremely aggressive</b>\""],\""required\"":true}]"", ""task_unique_trial"": 100, ""task_name"": ""aggressive-modifae-single"", ""trial_index"": 108, ""isRepeat"": 0}"
A1P0M5D9IGZIDK:3RANCT1ZVHOLG4CVK2MK6KBVQFXUBH,109,1548238238796,"{""rt"": 4091, ""trial_type"": ""face-likert-amanda"", ""debug_mode"": ""live"", ""task_type"": ""face trials"", ""responses"": ""{\""Q0\"":0}"", ""task_payment"": 1, ""task_version"": 1, ""internal_node_id"": ""0.0-11.0-0.0-8.0"", ""time_elapsed"": 411527, ""imgName"": ""/static/images/modifae_new_linspace/aggressive/167696_0.643939393939394.png"", ""questions"": ""[{\""prompt\"":\""<p>How <b>aggressive</b> does this person look to <b>most people</b>? Rate from 1-9</p>\"",\""labels\"":[\""1 <br/><b>Not aggressive at all</b>\"",\""2\"",\""3\"",\""4\"",\""5\"",\""6\"",\""7\"",\""8\"",\""9  <br/><b>Extremely aggressive</b>\""],\""required\"":true}]"", ""task_unique_trial"": 100, ""task_name"": ""aggressive-modifae-single"", ""trial_index"": 109, ""isRepeat"": 0}"
A1P0M5D9IGZIDK:3RANCT1ZVHOLG4CVK2MK6KBVQFXUBH,110,1548238241738,"{""rt"": 2939, ""trial_type"": ""face-likert-amanda"", ""debug_mode"": ""live"", ""task_type"": ""face trials"", ""responses"": ""{\""Q0\"":1}"", ""task_payment"": 1, ""task_version"": 1, ""internal_node_id"": ""0.0-11.0-0.0-9.0"", ""time_elapsed"": 414469, ""imgName"": ""/static/images/modifae_new_linspace/aggressive/127629_0.7045454545454546.png"", ""questions"": ""[{\""prompt\"":\""<p>How <b>aggressive</b> does this person look to <b>most people</b>? Rate from 1-9</p>\"",\""labels\"":[\""1 <br/><b>Not aggressive at all</b>\"",\""2\"",\""3\"",\""4\"",\""5\"",\""6\"",\""7\"",\""8\"",\""9  <br/><b>Extremely aggressive</b>\""],\""required\"":true}]"", ""task_unique_trial"": 100, ""task_name"": ""aggressive-modifae-single"", ""trial_index"": 110, ""isRepeat"": 0}"
A1P0M5D9IGZIDK:3RANCT1ZVHOLG4CVK2MK6KBVQFXUBH,111,1548238243739,"{""rt"": null, ""trial_type"": ""html-keyboard-response"", ""task_unique_trial"": 100, ""stimulus"": ""<p>Good job!</p>"", ""task_version"": 1, ""internal_node_id"": ""0.0-11.0-1.0"", ""task_payment"": 1, ""time_elapsed"": 416470, ""debug_mode"": ""live"", ""key_press"": null, ""task_name"": ""aggressive-modifae-single"", ""trial_index"": 111}"
A1P0M5D9IGZIDK:3RANCT1ZVHOLG4CVK2MK6KBVQFXUBH,112,1548238302230,"{""rt"": 58486, ""trial_type"": ""survey-text-req"", ""task_type"": ""feedback for HIT"", ""responses"": ""{\""Q0\"":\""The task was stressful as I felt that I had to agree with the majority with a high degree of accuracy in order to be paid. I also found it difficult to use the entire scale as most individuals did not look aggressive at all, or only very slightly.\""}"", ""task_payment"": 1, ""task_version"": 1, ""internal_node_id"": ""0.0-12.0"", ""time_elapsed"": 474961, ""debug_mode"": ""live"", ""task_name"": ""aggressive-modifae-single"", ""task_unique_trial"": 100, ""trial_index"": 112}"
A25PFSORDO3SWQ:38JBBYETQQHK69U0FNXSUOJMUZNE4F,0,1548238067778,"{""rt"": 24990, ""trial_type"": ""instructions"", ""view_history"": ""[{\""page_index\"":0,\""viewing_time\"":11830},{\""page_index\"":1,\""viewing_time\"":7212},{\""page_index\"":2,\""viewing_time\"":5946}]"", ""task_type"": ""instruction"", ""task_payment"": 1, ""task_version"": 1, ""internal_node_id"": ""0.0-0.0"", ""time_elapsed"": 24992, ""debug_mode"": ""live"", ""task_name"": ""aggressive-modifae-single"", ""task_unique_trial"": 100, ""trial_index"": 0}"
A25PFSORDO3SWQ:38JBBYETQQHK69U0FNXSUOJMUZNE4F,1,1548238085973,"{""rt"": 18187, ""trial_type"": ""survey-multi-choice"", ""task_type"": ""demographic-multichoice"", ""responses"": ""{\""Q0\"":\""26-35\"",\""Q1\"":\""Male\"",\""Q2\"":\""No\"",\""Q3\"":\""1\"",\""Q4\"":\""White\"",\""Q5\"":\""Bachelor&#8217;s degree (e.g. BA, BS) or above\"",\""Q6\"":\""Less than $20,000\""}"", ""task_payment"": 1, ""task_version"": 1, ""time_elapsed"": 43187, ""sanity_check_1_continue"": true, ""random_num"": 1, ""debug_mode"": ""live"", ""questions"": ""[{\""prompt\"":\""What is your age?\"",\""options\"":[\""Under 18\"",\""18-25\"",\""26-35\"",\""36-45\"",\""46-55\"",\""56+\""],\""required\"":true},{\""prompt\"":\""What is your gender?\"",\""options\"":[\""Male\"",\""Female\"",\""Other/Prefer not to say\""],\""required\"":true},{\""prompt\"":\""Are you of Hispanic, Latino, or Spanish origin?\"",\""options\"":[\""Yes\"",\""No\""],\""required\"":true},{\""prompt\"":\""Please choose the option that matches the number here: 1\"",\""options\"":[\""1\"",\""2\"",\""3\"",\""4\""],\""required\"":true},{\""prompt\"":\""How would you describe yourself?\"",\""options\"":[\""American Indian or Alaskan Native\"",\""Asian\"",\""Black or African-American\"",\""Native Hawaiian or Other Pacific Islander\"",\""White\""],\""required\"":true},{\""prompt\"":\""What is the highest degree or level of school you have completed? (If you&#8217;re currently enrolled in school, please indicate the highest degree you have received)\"",\""options\"":[\""Less than a high school diploma\"",\""High school degree or equivalent (e.g. GED)\"",\""Some college, no degree\"",\""Associate degree (e.g. AA, AS)\"",\""Bachelor&#8217;s degree (e.g. BA, BS) or above\""],\""required\"":true},{\""prompt\"":\""What is the total income of all members of your household?\"",\""options\"":[\""Less than $20,000\"",\""$20,000  - $49,999\"",\""$50,000 - $74,999\"",\""$75,000 and above\""],\""required\"":true}]"", ""internal_node_id"": ""0.0-1.0-0.0"", ""task_unique_trial"": 100, ""task_name"": ""aggressive-modifae-single"", ""trial_index"": 1}"
A25PFSORDO3SWQ:38JBBYETQQHK69U0FNXSUOJMUZNE4F,2,1548238093687,"{""rt"": 7713, ""trial_type"": ""face-likert-amanda"", ""debug_mode"": ""live"", ""task_type"": ""face trials"", ""responses"": ""{\""Q0\"":0}"", ""task_payment"": 1, ""task_version"": 1, ""internal_node_id"": ""0.0-2.0-0.0-0.0"", ""time_elapsed"": 50901, ""imgName"": ""/static/images/modifae_new_linspace/aggressive/026389_-0.022727272727272707.png"", ""questions"": ""[{\""prompt\"":\""<p>How <b>aggressive</b> does this person look to <b>most people</b>? Rate from 1-9</p>\"",\""labels\"":[\""1 <br/><b>Not aggressive at all</b>\"",\""2\"",\""3\"",\""4\"",\""5\"",\""6\"",\""7\"",\""8\"",\""9  <br/><b>Extremely aggressive</b>\""],\""required\"":true}]"", ""task_unique_trial"": 100, ""task_name"": ""aggressive-modifae-single"", ""trial_index"": 2, ""isRepeat"": 0}"
A25PFSORDO3SWQ:38JBBYETQQHK69U0FNXSUOJMUZNE4F,3,1548238098919,"{""rt"": 5230, ""trial_type"": ""face-likert-amanda"", ""debug_mode"": ""live"", ""task_type"": ""face trials"", ""responses"": ""{\""Q0\"":2}"", ""task_payment"": 1, ""task_version"": 1, ""internal_node_id"": ""0.0-2.0-0.0-1.0"", ""time_elapsed"": 56133, ""imgName"": ""/static/images/modifae_new_linspace/aggressive/010202_-0.32575757575757575.png"", ""questions"": ""[{\""prompt\"":\""<p>How <b>aggressive</b> does this person look to <b>most people</b>? Rate from 1-9</p>\"",\""labels\"":[\""1 <br/><b>Not aggressive at all</b>\"",\""2\"",\""3\"",\""4\"",\""5\"",\""6\"",\""7\"",\""8\"",\""9  <br/><b>Extremely aggressive</b>\""],\""required\"":true}]"", ""task_unique_trial"": 100, ""task_name"": ""aggressive-modifae-single"", ""trial_index"": 3, ""isRepeat"": 0}"
A25PFSORDO3SWQ:38JBBYETQQHK69U0FNXSUOJMUZNE4F,4,1548238102141,"{""rt"": 3221, ""trial_type"": ""face-likert-amanda"", ""debug_mode"": ""live"", ""task_type"": ""face trials"", ""responses"": ""{\""Q0\"":4}"", ""task_payment"": 1, ""task_version"": 1, ""internal_node_id"": ""0.0-2.0-0.0-2.0"", ""time_elapsed"": 59355, ""imgName"": ""/static/images/modifae_new_linspace/aggressive/113917_-0.25.png"", ""questions"": ""[{\""prompt\"":\""<p>How <b>aggressive</b> does this person look to <b>most people</b>? Rate from 1-9</p>\"",\""labels\"":[\""1 <br/><b>Not aggressive at all</b>\"",\""2\"",\""3\"",\""4\"",\""5\"",\""6\"",\""7\"",\""8\"",\""9  <br/><b>Extremely aggressive</b>\""],\""required\"":true}]"", ""task_unique_trial"": 100, ""task_name"": ""aggressive-modifae-single"", ""trial_index"": 4, ""isRepeat"": 0}"
A25PFSORDO3SWQ:38JBBYETQQHK69U0FNXSUOJMUZNE4F,5,1548238106512,"{""rt"": 4370, ""trial_type"": ""face-likert-amanda"", ""debug_mode"": ""live"", ""task_type"": ""face trials"", ""responses"": ""{\""Q0\"":1}"", ""task_payment"": 1, ""task_version"": 1, ""internal_node_id"": ""0.0-2.0-0.0-3.0"", ""time_elapsed"": 63726, ""imgName"": ""/static/images/modifae_new_linspace/aggressive/044525_0.4015151515151516.png"", ""questions"": ""[{\""prompt\"":\""<p>How <b>aggressive</b> does this person look to <b>most people</b>? Rate from 1-9</p>\"",\""labels\"":[\""1 <br/><b>Not aggressive at all</b>\"",\""2\"",\""3\"",\""4\"",\""5\"",\""6\"",\""7\"",\""8\"",\""9  <br/><b>Extremely aggressive</b>\""],\""required\"":true}]"", ""task_unique_trial"": 100, ""task_name"": ""aggressive-modifae-single"", ""trial_index"": 5, ""isRepeat"": 0}"
A25PFSORDO3SWQ:38JBBYETQQHK69U0FNXSUOJMUZNE4F,6,1548238109717,"{""rt"": 3204, ""trial_type"": ""face-likert-amanda"", ""debug_mode"": ""live"", ""task_type"": ""face trials"", ""responses"": ""{\""Q0\"":3}"", ""task_payment"": 1, ""task_version"": 1, ""internal_node_id"": ""0.0-2.0-0.0-4.0"", ""time_elapsed"": 66931, ""imgName"": ""/static/images/modifae_new_linspace/aggressive/144397_0.26515151515151514.png"", ""questions"": ""[{\""prompt\"":\""<p>How <b>aggressive</b> does this person look to <b>most people</b>? Rate from 1-9</p>\"",\""labels\"":[\""1 <br/><b>Not aggressive at all</b>\"",\""2\"",\""3\"",\""4\"",\""5\"",\""6\"",\""7\"",\""8\"",\""9  <br/><b>Extremely aggressive</b>\""],\""required\"":true}]"", ""task_unique_trial"": 100, ""task_name"": ""aggressive-modifae-single"", ""trial_index"": 6, ""isRepeat"": 0}"
A25PFSORDO3SWQ:38JBBYETQQHK69U0FNXSUOJMUZNE4F,7,1548238112983,"{""rt"": 3266, ""trial_type"": ""face-likert-amanda"", ""debug_mode"": ""live"", ""task_type"": ""face trials"", ""responses"": ""{\""Q0\"":0}"", ""task_payment"": 1, ""task_version"": 1, ""internal_node_id"": ""0.0-2.0-0.0-5.0"", ""time_elapsed"": 70197, ""imgName"": ""/static/images/modifae_new_linspace/aggressive/027333_-0.6287878787878788.png"", ""questions"": ""[{\""prompt\"":\""<p>How <b>aggressive</b> does this person look to <b>most people</b>? Rate from 1-9</p>\"",\""labels\"":[\""1 <br/><b>Not aggressive at all</b>\"",\""2\"",\""3\"",\""4\"",\""5\"",\""6\"",\""7\"",\""8\"",\""9  <br/><b>Extremely aggressive</b>\""],\""required\"":true}]"", ""task_unique_trial"": 100, ""task_name"": ""aggressive-modifae-single"", ""trial_index"": 7, ""isRepeat"": 0}"
A25PFSORDO3SWQ:38JBBYETQQHK69U0FNXSUOJMUZNE4F,8,1548238115758,"{""rt"": 2775, ""trial_type"": ""face-likert-amanda"", ""debug_mode"": ""live"", ""task_type"": ""face trials"", ""responses"": ""{\""Q0\"":5}"", ""task_payment"": 1, ""task_version"": 1, ""internal_node_id"": ""0.0-2.0-0.0-6.0"", ""time_elapsed"": 72972, ""imgName"": ""/static/images/modifae_new_linspace/aggressive/164278_-0.3409090909090909.png"", ""questions"": ""[{\""prompt\"":\""<p>How <b>aggressive</b> does this person look to <b>most people</b>? Rate from 1-9</p>\"",\""labels\"":[\""1 <br/><b>Not aggressive at all</b>\"",\""2\"",\""3\"",\""4\"",\""5\"",\""6\"",\""7\"",\""8\"",\""9  <br/><b>Extremely aggressive</b>\""],\""required\"":true}]"", ""task_unique_trial"": 100, ""task_name"": ""aggressive-modifae-single"", ""trial_index"": 8, ""isRepeat"": 0}"
