,subId,rt,imgName,isRepeat,rating,trial_index
0,AA4JYAPLYB6QT:3IHR8NYAM98O30JQO1D3O0IPQZO4PR,6706,/static/images/faces/empty-image-1.jpg,False,5,6
1,AA4JYAPLYB6QT:3IHR8NYAM98O30JQO1D3O0IPQZO4PR,6257,/static/images/2kfaces/Google_1_Kenneth Cabral_19_oval.jpg,0,8,8
2,AA4JYAPLYB6QT:3IHR8NYAM98O30JQO1D3O0IPQZO4PR,3712,/static/images/2kfaces/Google_1_Gary Nance_3_oval.jpg,0,4,9
3,AA4JYAPLYB6QT:3IHR8NYAM98O30JQO1D3O0IPQZO4PR,3759,/static/images/2kfaces/Google_1_Victoria Ambrose_17_oval.jpg,0,5,10
4,AA4JYAPLYB6QT:3IHR8NYAM98O30JQO1D3O0IPQZO4PR,4251,/static/images/2kfaces/Google_1_Claudia Rohrer_13_oval.jpg,0,3,11
5,AA4JYAPLYB6QT:3IHR8NYAM98O30JQO1D3O0IPQZO4PR,2531,/static/images/2kfaces/Google_1_Frank Luke_9_oval.jpg,0,4,12
6,AA4JYAPLYB6QT:3IHR8NYAM98O30JQO1D3O0IPQZO4PR,2114,/static/images/2kfaces/Google_1_Gregory Arriola_3_oval.jpg,0,4,13
7,AA4JYAPLYB6QT:3IHR8NYAM98O30JQO1D3O0IPQZO4PR,2522,/static/images/2kfaces/Google_1_Louis Mceachern_7_oval.jpg,0,7,14
8,AA4JYAPLYB6QT:3IHR8NYAM98O30JQO1D3O0IPQZO4PR,3836,/static/images/2kfaces/Google_1_Sean Raleigh_7_oval.jpg,0,5,15
9,AA4JYAPLYB6QT:3IHR8NYAM98O30JQO1D3O0IPQZO4PR,2553,/static/images/2kfaces/Google_1_Norman Westfall_5_oval.jpg,0,4,16
10,AA4JYAPLYB6QT:3IHR8NYAM98O30JQO1D3O0IPQZO4PR,1759,/static/images/2kfaces/Google_1_Jeffery Mcclinton_7-oval.jpg,0,6,17
11,AA4JYAPLYB6QT:3IHR8NYAM98O30JQO1D3O0IPQZO4PR,1633,/static/images/2kfaces/Google_1_Cindy Morehead_5_oval.jpg,0,5,18
12,AA4JYAPLYB6QT:3IHR8NYAM98O30JQO1D3O0IPQZO4PR,2100,/static/images/2kfaces/Google_1_Claudia Olivarez_9_oval.jpg,0,4,19
13,AA4JYAPLYB6QT:3IHR8NYAM98O30JQO1D3O0IPQZO4PR,1445,/static/images/2kfaces/Google_1_Sara Guajardo_1_oval.jpg,0,5,20
14,AA4JYAPLYB6QT:3IHR8NYAM98O30JQO1D3O0IPQZO4PR,2412,/static/images/2kfaces/Google_1_Carole Bentley_7_oval.jpg,0,3,21
15,AA4JYAPLYB6QT:3IHR8NYAM98O30JQO1D3O0IPQZO4PR,2351,/static/images/2kfaces/Google_1_Rose Barlow_1_oval.jpg,0,3,22
16,AA4JYAPLYB6QT:3IHR8NYAM98O30JQO1D3O0IPQZO4PR,1874,/static/images/2kfaces/Google_1_Belinda Dupuis_9_oval.jpg,0,4,23
17,AA4JYAPLYB6QT:3IHR8NYAM98O30JQO1D3O0IPQZO4PR,2084,/static/images/2kfaces/Brian_Mach_1_oval.jpg,0,5,24
18,AA4JYAPLYB6QT:3IHR8NYAM98O30JQO1D3O0IPQZO4PR,2965,/static/images/2kfaces/Google_1_Steve Stamm_1_oval.jpg,0,4,25
19,AA4JYAPLYB6QT:3IHR8NYAM98O30JQO1D3O0IPQZO4PR,2988,/static/images/2kfaces/Google_1_Veronica Percy_7_oval.jpg,0,3,26
20,AA4JYAPLYB6QT:3IHR8NYAM98O30JQO1D3O0IPQZO4PR,3588,/static/images/2kfaces/Google_1_Mark Houser_17_oval.jpg,0,4,27
21,AA4JYAPLYB6QT:3IHR8NYAM98O30JQO1D3O0IPQZO4PR,1991,/static/images/2kfaces/Google_1_Sherry Mcmichael_11_oval.jpg,0,4,28
22,AA4JYAPLYB6QT:3IHR8NYAM98O30JQO1D3O0IPQZO4PR,2608,/static/images/2kfaces/Google_1_Eric Osuna_3_oval.jpg,0,3,29
23,AA4JYAPLYB6QT:3IHR8NYAM98O30JQO1D3O0IPQZO4PR,2745,/static/images/2kfaces/Google_1_Gertrude Bayne_11_oval.jpg,0,4,30
24,AA4JYAPLYB6QT:3IHR8NYAM98O30JQO1D3O0IPQZO4PR,2450,/static/images/2kfaces/Google_1_Henry Gumm_19_oval.jpg,0,2,31
25,AA4JYAPLYB6QT:3IHR8NYAM98O30JQO1D3O0IPQZO4PR,2373,/static/images/2kfaces/Google_1_Samuel Paschal_17_oval.jpg,0,3,32
26,AA4JYAPLYB6QT:3IHR8NYAM98O30JQO1D3O0IPQZO4PR,2466,/static/images/2kfaces/Google_1_Rodney Wyant_13_oval.jpg,0,2,33
27,AA4JYAPLYB6QT:3IHR8NYAM98O30JQO1D3O0IPQZO4PR,2833,/static/images/2kfaces/Google_1_Jose Monaghan_9_oval.jpg,0,6,34
28,AA4JYAPLYB6QT:3IHR8NYAM98O30JQO1D3O0IPQZO4PR,2795,/static/images/2kfaces/Google_1_Kara Mickelson_13_oval.jpg,0,4,35
29,AA4JYAPLYB6QT:3IHR8NYAM98O30JQO1D3O0IPQZO4PR,3058,/static/images/2kfaces/Bryan_Shanklin_9_oval.jpg,0,3,36
30,AA4JYAPLYB6QT:3IHR8NYAM98O30JQO1D3O0IPQZO4PR,2287,/static/images/2kfaces/Google_1_Alma Poor_7_oval.jpg,0,2,37
31,AA4JYAPLYB6QT:3IHR8NYAM98O30JQO1D3O0IPQZO4PR,3160,/static/images/2kfaces/Google_1_Wilma Allman_15_oval.jpg,0,6,38
32,AA4JYAPLYB6QT:3IHR8NYAM98O30JQO1D3O0IPQZO4PR,1601,/static/images/2kfaces/Google_1_Diana Bateman_7_oval.jpg,0,5,39
33,AA4JYAPLYB6QT:3IHR8NYAM98O30JQO1D3O0IPQZO4PR,2528,/static/images/2kfaces/Google_1_Leonard Overcash_5_oval.jpg,0,8,40
34,AA4JYAPLYB6QT:3IHR8NYAM98O30JQO1D3O0IPQZO4PR,2561,/static/images/2kfaces/Google_1_Andrew Diggs_9_oval.jpg,0,7,41
35,AA4JYAPLYB6QT:3IHR8NYAM98O30JQO1D3O0IPQZO4PR,2512,/static/images/2kfaces/Google_1_Timothy Galvan_11_oval.jpg,0,5,42
36,AA4JYAPLYB6QT:3IHR8NYAM98O30JQO1D3O0IPQZO4PR,3464,/static/images/2kfaces/Google_1_Russell Gillam_17_oval.jpg,0,2,43
37,AA4JYAPLYB6QT:3IHR8NYAM98O30JQO1D3O0IPQZO4PR,3422,/static/images/2kfaces/Google_1_Sarah Woodcock_3_oval.jpg,0,2,44
38,AA4JYAPLYB6QT:3IHR8NYAM98O30JQO1D3O0IPQZO4PR,2497,/static/images/2kfaces/Google_1_Donald Shaw_13_oval.jpg,0,5,45
39,AA4JYAPLYB6QT:3IHR8NYAM98O30JQO1D3O0IPQZO4PR,2591,/static/images/2kfaces/Google_1_Vera Becker_5_oval.jpg,0,4,46
40,AA4JYAPLYB6QT:3IHR8NYAM98O30JQO1D3O0IPQZO4PR,3454,/static/images/2kfaces/Google_1_Frank Whitehouse_3_oval.jpg,0,8,47
41,AA4JYAPLYB6QT:3IHR8NYAM98O30JQO1D3O0IPQZO4PR,2096,/static/images/2kfaces/Google_1_Molly Palm_5_oval.jpg,0,4,49
42,AA4JYAPLYB6QT:3IHR8NYAM98O30JQO1D3O0IPQZO4PR,1466,/static/images/2kfaces/Google_1_Donna Asberry_5_oval.jpg,0,3,50
43,AA4JYAPLYB6QT:3IHR8NYAM98O30JQO1D3O0IPQZO4PR,2012,/static/images/2kfaces/Google_1_Leonard True_5_oval.jpg,0,6,51
44,AA4JYAPLYB6QT:3IHR8NYAM98O30JQO1D3O0IPQZO4PR,2303,/static/images/2kfaces/Google_1_Florence Melton_1_oval.jpg,0,4,52
45,AA4JYAPLYB6QT:3IHR8NYAM98O30JQO1D3O0IPQZO4PR,2031,/static/images/2kfaces/Google_1_Shelia Latham_17_oval.jpg,0,4,53
46,AA4JYAPLYB6QT:3IHR8NYAM98O30JQO1D3O0IPQZO4PR,2885,/static/images/2kfaces/Google_1_Marjorie Rule_3_oval.jpg,0,4,54
47,AA4JYAPLYB6QT:3IHR8NYAM98O30JQO1D3O0IPQZO4PR,2558,/static/images/2kfaces/Google_1_Gloria Canada_13_oval.jpg,0,3,55
48,AA4JYAPLYB6QT:3IHR8NYAM98O30JQO1D3O0IPQZO4PR,2480,/static/images/2kfaces/Google_1_Florence Lott_19_oval.jpg,0,2,56
49,AA4JYAPLYB6QT:3IHR8NYAM98O30JQO1D3O0IPQZO4PR,2240,/static/images/2kfaces/Alice_Mckellar_11_oval.jpg,0,3,57
50,AA4JYAPLYB6QT:3IHR8NYAM98O30JQO1D3O0IPQZO4PR,2340,/static/images/2kfaces/Google_1_Billy Kiely_1_oval.jpg,0,6,58
51,AA4JYAPLYB6QT:3IHR8NYAM98O30JQO1D3O0IPQZO4PR,2746,/static/images/2kfaces/Google_1_Stanley Kato_17_oval.jpg,0,7,59
52,AA4JYAPLYB6QT:3IHR8NYAM98O30JQO1D3O0IPQZO4PR,1796,/static/images/2kfaces/Google_1_Beth Hollister_3_oval.jpg,0,4,60
53,AA4JYAPLYB6QT:3IHR8NYAM98O30JQO1D3O0IPQZO4PR,2900,/static/images/2kfaces/Google_1_Stephen Conley_1_oval.jpg,0,7,61
54,AA4JYAPLYB6QT:3IHR8NYAM98O30JQO1D3O0IPQZO4PR,3619,/static/images/2kfaces/Google_1_Stanley Rowden_19_oval.jpg,0,5,62
55,AA4JYAPLYB6QT:3IHR8NYAM98O30JQO1D3O0IPQZO4PR,4735,/static/images/2kfaces/Google_1_Jonathan Marek_5_oval.jpg,0,4,63
56,AA4JYAPLYB6QT:3IHR8NYAM98O30JQO1D3O0IPQZO4PR,1857,/static/images/2kfaces/Google_1_Antonio Benn_12_oval.jpg,0,4,64
57,AA4JYAPLYB6QT:3IHR8NYAM98O30JQO1D3O0IPQZO4PR,2951,/static/images/2kfaces/Google_1_Douglas Tanguay_9_oval.jpg,0,3,65
58,AA4JYAPLYB6QT:3IHR8NYAM98O30JQO1D3O0IPQZO4PR,2800,/static/images/2kfaces/Google_1_Tina Middleton_7_oval.jpg,0,3,66
59,AA4JYAPLYB6QT:3IHR8NYAM98O30JQO1D3O0IPQZO4PR,2908,/static/images/2kfaces/Google_1_Samuel Goff_1_oval.jpg,0,5,67
60,AA4JYAPLYB6QT:3IHR8NYAM98O30JQO1D3O0IPQZO4PR,2974,/static/images/2kfaces/Google_1_Colleen Summer_5_oval.jpg,0,3,68
61,AA4JYAPLYB6QT:3IHR8NYAM98O30JQO1D3O0IPQZO4PR,1987,/static/images/2kfaces/Google_1_Matthew Vanbuskirk_1_oval.jpg,0,2,69
62,AA4JYAPLYB6QT:3IHR8NYAM98O30JQO1D3O0IPQZO4PR,2435,/static/images/2kfaces/Google_1_Valerie Noble_9_oval.jpg,0,2,70
63,AA4JYAPLYB6QT:3IHR8NYAM98O30JQO1D3O0IPQZO4PR,2474,/static/images/2kfaces/Google_1_Charlotte Dearborn_13_oval.jpg,0,6,71
64,AA4JYAPLYB6QT:3IHR8NYAM98O30JQO1D3O0IPQZO4PR,2028,/static/images/2kfaces/Google_1_Gary Perri_3_oval.jpg,0,3,72
65,AA4JYAPLYB6QT:3IHR8NYAM98O30JQO1D3O0IPQZO4PR,2550,/static/images/2kfaces/Google_1_Eva Kirkman_15_oval.jpg,0,3,73
66,AA4JYAPLYB6QT:3IHR8NYAM98O30JQO1D3O0IPQZO4PR,2272,/static/images/2kfaces/Google_1_Mark Detwiler_9_oval.jpg,0,2,74
67,AA4JYAPLYB6QT:3IHR8NYAM98O30JQO1D3O0IPQZO4PR,2520,/static/images/2kfaces/Google_1_Ernest Crump_3_oval.jpg,0,1,75
68,AA4JYAPLYB6QT:3IHR8NYAM98O30JQO1D3O0IPQZO4PR,2964,/static/images/2kfaces/Google_1_Bryan Brunner_3_oval.jpg,0,4,76
69,AA4JYAPLYB6QT:3IHR8NYAM98O30JQO1D3O0IPQZO4PR,2139,/static/images/2kfaces/Google_1_Paul Reno_1_oval.jpg,0,4,77
70,AA4JYAPLYB6QT:3IHR8NYAM98O30JQO1D3O0IPQZO4PR,2894,/static/images/2kfaces/Google_1_Erika Fletcher_1_oval.jpg,0,4,78
71,AA4JYAPLYB6QT:3IHR8NYAM98O30JQO1D3O0IPQZO4PR,2332,/static/images/2kfaces/Google_1_Paul Horst_15_oval.jpg,0,4,79
72,AA4JYAPLYB6QT:3IHR8NYAM98O30JQO1D3O0IPQZO4PR,1892,/static/images/2kfaces/Google_1_Cheryl Griffin_15_oval.jpg,0,3,80
73,AA4JYAPLYB6QT:3IHR8NYAM98O30JQO1D3O0IPQZO4PR,2344,/static/images/2kfaces/Google_1_Joshua Lessard_11_oval.jpg,0,5,81
74,AA4JYAPLYB6QT:3IHR8NYAM98O30JQO1D3O0IPQZO4PR,1904,/static/images/2kfaces/Google_1_Kenneth Rigsby_15_oval.jpg,0,6,82
75,AA4JYAPLYB6QT:3IHR8NYAM98O30JQO1D3O0IPQZO4PR,2262,/static/images/2kfaces/Google_1_Ronald Driver_19_oval.jpg,0,7,83
76,AA4JYAPLYB6QT:3IHR8NYAM98O30JQO1D3O0IPQZO4PR,2918,/static/images/2kfaces/Google_1_Shelley Lund_5_oval.jpg,0,7,84
77,AA4JYAPLYB6QT:3IHR8NYAM98O30JQO1D3O0IPQZO4PR,1936,/static/images/2kfaces/Google_1_Jeff Williford_7_oval.jpg,0,6,85
78,AA4JYAPLYB6QT:3IHR8NYAM98O30JQO1D3O0IPQZO4PR,2707,/static/images/2kfaces/Google_1_Amelia Lines_11_oval.jpg,0,3,86
79,AA4JYAPLYB6QT:3IHR8NYAM98O30JQO1D3O0IPQZO4PR,2778,/static/images/2kfaces/Google_1_Ryan Marvel_15_oval.jpg,0,5,87
80,AA4JYAPLYB6QT:3IHR8NYAM98O30JQO1D3O0IPQZO4PR,3404,/static/images/2kfaces/Google_1_Kathleen Sartain_1_oval.jpg,0,3,88
81,AA4JYAPLYB6QT:3IHR8NYAM98O30JQO1D3O0IPQZO4PR,3982,/static/images/2kfaces/Google_1_Jose Monaghan_9_oval.jpg,1,4,91
82,AA4JYAPLYB6QT:3IHR8NYAM98O30JQO1D3O0IPQZO4PR,2051,/static/images/2kfaces/Google_1_Jonathan Marek_5_oval.jpg,1,4,92
83,AA4JYAPLYB6QT:3IHR8NYAM98O30JQO1D3O0IPQZO4PR,2381,/static/images/2kfaces/Google_1_Stephen Conley_1_oval.jpg,1,5,93
84,AA4JYAPLYB6QT:3IHR8NYAM98O30JQO1D3O0IPQZO4PR,2785,/static/images/2kfaces/Google_1_Ronald Driver_19_oval.jpg,1,7,94
85,AA4JYAPLYB6QT:3IHR8NYAM98O30JQO1D3O0IPQZO4PR,2614,/static/images/2kfaces/Google_1_Stanley Kato_17_oval.jpg,1,7,95
86,AA4JYAPLYB6QT:3IHR8NYAM98O30JQO1D3O0IPQZO4PR,2505,/static/images/2kfaces/Google_1_Belinda Dupuis_9_oval.jpg,1,5,96
87,AA4JYAPLYB6QT:3IHR8NYAM98O30JQO1D3O0IPQZO4PR,2279,/static/images/2kfaces/Google_1_Donna Asberry_5_oval.jpg,1,3,97
88,AA4JYAPLYB6QT:3IHR8NYAM98O30JQO1D3O0IPQZO4PR,2418,/static/images/2kfaces/Google_1_Frank Luke_9_oval.jpg,1,3,98
89,AA4JYAPLYB6QT:3IHR8NYAM98O30JQO1D3O0IPQZO4PR,1952,/static/images/2kfaces/Google_1_Claudia Olivarez_9_oval.jpg,1,2,99
90,AA4JYAPLYB6QT:3IHR8NYAM98O30JQO1D3O0IPQZO4PR,1834,/static/images/2kfaces/Google_1_Erika Fletcher_1_oval.jpg,1,2,100
91,AA4JYAPLYB6QT:3IHR8NYAM98O30JQO1D3O0IPQZO4PR,2250,/static/images/2kfaces/Google_1_Kenneth Cabral_19_oval.jpg,1,7,101
92,AA4JYAPLYB6QT:3IHR8NYAM98O30JQO1D3O0IPQZO4PR,2020,/static/images/2kfaces/Google_1_Steve Stamm_1_oval.jpg,1,3,102
93,AA4JYAPLYB6QT:3IHR8NYAM98O30JQO1D3O0IPQZO4PR,1788,/static/images/2kfaces/Google_1_Sara Guajardo_1_oval.jpg,1,3,103
94,AA4JYAPLYB6QT:3IHR8NYAM98O30JQO1D3O0IPQZO4PR,2340,/static/images/2kfaces/Google_1_Ryan Marvel_15_oval.jpg,1,5,104
95,AA4JYAPLYB6QT:3IHR8NYAM98O30JQO1D3O0IPQZO4PR,1880,/static/images/2kfaces/Google_1_Eva Kirkman_15_oval.jpg,1,3,105
96,AA4JYAPLYB6QT:3IHR8NYAM98O30JQO1D3O0IPQZO4PR,1929,/static/images/2kfaces/Google_1_Samuel Paschal_17_oval.jpg,1,2,106
97,AA4JYAPLYB6QT:3IHR8NYAM98O30JQO1D3O0IPQZO4PR,1772,/static/images/2kfaces/Google_1_Russell Gillam_17_oval.jpg,1,3,107
98,AA4JYAPLYB6QT:3IHR8NYAM98O30JQO1D3O0IPQZO4PR,1866,/static/images/2kfaces/Bryan_Shanklin_9_oval.jpg,1,5,108
99,AA4JYAPLYB6QT:3IHR8NYAM98O30JQO1D3O0IPQZO4PR,2292,/static/images/2kfaces/Alice_Mckellar_11_oval.jpg,1,3,109
100,AA4JYAPLYB6QT:3IHR8NYAM98O30JQO1D3O0IPQZO4PR,1726,/static/images/2kfaces/Google_1_Antonio Benn_12_oval.jpg,1,4,110
101,AA4JYAPLYB6QT:3IHR8NYAM98O30JQO1D3O0IPQZO4PR,2122,/static/images/2kfaces/Google_1_Diana Bateman_7_oval.jpg,1,5,111
102,AA4JYAPLYB6QT:3IHR8NYAM98O30JQO1D3O0IPQZO4PR,2465,/static/images/2kfaces/Google_1_Gary Perri_3_oval.jpg,1,3,112
103,AA4JYAPLYB6QT:3IHR8NYAM98O30JQO1D3O0IPQZO4PR,2324,/static/images/2kfaces/Google_1_Kenneth Rigsby_15_oval.jpg,1,2,113
104,AA4JYAPLYB6QT:3IHR8NYAM98O30JQO1D3O0IPQZO4PR,1446,/static/images/2kfaces/Google_1_Paul Reno_1_oval.jpg,1,4,114
105,AA4JYAPLYB6QT:3IHR8NYAM98O30JQO1D3O0IPQZO4PR,1748,/static/images/2kfaces/Google_1_Mark Detwiler_9_oval.jpg,1,3,115
106,AA4JYAPLYB6QT:3IHR8NYAM98O30JQO1D3O0IPQZO4PR,2488,/static/images/2kfaces/Google_1_Timothy Galvan_11_oval.jpg,1,5,116
107,AA4JYAPLYB6QT:3IHR8NYAM98O30JQO1D3O0IPQZO4PR,1959,/static/images/2kfaces/Google_1_Sherry Mcmichael_11_oval.jpg,1,5,117
108,AA4JYAPLYB6QT:3IHR8NYAM98O30JQO1D3O0IPQZO4PR,1748,/static/images/2kfaces/Google_1_Colleen Summer_5_oval.jpg,1,3,118
109,AA4JYAPLYB6QT:3IHR8NYAM98O30JQO1D3O0IPQZO4PR,1951,/static/images/2kfaces/Google_1_Rodney Wyant_13_oval.jpg,1,2,119
110,AA4JYAPLYB6QT:3IHR8NYAM98O30JQO1D3O0IPQZO4PR,2340,/static/images/2kfaces/Google_1_Andrew Diggs_9_oval.jpg,1,7,120
111,AA4JYAPLYB6QT:3IHR8NYAM98O30JQO1D3O0IPQZO4PR,1981,/static/images/2kfaces/Google_1_Molly Palm_5_oval.jpg,1,3,121
112,AA4JYAPLYB6QT:3IHR8NYAM98O30JQO1D3O0IPQZO4PR,2371,/static/images/2kfaces/Google_1_Tina Middleton_7_oval.jpg,1,3,122
113,AA4JYAPLYB6QT:3IHR8NYAM98O30JQO1D3O0IPQZO4PR,2200,/static/images/2kfaces/Google_1_Florence Lott_19_oval.jpg,1,3,123
114,AA4JYAPLYB6QT:3IHR8NYAM98O30JQO1D3O0IPQZO4PR,2653,/static/images/2kfaces/Google_1_Billy Kiely_1_oval.jpg,1,3,124
115,AA4JYAPLYB6QT:3IHR8NYAM98O30JQO1D3O0IPQZO4PR,3126,/static/images/2kfaces/Google_1_Louis Mceachern_7_oval.jpg,1,8,125
116,AA4JYAPLYB6QT:3IHR8NYAM98O30JQO1D3O0IPQZO4PR,2058,/static/images/2kfaces/Google_1_Stanley Rowden_19_oval.jpg,1,3,126
117,AA4JYAPLYB6QT:3IHR8NYAM98O30JQO1D3O0IPQZO4PR,3049,/static/images/2kfaces/Google_1_Joshua Lessard_11_oval.jpg,1,6,127
118,AA4JYAPLYB6QT:3IHR8NYAM98O30JQO1D3O0IPQZO4PR,1692,/static/images/2kfaces/Google_1_Leonard True_5_oval.jpg,1,6,128
119,AA4JYAPLYB6QT:3IHR8NYAM98O30JQO1D3O0IPQZO4PR,2809,/static/images/2kfaces/Google_1_Valerie Noble_9_oval.jpg,1,2,129
120,AA4JYAPLYB6QT:3IHR8NYAM98O30JQO1D3O0IPQZO4PR,1953,/static/images/2kfaces/Google_1_Shelley Lund_5_oval.jpg,1,7,130
121,AA4JYAPLYB6QT:3IHR8NYAM98O30JQO1D3O0IPQZO4PR,2513,/static/images/2kfaces/Google_1_Frank Whitehouse_3_oval.jpg,1,7,132
122,AA4JYAPLYB6QT:3IHR8NYAM98O30JQO1D3O0IPQZO4PR,2756,/static/images/2kfaces/Google_1_Victoria Ambrose_17_oval.jpg,1,2,133
123,AA4JYAPLYB6QT:3IHR8NYAM98O30JQO1D3O0IPQZO4PR,2416,/static/images/2kfaces/Google_1_Sarah Woodcock_3_oval.jpg,1,1,134
124,AA4JYAPLYB6QT:3IHR8NYAM98O30JQO1D3O0IPQZO4PR,2178,/static/images/2kfaces/Google_1_Rose Barlow_1_oval.jpg,1,2,135
125,AA4JYAPLYB6QT:3IHR8NYAM98O30JQO1D3O0IPQZO4PR,2034,/static/images/2kfaces/Google_1_Jeff Williford_7_oval.jpg,1,4,136
126,AA4JYAPLYB6QT:3IHR8NYAM98O30JQO1D3O0IPQZO4PR,1982,/static/images/2kfaces/Brian_Mach_1_oval.jpg,1,5,137
127,AA4JYAPLYB6QT:3IHR8NYAM98O30JQO1D3O0IPQZO4PR,2509,/static/images/2kfaces/Google_1_Gary Nance_3_oval.jpg,1,3,138
128,AA4JYAPLYB6QT:3IHR8NYAM98O30JQO1D3O0IPQZO4PR,2278,/static/images/2kfaces/Google_1_Matthew Vanbuskirk_1_oval.jpg,1,2,139
129,AA4JYAPLYB6QT:3IHR8NYAM98O30JQO1D3O0IPQZO4PR,2013,/static/images/2kfaces/Google_1_Paul Horst_15_oval.jpg,1,3,140
130,AA4JYAPLYB6QT:3IHR8NYAM98O30JQO1D3O0IPQZO4PR,1639,/static/images/2kfaces/Google_1_Florence Melton_1_oval.jpg,1,4,141
131,AA4JYAPLYB6QT:3IHR8NYAM98O30JQO1D3O0IPQZO4PR,1691,/static/images/2kfaces/Google_1_Norman Westfall_5_oval.jpg,1,3,142
132,AA4JYAPLYB6QT:3IHR8NYAM98O30JQO1D3O0IPQZO4PR,1796,/static/images/2kfaces/Google_1_Donald Shaw_13_oval.jpg,1,5,143
133,AA4JYAPLYB6QT:3IHR8NYAM98O30JQO1D3O0IPQZO4PR,1717,/static/images/2kfaces/Google_1_Gregory Arriola_3_oval.jpg,1,4,144
134,AA4JYAPLYB6QT:3IHR8NYAM98O30JQO1D3O0IPQZO4PR,1802,/static/images/2kfaces/Google_1_Claudia Rohrer_13_oval.jpg,1,3,145
135,AA4JYAPLYB6QT:3IHR8NYAM98O30JQO1D3O0IPQZO4PR,2298,/static/images/2kfaces/Google_1_Mark Houser_17_oval.jpg,1,4,146
136,AA4JYAPLYB6QT:3IHR8NYAM98O30JQO1D3O0IPQZO4PR,2679,/static/images/2kfaces/Google_1_Charlotte Dearborn_13_oval.jpg,1,6,147
137,AA4JYAPLYB6QT:3IHR8NYAM98O30JQO1D3O0IPQZO4PR,1988,/static/images/2kfaces/Google_1_Jeffery Mcclinton_7-oval.jpg,1,6,148
138,AA4JYAPLYB6QT:3IHR8NYAM98O30JQO1D3O0IPQZO4PR,2536,/static/images/2kfaces/Google_1_Leonard Overcash_5_oval.jpg,1,9,149
139,AA4JYAPLYB6QT:3IHR8NYAM98O30JQO1D3O0IPQZO4PR,2136,/static/images/2kfaces/Google_1_Gertrude Bayne_11_oval.jpg,1,3,150
140,AA4JYAPLYB6QT:3IHR8NYAM98O30JQO1D3O0IPQZO4PR,2108,/static/images/2kfaces/Google_1_Amelia Lines_11_oval.jpg,1,2,151
141,AA4JYAPLYB6QT:3IHR8NYAM98O30JQO1D3O0IPQZO4PR,2642,/static/images/2kfaces/Google_1_Cheryl Griffin_15_oval.jpg,1,3,152
142,AA4JYAPLYB6QT:3IHR8NYAM98O30JQO1D3O0IPQZO4PR,1716,/static/images/2kfaces/Google_1_Douglas Tanguay_9_oval.jpg,1,2,153
143,AA4JYAPLYB6QT:3IHR8NYAM98O30JQO1D3O0IPQZO4PR,1672,/static/images/2kfaces/Google_1_Alma Poor_7_oval.jpg,1,2,154
144,AA4JYAPLYB6QT:3IHR8NYAM98O30JQO1D3O0IPQZO4PR,1771,/static/images/2kfaces/Google_1_Vera Becker_5_oval.jpg,1,2,155
145,AA4JYAPLYB6QT:3IHR8NYAM98O30JQO1D3O0IPQZO4PR,2284,/static/images/2kfaces/Google_1_Beth Hollister_3_oval.jpg,1,3,156
146,AA4JYAPLYB6QT:3IHR8NYAM98O30JQO1D3O0IPQZO4PR,1912,/static/images/2kfaces/Google_1_Bryan Brunner_3_oval.jpg,1,2,157
147,AA4JYAPLYB6QT:3IHR8NYAM98O30JQO1D3O0IPQZO4PR,2397,/static/images/2kfaces/Google_1_Kathleen Sartain_1_oval.jpg,1,3,158
148,AA4JYAPLYB6QT:3IHR8NYAM98O30JQO1D3O0IPQZO4PR,2051,/static/images/2kfaces/Google_1_Sean Raleigh_7_oval.jpg,1,4,159
149,AA4JYAPLYB6QT:3IHR8NYAM98O30JQO1D3O0IPQZO4PR,2201,/static/images/2kfaces/Google_1_Kara Mickelson_13_oval.jpg,1,3,160
150,AA4JYAPLYB6QT:3IHR8NYAM98O30JQO1D3O0IPQZO4PR,2530,/static/images/2kfaces/Google_1_Shelia Latham_17_oval.jpg,1,2,161
151,AA4JYAPLYB6QT:3IHR8NYAM98O30JQO1D3O0IPQZO4PR,2416,/static/images/2kfaces/Google_1_Samuel Goff_1_oval.jpg,1,4,162
152,AA4JYAPLYB6QT:3IHR8NYAM98O30JQO1D3O0IPQZO4PR,2340,/static/images/2kfaces/Google_1_Eric Osuna_3_oval.jpg,1,4,163
153,AA4JYAPLYB6QT:3IHR8NYAM98O30JQO1D3O0IPQZO4PR,1983,/static/images/2kfaces/Google_1_Henry Gumm_19_oval.jpg,1,2,164
154,AA4JYAPLYB6QT:3IHR8NYAM98O30JQO1D3O0IPQZO4PR,1639,/static/images/2kfaces/Google_1_Marjorie Rule_3_oval.jpg,1,2,165
155,AA4JYAPLYB6QT:3IHR8NYAM98O30JQO1D3O0IPQZO4PR,1623,/static/images/2kfaces/Google_1_Wilma Allman_15_oval.jpg,1,5,166
156,AA4JYAPLYB6QT:3IHR8NYAM98O30JQO1D3O0IPQZO4PR,1882,/static/images/2kfaces/Google_1_Carole Bentley_7_oval.jpg,1,3,167
157,AA4JYAPLYB6QT:3IHR8NYAM98O30JQO1D3O0IPQZO4PR,2480,/static/images/2kfaces/Google_1_Cindy Morehead_5_oval.jpg,1,2,168
158,AA4JYAPLYB6QT:3IHR8NYAM98O30JQO1D3O0IPQZO4PR,2751,/static/images/2kfaces/Google_1_Ernest Crump_3_oval.jpg,1,1,169
159,AA4JYAPLYB6QT:3IHR8NYAM98O30JQO1D3O0IPQZO4PR,2403,/static/images/2kfaces/Google_1_Veronica Percy_7_oval.jpg,1,3,170
160,AA4JYAPLYB6QT:3IHR8NYAM98O30JQO1D3O0IPQZO4PR,1981,/static/images/2kfaces/Google_1_Gloria Canada_13_oval.jpg,1,2,171
161,A3IMB1JAMHP1KK:3IO1LGZLKB4HCVONL847ZC7DXGU86W,17933,/static/images/faces/empty-image-1.jpg,False,4,4
162,A3IMB1JAMHP1KK:3IO1LGZLKB4HCVONL847ZC7DXGU86W,11022,/static/images/2kfaces/Google_1_Ronald Driver_19_oval.jpg,0,6,6
163,A3IMB1JAMHP1KK:3IO1LGZLKB4HCVONL847ZC7DXGU86W,4165,/static/images/2kfaces/Google_1_Leonard Overcash_5_oval.jpg,0,8,7
164,A3IMB1JAMHP1KK:3IO1LGZLKB4HCVONL847ZC7DXGU86W,4382,/static/images/2kfaces/Google_1_Stanley Rowden_19_oval.jpg,0,2,8
165,A3IMB1JAMHP1KK:3IO1LGZLKB4HCVONL847ZC7DXGU86W,4334,/static/images/2kfaces/Google_1_Stephen Conley_1_oval.jpg,0,5,9
166,A3IMB1JAMHP1KK:3IO1LGZLKB4HCVONL847ZC7DXGU86W,3118,/static/images/2kfaces/Google_1_Colleen Summer_5_oval.jpg,0,3,10
167,A3IMB1JAMHP1KK:3IO1LGZLKB4HCVONL847ZC7DXGU86W,4879,/static/images/2kfaces/Google_1_Cheryl Griffin_15_oval.jpg,0,2,11
168,A3IMB1JAMHP1KK:3IO1LGZLKB4HCVONL847ZC7DXGU86W,2685,/static/images/2kfaces/Google_1_Samuel Paschal_17_oval.jpg,0,1,12
169,A3IMB1JAMHP1KK:3IO1LGZLKB4HCVONL847ZC7DXGU86W,3471,/static/images/2kfaces/Google_1_Rose Barlow_1_oval.jpg,0,5,13
170,A3IMB1JAMHP1KK:3IO1LGZLKB4HCVONL847ZC7DXGU86W,6574,/static/images/2kfaces/Google_1_Molly Palm_5_oval.jpg,0,4,14
171,A3IMB1JAMHP1KK:3IO1LGZLKB4HCVONL847ZC7DXGU86W,2838,/static/images/2kfaces/Google_1_Leonard True_5_oval.jpg,0,6,15
172,A3IMB1JAMHP1KK:3IO1LGZLKB4HCVONL847ZC7DXGU86W,3236,/static/images/2kfaces/Google_1_Florence Melton_1_oval.jpg,0,6,16
173,A3IMB1JAMHP1KK:3IO1LGZLKB4HCVONL847ZC7DXGU86W,3006,/static/images/2kfaces/Google_1_Veronica Percy_7_oval.jpg,0,1,17
174,A3IMB1JAMHP1KK:3IO1LGZLKB4HCVONL847ZC7DXGU86W,3214,/static/images/2kfaces/Google_1_Russell Gillam_17_oval.jpg,0,7,18
175,A3IMB1JAMHP1KK:3IO1LGZLKB4HCVONL847ZC7DXGU86W,5214,/static/images/2kfaces/Google_1_Ryan Marvel_15_oval.jpg,0,8,19
176,A3IMB1JAMHP1KK:3IO1LGZLKB4HCVONL847ZC7DXGU86W,3463,/static/images/2kfaces/Google_1_Norman Westfall_5_oval.jpg,0,4,20
177,A3IMB1JAMHP1KK:3IO1LGZLKB4HCVONL847ZC7DXGU86W,2941,/static/images/2kfaces/Google_1_Joshua Lessard_11_oval.jpg,0,5,21
178,A3IMB1JAMHP1KK:3IO1LGZLKB4HCVONL847ZC7DXGU86W,5469,/static/images/2kfaces/Google_1_Vera Becker_5_oval.jpg,0,3,22
179,A3IMB1JAMHP1KK:3IO1LGZLKB4HCVONL847ZC7DXGU86W,3750,/static/images/2kfaces/Google_1_Matthew Vanbuskirk_1_oval.jpg,0,4,23
180,A3IMB1JAMHP1KK:3IO1LGZLKB4HCVONL847ZC7DXGU86W,5638,/static/images/2kfaces/Google_1_Wilma Allman_15_oval.jpg,0,4,24
181,A3IMB1JAMHP1KK:3IO1LGZLKB4HCVONL847ZC7DXGU86W,4494,/static/images/2kfaces/Google_1_Billy Kiely_1_oval.jpg,0,6,25
182,A3IMB1JAMHP1KK:3IO1LGZLKB4HCVONL847ZC7DXGU86W,2389,/static/images/2kfaces/Google_1_Louis Mceachern_7_oval.jpg,0,9,26
183,A3IMB1JAMHP1KK:3IO1LGZLKB4HCVONL847ZC7DXGU86W,5599,/static/images/2kfaces/Google_1_Henry Gumm_19_oval.jpg,0,5,27
184,A3IMB1JAMHP1KK:3IO1LGZLKB4HCVONL847ZC7DXGU86W,3270,/static/images/2kfaces/Google_1_Frank Whitehouse_3_oval.jpg,0,8,28
185,A3IMB1JAMHP1KK:3IO1LGZLKB4HCVONL847ZC7DXGU86W,2757,/static/images/2kfaces/Google_1_Mark Detwiler_9_oval.jpg,0,6,29
186,A3IMB1JAMHP1KK:3IO1LGZLKB4HCVONL847ZC7DXGU86W,2645,/static/images/2kfaces/Google_1_Alma Poor_7_oval.jpg,0,3,30
187,A3IMB1JAMHP1KK:3IO1LGZLKB4HCVONL847ZC7DXGU86W,3695,/static/images/2kfaces/Brian_Mach_1_oval.jpg,0,2,31
188,A3IMB1JAMHP1KK:3IO1LGZLKB4HCVONL847ZC7DXGU86W,11310,/static/images/2kfaces/Google_1_Antonio Benn_12_oval.jpg,0,4,32
189,A3IMB1JAMHP1KK:3IO1LGZLKB4HCVONL847ZC7DXGU86W,2063,/static/images/2kfaces/Google_1_Tina Middleton_7_oval.jpg,0,3,33
190,A3IMB1JAMHP1KK:3IO1LGZLKB4HCVONL847ZC7DXGU86W,2167,/static/images/2kfaces/Google_1_Jose Monaghan_9_oval.jpg,0,6,34
191,A3IMB1JAMHP1KK:3IO1LGZLKB4HCVONL847ZC7DXGU86W,2687,/static/images/2kfaces/Google_1_Marjorie Rule_3_oval.jpg,0,5,35
192,A3IMB1JAMHP1KK:3IO1LGZLKB4HCVONL847ZC7DXGU86W,5424,/static/images/2kfaces/Google_1_Stanley Kato_17_oval.jpg,0,4,36
193,A3IMB1JAMHP1KK:3IO1LGZLKB4HCVONL847ZC7DXGU86W,4908,/static/images/2kfaces/Google_1_Carole Bentley_7_oval.jpg,0,2,37
194,A3IMB1JAMHP1KK:3IO1LGZLKB4HCVONL847ZC7DXGU86W,2621,/static/images/2kfaces/Google_1_Steve Stamm_1_oval.jpg,0,1,38
195,A3IMB1JAMHP1KK:3IO1LGZLKB4HCVONL847ZC7DXGU86W,2482,/static/images/2kfaces/Google_1_Eric Osuna_3_oval.jpg,0,4,39
196,A3IMB1JAMHP1KK:3IO1LGZLKB4HCVONL847ZC7DXGU86W,2261,/static/images/2kfaces/Google_1_Sean Raleigh_7_oval.jpg,0,4,40
197,A3IMB1JAMHP1KK:3IO1LGZLKB4HCVONL847ZC7DXGU86W,2637,/static/images/2kfaces/Google_1_Beth Hollister_3_oval.jpg,0,8,41
198,A3IMB1JAMHP1KK:3IO1LGZLKB4HCVONL847ZC7DXGU86W,2878,/static/images/2kfaces/Google_1_Valerie Noble_9_oval.jpg,0,6,42
199,A3IMB1JAMHP1KK:3IO1LGZLKB4HCVONL847ZC7DXGU86W,2062,/static/images/2kfaces/Google_1_Paul Reno_1_oval.jpg,0,5,43
200,A3IMB1JAMHP1KK:3IO1LGZLKB4HCVONL847ZC7DXGU86W,3636,/static/images/2kfaces/Google_1_Erika Fletcher_1_oval.jpg,0,6,44
201,A3IMB1JAMHP1KK:3IO1LGZLKB4HCVONL847ZC7DXGU86W,5052,/static/images/2kfaces/Alice_Mckellar_11_oval.jpg,0,3,45
202,A3IMB1JAMHP1KK:3IO1LGZLKB4HCVONL847ZC7DXGU86W,8963,/static/images/2kfaces/Google_1_Shelia Latham_17_oval.jpg,0,1,47
203,A3IMB1JAMHP1KK:3IO1LGZLKB4HCVONL847ZC7DXGU86W,2893,/static/images/2kfaces/Google_1_Eva Kirkman_15_oval.jpg,0,3,48
204,A3IMB1JAMHP1KK:3IO1LGZLKB4HCVONL847ZC7DXGU86W,4175,/static/images/2kfaces/Google_1_Rodney Wyant_13_oval.jpg,0,4,49
205,A3IMB1JAMHP1KK:3IO1LGZLKB4HCVONL847ZC7DXGU86W,4517,/static/images/2kfaces/Google_1_Ernest Crump_3_oval.jpg,0,5,50
206,A3IMB1JAMHP1KK:3IO1LGZLKB4HCVONL847ZC7DXGU86W,5364,/static/images/2kfaces/Google_1_Sarah Woodcock_3_oval.jpg,0,6,51
207,A3IMB1JAMHP1KK:3IO1LGZLKB4HCVONL847ZC7DXGU86W,3640,/static/images/2kfaces/Google_1_Florence Lott_19_oval.jpg,0,9,52
208,A3IMB1JAMHP1KK:3IO1LGZLKB4HCVONL847ZC7DXGU86W,2260,/static/images/2kfaces/Google_1_Donald Shaw_13_oval.jpg,0,6,53
209,A3IMB1JAMHP1KK:3IO1LGZLKB4HCVONL847ZC7DXGU86W,2118,/static/images/2kfaces/Google_1_Samuel Goff_1_oval.jpg,0,5,54
210,A3IMB1JAMHP1KK:3IO1LGZLKB4HCVONL847ZC7DXGU86W,3019,/static/images/2kfaces/Google_1_Bryan Brunner_3_oval.jpg,0,3,55
211,A3IMB1JAMHP1KK:3IO1LGZLKB4HCVONL847ZC7DXGU86W,2381,/static/images/2kfaces/Google_1_Paul Horst_15_oval.jpg,0,2,56
212,A3IMB1JAMHP1KK:3IO1LGZLKB4HCVONL847ZC7DXGU86W,2814,/static/images/2kfaces/Google_1_Mark Houser_17_oval.jpg,0,8,57
213,A3IMB1JAMHP1KK:3IO1LGZLKB4HCVONL847ZC7DXGU86W,2148,/static/images/2kfaces/Google_1_Frank Luke_9_oval.jpg,0,7,58
214,A3IMB1JAMHP1KK:3IO1LGZLKB4HCVONL847ZC7DXGU86W,3382,/static/images/2kfaces/Bryan_Shanklin_9_oval.jpg,0,7,59
215,A3IMB1JAMHP1KK:3IO1LGZLKB4HCVONL847ZC7DXGU86W,2213,/static/images/2kfaces/Google_1_Timothy Galvan_11_oval.jpg,0,6,60
216,A3IMB1JAMHP1KK:3IO1LGZLKB4HCVONL847ZC7DXGU86W,2583,/static/images/2kfaces/Google_1_Victoria Ambrose_17_oval.jpg,0,6,61
217,A3IMB1JAMHP1KK:3IO1LGZLKB4HCVONL847ZC7DXGU86W,2599,/static/images/2kfaces/Google_1_Gloria Canada_13_oval.jpg,0,5,62
218,A3IMB1JAMHP1KK:3IO1LGZLKB4HCVONL847ZC7DXGU86W,5398,/static/images/2kfaces/Google_1_Gary Nance_3_oval.jpg,0,6,63
219,A3IMB1JAMHP1KK:3IO1LGZLKB4HCVONL847ZC7DXGU86W,3487,/static/images/2kfaces/Google_1_Kenneth Cabral_19_oval.jpg,0,7,64
220,A3IMB1JAMHP1KK:3IO1LGZLKB4HCVONL847ZC7DXGU86W,2700,/static/images/2kfaces/Google_1_Jonathan Marek_5_oval.jpg,0,7,65
221,A3IMB1JAMHP1KK:3IO1LGZLKB4HCVONL847ZC7DXGU86W,2359,/static/images/2kfaces/Google_1_Claudia Olivarez_9_oval.jpg,0,4,66
222,A3IMB1JAMHP1KK:3IO1LGZLKB4HCVONL847ZC7DXGU86W,2390,/static/images/2kfaces/Google_1_Cindy Morehead_5_oval.jpg,0,3,67
223,A3IMB1JAMHP1KK:3IO1LGZLKB4HCVONL847ZC7DXGU86W,2407,/static/images/2kfaces/Google_1_Kenneth Rigsby_15_oval.jpg,0,5,68
224,A3IMB1JAMHP1KK:3IO1LGZLKB4HCVONL847ZC7DXGU86W,6358,/static/images/2kfaces/Google_1_Diana Bateman_7_oval.jpg,0,2,69
225,A3IMB1JAMHP1KK:3IO1LGZLKB4HCVONL847ZC7DXGU86W,2590,/static/images/2kfaces/Google_1_Amelia Lines_11_oval.jpg,0,1,70
226,A3IMB1JAMHP1KK:3IO1LGZLKB4HCVONL847ZC7DXGU86W,2550,/static/images/2kfaces/Google_1_Gertrude Bayne_11_oval.jpg,0,3,71
227,A3IMB1JAMHP1KK:3IO1LGZLKB4HCVONL847ZC7DXGU86W,3168,/static/images/2kfaces/Google_1_Gregory Arriola_3_oval.jpg,0,5,72
228,A3IMB1JAMHP1KK:3IO1LGZLKB4HCVONL847ZC7DXGU86W,2143,/static/images/2kfaces/Google_1_Kara Mickelson_13_oval.jpg,0,4,73
229,A3IMB1JAMHP1KK:3IO1LGZLKB4HCVONL847ZC7DXGU86W,3449,/static/images/2kfaces/Google_1_Charlotte Dearborn_13_oval.jpg,0,6,74
230,A3IMB1JAMHP1KK:3IO1LGZLKB4HCVONL847ZC7DXGU86W,2075,/static/images/2kfaces/Google_1_Donna Asberry_5_oval.jpg,0,5,75
231,A3IMB1JAMHP1KK:3IO1LGZLKB4HCVONL847ZC7DXGU86W,3158,/static/images/2kfaces/Google_1_Sherry Mcmichael_11_oval.jpg,0,6,76
232,A3IMB1JAMHP1KK:3IO1LGZLKB4HCVONL847ZC7DXGU86W,3092,/static/images/2kfaces/Google_1_Gary Perri_3_oval.jpg,0,3,77
233,A3IMB1JAMHP1KK:3IO1LGZLKB4HCVONL847ZC7DXGU86W,2756,/static/images/2kfaces/Google_1_Belinda Dupuis_9_oval.jpg,0,2,78
234,A3IMB1JAMHP1KK:3IO1LGZLKB4HCVONL847ZC7DXGU86W,4278,/static/images/2kfaces/Google_1_Douglas Tanguay_9_oval.jpg,0,5,79
235,A3IMB1JAMHP1KK:3IO1LGZLKB4HCVONL847ZC7DXGU86W,2422,/static/images/2kfaces/Google_1_Claudia Rohrer_13_oval.jpg,0,1,80
236,A3IMB1JAMHP1KK:3IO1LGZLKB4HCVONL847ZC7DXGU86W,2974,/static/images/2kfaces/Google_1_Jeff Williford_7_oval.jpg,0,4,81
237,A3IMB1JAMHP1KK:3IO1LGZLKB4HCVONL847ZC7DXGU86W,3190,/static/images/2kfaces/Google_1_Andrew Diggs_9_oval.jpg,0,7,82
238,A3IMB1JAMHP1KK:3IO1LGZLKB4HCVONL847ZC7DXGU86W,2086,/static/images/2kfaces/Google_1_Sara Guajardo_1_oval.jpg,0,5,83
239,A3IMB1JAMHP1KK:3IO1LGZLKB4HCVONL847ZC7DXGU86W,3109,/static/images/2kfaces/Google_1_Jeffery Mcclinton_7-oval.jpg,0,6,84
240,A3IMB1JAMHP1KK:3IO1LGZLKB4HCVONL847ZC7DXGU86W,3535,/static/images/2kfaces/Google_1_Kathleen Sartain_1_oval.jpg,0,6,85
241,A3IMB1JAMHP1KK:3IO1LGZLKB4HCVONL847ZC7DXGU86W,3095,/static/images/2kfaces/Google_1_Shelley Lund_5_oval.jpg,0,5,86
242,A3IMB1JAMHP1KK:3IO1LGZLKB4HCVONL847ZC7DXGU86W,5391,/static/images/2kfaces/Google_1_Belinda Dupuis_9_oval.jpg,1,5,89
243,A3IMB1JAMHP1KK:3IO1LGZLKB4HCVONL847ZC7DXGU86W,2975,/static/images/2kfaces/Google_1_Donald Shaw_13_oval.jpg,1,7,90
244,A3IMB1JAMHP1KK:3IO1LGZLKB4HCVONL847ZC7DXGU86W,3951,/static/images/2kfaces/Google_1_Bryan Brunner_3_oval.jpg,1,4,91
245,A3IMB1JAMHP1KK:3IO1LGZLKB4HCVONL847ZC7DXGU86W,3198,/static/images/2kfaces/Google_1_Eva Kirkman_15_oval.jpg,1,4,92
246,A3IMB1JAMHP1KK:3IO1LGZLKB4HCVONL847ZC7DXGU86W,3606,/static/images/2kfaces/Google_1_Marjorie Rule_3_oval.jpg,1,5,93
247,A3IMB1JAMHP1KK:3IO1LGZLKB4HCVONL847ZC7DXGU86W,18447,/static/images/2kfaces/Google_1_Henry Gumm_19_oval.jpg,1,6,94
248,A3IMB1JAMHP1KK:3IO1LGZLKB4HCVONL847ZC7DXGU86W,2916,/static/images/2kfaces/Google_1_Molly Palm_5_oval.jpg,1,3,95
249,A3IMB1JAMHP1KK:3IO1LGZLKB4HCVONL847ZC7DXGU86W,1957,/static/images/2kfaces/Google_1_Jeffery Mcclinton_7-oval.jpg,1,6,96
250,A3IMB1JAMHP1KK:3IO1LGZLKB4HCVONL847ZC7DXGU86W,2125,/static/images/2kfaces/Google_1_Kenneth Cabral_19_oval.jpg,1,7,97
251,A3IMB1JAMHP1KK:3IO1LGZLKB4HCVONL847ZC7DXGU86W,3685,/static/images/2kfaces/Google_1_Diana Bateman_7_oval.jpg,1,5,98
252,A3IMB1JAMHP1KK:3IO1LGZLKB4HCVONL847ZC7DXGU86W,4023,/static/images/2kfaces/Google_1_Stephen Conley_1_oval.jpg,1,7,99
253,A3IMB1JAMHP1KK:3IO1LGZLKB4HCVONL847ZC7DXGU86W,3166,/static/images/2kfaces/Google_1_Shelia Latham_17_oval.jpg,1,3,100
254,A3IMB1JAMHP1KK:3IO1LGZLKB4HCVONL847ZC7DXGU86W,2583,/static/images/2kfaces/Google_1_Russell Gillam_17_oval.jpg,1,7,101
255,A3IMB1JAMHP1KK:3IO1LGZLKB4HCVONL847ZC7DXGU86W,3286,/static/images/2kfaces/Google_1_Eric Osuna_3_oval.jpg,1,4,102
256,A3IMB1JAMHP1KK:3IO1LGZLKB4HCVONL847ZC7DXGU86W,2230,/static/images/2kfaces/Google_1_Erika Fletcher_1_oval.jpg,1,6,103
257,A3IMB1JAMHP1KK:3IO1LGZLKB4HCVONL847ZC7DXGU86W,2648,/static/images/2kfaces/Google_1_Colleen Summer_5_oval.jpg,1,3,104
258,A3IMB1JAMHP1KK:3IO1LGZLKB4HCVONL847ZC7DXGU86W,3804,/static/images/2kfaces/Google_1_Samuel Goff_1_oval.jpg,1,3,105
259,A3IMB1JAMHP1KK:3IO1LGZLKB4HCVONL847ZC7DXGU86W,3423,/static/images/2kfaces/Google_1_Veronica Percy_7_oval.jpg,1,1,106
260,A3IMB1JAMHP1KK:3IO1LGZLKB4HCVONL847ZC7DXGU86W,2741,/static/images/2kfaces/Google_1_Gary Nance_3_oval.jpg,1,6,107
261,A3IMB1JAMHP1KK:3IO1LGZLKB4HCVONL847ZC7DXGU86W,2573,/static/images/2kfaces/Google_1_Leonard Overcash_5_oval.jpg,1,9,108
262,A3IMB1JAMHP1KK:3IO1LGZLKB4HCVONL847ZC7DXGU86W,2350,/static/images/2kfaces/Google_1_Mark Houser_17_oval.jpg,1,8,109
263,A3IMB1JAMHP1KK:3IO1LGZLKB4HCVONL847ZC7DXGU86W,3358,/static/images/2kfaces/Google_1_Gertrude Bayne_11_oval.jpg,1,3,110
264,A3IMB1JAMHP1KK:3IO1LGZLKB4HCVONL847ZC7DXGU86W,7214,/static/images/2kfaces/Google_1_Valerie Noble_9_oval.jpg,1,5,111
265,A3IMB1JAMHP1KK:3IO1LGZLKB4HCVONL847ZC7DXGU86W,3715,/static/images/2kfaces/Google_1_Florence Melton_1_oval.jpg,1,5,112
266,A3IMB1JAMHP1KK:3IO1LGZLKB4HCVONL847ZC7DXGU86W,2323,/static/images/2kfaces/Google_1_Sean Raleigh_7_oval.jpg,1,6,113
267,A3IMB1JAMHP1KK:3IO1LGZLKB4HCVONL847ZC7DXGU86W,3413,/static/images/2kfaces/Google_1_Sarah Woodcock_3_oval.jpg,1,4,114
268,A3IMB1JAMHP1KK:3IO1LGZLKB4HCVONL847ZC7DXGU86W,3453,/static/images/2kfaces/Google_1_Frank Whitehouse_3_oval.jpg,1,8,115
269,A3IMB1JAMHP1KK:3IO1LGZLKB4HCVONL847ZC7DXGU86W,1991,/static/images/2kfaces/Google_1_Norman Westfall_5_oval.jpg,1,6,116
270,A3IMB1JAMHP1KK:3IO1LGZLKB4HCVONL847ZC7DXGU86W,4022,/static/images/2kfaces/Google_1_Vera Becker_5_oval.jpg,1,4,117
271,A3IMB1JAMHP1KK:3IO1LGZLKB4HCVONL847ZC7DXGU86W,2821,/static/images/2kfaces/Google_1_Billy Kiely_1_oval.jpg,1,9,118
272,A3IMB1JAMHP1KK:3IO1LGZLKB4HCVONL847ZC7DXGU86W,3142,/static/images/2kfaces/Google_1_Rodney Wyant_13_oval.jpg,1,5,119
273,A3IMB1JAMHP1KK:3IO1LGZLKB4HCVONL847ZC7DXGU86W,1950,/static/images/2kfaces/Google_1_Paul Horst_15_oval.jpg,1,4,120
274,A3IMB1JAMHP1KK:3IO1LGZLKB4HCVONL847ZC7DXGU86W,3039,/static/images/2kfaces/Google_1_Kara Mickelson_13_oval.jpg,1,6,121
275,A3IMB1JAMHP1KK:3IO1LGZLKB4HCVONL847ZC7DXGU86W,2736,/static/images/2kfaces/Google_1_Ernest Crump_3_oval.jpg,1,4,122
276,A3IMB1JAMHP1KK:3IO1LGZLKB4HCVONL847ZC7DXGU86W,2276,/static/images/2kfaces/Google_1_Louis Mceachern_7_oval.jpg,1,9,123
277,A3IMB1JAMHP1KK:3IO1LGZLKB4HCVONL847ZC7DXGU86W,1999,/static/images/2kfaces/Google_1_Wilma Allman_15_oval.jpg,1,6,124
278,A3IMB1JAMHP1KK:3IO1LGZLKB4HCVONL847ZC7DXGU86W,3301,/static/images/2kfaces/Google_1_Steve Stamm_1_oval.jpg,1,3,125
279,A3IMB1JAMHP1KK:3IO1LGZLKB4HCVONL847ZC7DXGU86W,2350,/static/images/2kfaces/Google_1_Carole Bentley_7_oval.jpg,1,2,126
280,A3IMB1JAMHP1KK:3IO1LGZLKB4HCVONL847ZC7DXGU86W,2870,/static/images/2kfaces/Google_1_Victoria Ambrose_17_oval.jpg,1,6,127
281,A3IMB1JAMHP1KK:3IO1LGZLKB4HCVONL847ZC7DXGU86W,3237,/static/images/2kfaces/Google_1_Cheryl Griffin_15_oval.jpg,1,6,128
282,A3IMB1JAMHP1KK:3IO1LGZLKB4HCVONL847ZC7DXGU86W,7741,/static/images/2kfaces/Google_1_Sara Guajardo_1_oval.jpg,1,4,130
283,A3IMB1JAMHP1KK:3IO1LGZLKB4HCVONL847ZC7DXGU86W,2999,/static/images/2kfaces/Brian_Mach_1_oval.jpg,1,1,131
284,A3IMB1JAMHP1KK:3IO1LGZLKB4HCVONL847ZC7DXGU86W,3024,/static/images/2kfaces/Google_1_Shelley Lund_5_oval.jpg,1,7,132
285,A3IMB1JAMHP1KK:3IO1LGZLKB4HCVONL847ZC7DXGU86W,2259,/static/images/2kfaces/Google_1_Florence Lott_19_oval.jpg,1,8,133
286,A3IMB1JAMHP1KK:3IO1LGZLKB4HCVONL847ZC7DXGU86W,3270,/static/images/2kfaces/Google_1_Jonathan Marek_5_oval.jpg,1,6,134
287,A3IMB1JAMHP1KK:3IO1LGZLKB4HCVONL847ZC7DXGU86W,2107,/static/images/2kfaces/Google_1_Sherry Mcmichael_11_oval.jpg,1,6,135
288,A3IMB1JAMHP1KK:3IO1LGZLKB4HCVONL847ZC7DXGU86W,1853,/static/images/2kfaces/Google_1_Mark Detwiler_9_oval.jpg,1,5,136
289,A3IMB1JAMHP1KK:3IO1LGZLKB4HCVONL847ZC7DXGU86W,3255,/static/images/2kfaces/Google_1_Donna Asberry_5_oval.jpg,1,5,137
290,A3IMB1JAMHP1KK:3IO1LGZLKB4HCVONL847ZC7DXGU86W,1780,/static/images/2kfaces/Google_1_Claudia Olivarez_9_oval.jpg,1,6,138
291,A3IMB1JAMHP1KK:3IO1LGZLKB4HCVONL847ZC7DXGU86W,2159,/static/images/2kfaces/Google_1_Douglas Tanguay_9_oval.jpg,1,6,139
292,A3IMB1JAMHP1KK:3IO1LGZLKB4HCVONL847ZC7DXGU86W,2102,/static/images/2kfaces/Google_1_Kenneth Rigsby_15_oval.jpg,1,4,140
293,A3IMB1JAMHP1KK:3IO1LGZLKB4HCVONL847ZC7DXGU86W,2573,/static/images/2kfaces/Google_1_Claudia Rohrer_13_oval.jpg,1,1,141
294,A3IMB1JAMHP1KK:3IO1LGZLKB4HCVONL847ZC7DXGU86W,2791,/static/images/2kfaces/Google_1_Kathleen Sartain_1_oval.jpg,1,5,142
295,A3IMB1JAMHP1KK:3IO1LGZLKB4HCVONL847ZC7DXGU86W,2687,/static/images/2kfaces/Google_1_Gary Perri_3_oval.jpg,1,3,143
296,A3IMB1JAMHP1KK:3IO1LGZLKB4HCVONL847ZC7DXGU86W,2024,/static/images/2kfaces/Google_1_Frank Luke_9_oval.jpg,1,6,144
297,A3IMB1JAMHP1KK:3IO1LGZLKB4HCVONL847ZC7DXGU86W,2380,/static/images/2kfaces/Google_1_Antonio Benn_12_oval.jpg,1,5,145
298,A3IMB1JAMHP1KK:3IO1LGZLKB4HCVONL847ZC7DXGU86W,3013,/static/images/2kfaces/Google_1_Alma Poor_7_oval.jpg,1,7,146
299,A3IMB1JAMHP1KK:3IO1LGZLKB4HCVONL847ZC7DXGU86W,3454,/static/images/2kfaces/Google_1_Cindy Morehead_5_oval.jpg,1,3,147
300,A3IMB1JAMHP1KK:3IO1LGZLKB4HCVONL847ZC7DXGU86W,2932,/static/images/2kfaces/Google_1_Charlotte Dearborn_13_oval.jpg,1,4,148
301,A3IMB1JAMHP1KK:3IO1LGZLKB4HCVONL847ZC7DXGU86W,5205,/static/images/2kfaces/Google_1_Leonard True_5_oval.jpg,1,7,149
302,A3IMB1JAMHP1KK:3IO1LGZLKB4HCVONL847ZC7DXGU86W,2122,/static/images/2kfaces/Google_1_Stanley Rowden_19_oval.jpg,1,1,150
303,A3IMB1JAMHP1KK:3IO1LGZLKB4HCVONL847ZC7DXGU86W,2797,/static/images/2kfaces/Google_1_Samuel Paschal_17_oval.jpg,1,1,151
304,A3IMB1JAMHP1KK:3IO1LGZLKB4HCVONL847ZC7DXGU86W,2541,/static/images/2kfaces/Bryan_Shanklin_9_oval.jpg,1,3,152
305,A3IMB1JAMHP1KK:3IO1LGZLKB4HCVONL847ZC7DXGU86W,2566,/static/images/2kfaces/Google_1_Jeff Williford_7_oval.jpg,1,5,153
306,A3IMB1JAMHP1KK:3IO1LGZLKB4HCVONL847ZC7DXGU86W,3141,/static/images/2kfaces/Google_1_Rose Barlow_1_oval.jpg,1,1,154
307,A3IMB1JAMHP1KK:3IO1LGZLKB4HCVONL847ZC7DXGU86W,4784,/static/images/2kfaces/Alice_Mckellar_11_oval.jpg,1,7,155
308,A3IMB1JAMHP1KK:3IO1LGZLKB4HCVONL847ZC7DXGU86W,2723,/static/images/2kfaces/Google_1_Amelia Lines_11_oval.jpg,1,5,156
309,A3IMB1JAMHP1KK:3IO1LGZLKB4HCVONL847ZC7DXGU86W,3877,/static/images/2kfaces/Google_1_Andrew Diggs_9_oval.jpg,1,7,157
310,A3IMB1JAMHP1KK:3IO1LGZLKB4HCVONL847ZC7DXGU86W,2196,/static/images/2kfaces/Google_1_Stanley Kato_17_oval.jpg,1,6,158
311,A3IMB1JAMHP1KK:3IO1LGZLKB4HCVONL847ZC7DXGU86W,2572,/static/images/2kfaces/Google_1_Beth Hollister_3_oval.jpg,1,7,159
312,A3IMB1JAMHP1KK:3IO1LGZLKB4HCVONL847ZC7DXGU86W,3278,/static/images/2kfaces/Google_1_Paul Reno_1_oval.jpg,1,5,160
313,A3IMB1JAMHP1KK:3IO1LGZLKB4HCVONL847ZC7DXGU86W,3341,/static/images/2kfaces/Google_1_Timothy Galvan_11_oval.jpg,1,5,161
314,A3IMB1JAMHP1KK:3IO1LGZLKB4HCVONL847ZC7DXGU86W,4062,/static/images/2kfaces/Google_1_Tina Middleton_7_oval.jpg,1,2,162
315,A3IMB1JAMHP1KK:3IO1LGZLKB4HCVONL847ZC7DXGU86W,2230,/static/images/2kfaces/Google_1_Matthew Vanbuskirk_1_oval.jpg,1,4,163
316,A3IMB1JAMHP1KK:3IO1LGZLKB4HCVONL847ZC7DXGU86W,1927,/static/images/2kfaces/Google_1_Gregory Arriola_3_oval.jpg,1,4,164
317,A3IMB1JAMHP1KK:3IO1LGZLKB4HCVONL847ZC7DXGU86W,2679,/static/images/2kfaces/Google_1_Gloria Canada_13_oval.jpg,1,1,165
318,A3IMB1JAMHP1KK:3IO1LGZLKB4HCVONL847ZC7DXGU86W,2398,/static/images/2kfaces/Google_1_Ronald Driver_19_oval.jpg,1,7,166
319,A3IMB1JAMHP1KK:3IO1LGZLKB4HCVONL847ZC7DXGU86W,2631,/static/images/2kfaces/Google_1_Ryan Marvel_15_oval.jpg,1,8,167
320,A3IMB1JAMHP1KK:3IO1LGZLKB4HCVONL847ZC7DXGU86W,1884,/static/images/2kfaces/Google_1_Jose Monaghan_9_oval.jpg,1,6,168
321,A3IMB1JAMHP1KK:3IO1LGZLKB4HCVONL847ZC7DXGU86W,2654,/static/images/2kfaces/Google_1_Joshua Lessard_11_oval.jpg,1,6,169
322,A2HYRO7O5TM42J:3PJUZCGDJ8N4UEQLJF7JJMYFNH2897,6227,/static/images/faces/empty-image-1.jpg,False,9,5
323,A2HYRO7O5TM42J:3PJUZCGDJ8N4UEQLJF7JJMYFNH2897,4236,/static/images/2kfaces/Google_1_Steve Stamm_1_oval.jpg,0,8,7
324,A2HYRO7O5TM42J:3PJUZCGDJ8N4UEQLJF7JJMYFNH2897,2733,/static/images/2kfaces/Google_1_Shelley Lund_5_oval.jpg,0,9,8
325,A2HYRO7O5TM42J:3PJUZCGDJ8N4UEQLJF7JJMYFNH2897,1900,/static/images/2kfaces/Google_1_Colleen Summer_5_oval.jpg,0,8,9
326,A2HYRO7O5TM42J:3PJUZCGDJ8N4UEQLJF7JJMYFNH2897,1818,/static/images/2kfaces/Google_1_Victoria Ambrose_17_oval.jpg,0,9,10
327,A2HYRO7O5TM42J:3PJUZCGDJ8N4UEQLJF7JJMYFNH2897,2710,/static/images/2kfaces/Google_1_Samuel Goff_1_oval.jpg,0,8,11
328,A2HYRO7O5TM42J:3PJUZCGDJ8N4UEQLJF7JJMYFNH2897,2012,/static/images/2kfaces/Google_1_Gertrude Bayne_11_oval.jpg,0,9,12
329,A2HYRO7O5TM42J:3PJUZCGDJ8N4UEQLJF7JJMYFNH2897,2268,/static/images/2kfaces/Bryan_Shanklin_9_oval.jpg,0,8,13
330,A2HYRO7O5TM42J:3PJUZCGDJ8N4UEQLJF7JJMYFNH2897,3411,/static/images/2kfaces/Google_1_Diana Bateman_7_oval.jpg,0,9,14
331,A2HYRO7O5TM42J:3PJUZCGDJ8N4UEQLJF7JJMYFNH2897,2725,/static/images/2kfaces/Google_1_Gregory Arriola_3_oval.jpg,0,8,15
332,A2HYRO7O5TM42J:3PJUZCGDJ8N4UEQLJF7JJMYFNH2897,2580,/static/images/2kfaces/Google_1_Vera Becker_5_oval.jpg,0,9,16
333,A2HYRO7O5TM42J:3PJUZCGDJ8N4UEQLJF7JJMYFNH2897,2212,/static/images/2kfaces/Google_1_Claudia Olivarez_9_oval.jpg,0,8,17
334,A2HYRO7O5TM42J:3PJUZCGDJ8N4UEQLJF7JJMYFNH2897,2396,/static/images/2kfaces/Google_1_Claudia Rohrer_13_oval.jpg,0,9,18
335,A2HYRO7O5TM42J:3PJUZCGDJ8N4UEQLJF7JJMYFNH2897,1853,/static/images/2kfaces/Google_1_Florence Lott_19_oval.jpg,0,8,19
336,A2HYRO7O5TM42J:3PJUZCGDJ8N4UEQLJF7JJMYFNH2897,2483,/static/images/2kfaces/Google_1_Samuel Paschal_17_oval.jpg,0,9,20
337,A2HYRO7O5TM42J:3PJUZCGDJ8N4UEQLJF7JJMYFNH2897,3588,/static/images/2kfaces/Google_1_Carole Bentley_7_oval.jpg,0,8,21
338,A2HYRO7O5TM42J:3PJUZCGDJ8N4UEQLJF7JJMYFNH2897,2277,/static/images/2kfaces/Alice_Mckellar_11_oval.jpg,0,9,22
339,A2HYRO7O5TM42J:3PJUZCGDJ8N4UEQLJF7JJMYFNH2897,1812,/static/images/2kfaces/Google_1_Jonathan Marek_5_oval.jpg,0,8,23
340,A2HYRO7O5TM42J:3PJUZCGDJ8N4UEQLJF7JJMYFNH2897,2010,/static/images/2kfaces/Google_1_Stephen Conley_1_oval.jpg,0,9,24
341,A2HYRO7O5TM42J:3PJUZCGDJ8N4UEQLJF7JJMYFNH2897,2060,/static/images/2kfaces/Brian_Mach_1_oval.jpg,0,8,25
342,A2HYRO7O5TM42J:3PJUZCGDJ8N4UEQLJF7JJMYFNH2897,2571,/static/images/2kfaces/Google_1_Jeff Williford_7_oval.jpg,0,9,26
343,A2HYRO7O5TM42J:3PJUZCGDJ8N4UEQLJF7JJMYFNH2897,2797,/static/images/2kfaces/Google_1_Sara Guajardo_1_oval.jpg,0,8,27
344,A2HYRO7O5TM42J:3PJUZCGDJ8N4UEQLJF7JJMYFNH2897,2511,/static/images/2kfaces/Google_1_Cindy Morehead_5_oval.jpg,0,9,28
345,A2HYRO7O5TM42J:3PJUZCGDJ8N4UEQLJF7JJMYFNH2897,1836,/static/images/2kfaces/Google_1_Stanley Kato_17_oval.jpg,0,8,29
346,A2HYRO7O5TM42J:3PJUZCGDJ8N4UEQLJF7JJMYFNH2897,1645,/static/images/2kfaces/Google_1_Bryan Brunner_3_oval.jpg,0,9,30
347,A2HYRO7O5TM42J:3PJUZCGDJ8N4UEQLJF7JJMYFNH2897,1990,/static/images/2kfaces/Google_1_Tina Middleton_7_oval.jpg,0,8,31
348,A2HYRO7O5TM42J:3PJUZCGDJ8N4UEQLJF7JJMYFNH2897,2037,/static/images/2kfaces/Google_1_Sarah Woodcock_3_oval.jpg,0,9,32
349,A2HYRO7O5TM42J:3PJUZCGDJ8N4UEQLJF7JJMYFNH2897,1828,/static/images/2kfaces/Google_1_Wilma Allman_15_oval.jpg,0,8,33
350,A2HYRO7O5TM42J:3PJUZCGDJ8N4UEQLJF7JJMYFNH2897,3685,/static/images/2kfaces/Google_1_Frank Whitehouse_3_oval.jpg,0,9,34
351,A2HYRO7O5TM42J:3PJUZCGDJ8N4UEQLJF7JJMYFNH2897,2067,/static/images/2kfaces/Google_1_Gloria Canada_13_oval.jpg,0,8,35
352,A2HYRO7O5TM42J:3PJUZCGDJ8N4UEQLJF7JJMYFNH2897,2039,/static/images/2kfaces/Google_1_Shelia Latham_17_oval.jpg,0,9,36
353,A2HYRO7O5TM42J:3PJUZCGDJ8N4UEQLJF7JJMYFNH2897,1636,/static/images/2kfaces/Google_1_Matthew Vanbuskirk_1_oval.jpg,0,8,37
354,A2HYRO7O5TM42J:3PJUZCGDJ8N4UEQLJF7JJMYFNH2897,2010,/static/images/2kfaces/Google_1_Ryan Marvel_15_oval.jpg,0,8,38
355,A2HYRO7O5TM42J:3PJUZCGDJ8N4UEQLJF7JJMYFNH2897,2237,/static/images/2kfaces/Google_1_Kenneth Rigsby_15_oval.jpg,0,8,39
356,A2HYRO7O5TM42J:3PJUZCGDJ8N4UEQLJF7JJMYFNH2897,1956,/static/images/2kfaces/Google_1_Florence Melton_1_oval.jpg,0,9,40
357,A2HYRO7O5TM42J:3PJUZCGDJ8N4UEQLJF7JJMYFNH2897,1579,/static/images/2kfaces/Google_1_Louis Mceachern_7_oval.jpg,0,8,41
358,A2HYRO7O5TM42J:3PJUZCGDJ8N4UEQLJF7JJMYFNH2897,1667,/static/images/2kfaces/Google_1_Donna Asberry_5_oval.jpg,0,9,42
359,A2HYRO7O5TM42J:3PJUZCGDJ8N4UEQLJF7JJMYFNH2897,1588,/static/images/2kfaces/Google_1_Douglas Tanguay_9_oval.jpg,0,8,43
360,A2HYRO7O5TM42J:3PJUZCGDJ8N4UEQLJF7JJMYFNH2897,1732,/static/images/2kfaces/Google_1_Timothy Galvan_11_oval.jpg,0,9,44
361,A2HYRO7O5TM42J:3PJUZCGDJ8N4UEQLJF7JJMYFNH2897,1983,/static/images/2kfaces/Google_1_Cheryl Griffin_15_oval.jpg,0,8,45
362,A2HYRO7O5TM42J:3PJUZCGDJ8N4UEQLJF7JJMYFNH2897,1805,/static/images/2kfaces/Google_1_Kathleen Sartain_1_oval.jpg,0,9,46
363,A2HYRO7O5TM42J:3PJUZCGDJ8N4UEQLJF7JJMYFNH2897,2513,/static/images/2kfaces/Google_1_Gary Perri_3_oval.jpg,0,8,48
364,A2HYRO7O5TM42J:3PJUZCGDJ8N4UEQLJF7JJMYFNH2897,2125,/static/images/2kfaces/Google_1_Veronica Percy_7_oval.jpg,0,9,49
365,A2HYRO7O5TM42J:3PJUZCGDJ8N4UEQLJF7JJMYFNH2897,1636,/static/images/2kfaces/Google_1_Rodney Wyant_13_oval.jpg,0,8,50
366,A2HYRO7O5TM42J:3PJUZCGDJ8N4UEQLJF7JJMYFNH2897,3181,/static/images/2kfaces/Google_1_Eric Osuna_3_oval.jpg,0,9,51
367,A2HYRO7O5TM42J:3PJUZCGDJ8N4UEQLJF7JJMYFNH2897,1771,/static/images/2kfaces/Google_1_Valerie Noble_9_oval.jpg,0,8,52
368,A2HYRO7O5TM42J:3PJUZCGDJ8N4UEQLJF7JJMYFNH2897,3573,/static/images/2kfaces/Google_1_Charlotte Dearborn_13_oval.jpg,0,9,53
369,A2HYRO7O5TM42J:3PJUZCGDJ8N4UEQLJF7JJMYFNH2897,4206,/static/images/2kfaces/Google_1_Rose Barlow_1_oval.jpg,0,8,54
370,A2HYRO7O5TM42J:3PJUZCGDJ8N4UEQLJF7JJMYFNH2897,2177,/static/images/2kfaces/Google_1_Andrew Diggs_9_oval.jpg,0,9,55
371,A2HYRO7O5TM42J:3PJUZCGDJ8N4UEQLJF7JJMYFNH2897,4555,/static/images/2kfaces/Google_1_Antonio Benn_12_oval.jpg,0,8,56
372,A2HYRO7O5TM42J:3PJUZCGDJ8N4UEQLJF7JJMYFNH2897,2318,/static/images/2kfaces/Google_1_Paul Horst_15_oval.jpg,0,9,57
373,A2HYRO7O5TM42J:3PJUZCGDJ8N4UEQLJF7JJMYFNH2897,5237,/static/images/2kfaces/Google_1_Stanley Rowden_19_oval.jpg,0,8,58
374,A2HYRO7O5TM42J:3PJUZCGDJ8N4UEQLJF7JJMYFNH2897,1779,/static/images/2kfaces/Google_1_Ernest Crump_3_oval.jpg,0,9,59
375,A2HYRO7O5TM42J:3PJUZCGDJ8N4UEQLJF7JJMYFNH2897,1908,/static/images/2kfaces/Google_1_Alma Poor_7_oval.jpg,0,8,60
376,A2HYRO7O5TM42J:3PJUZCGDJ8N4UEQLJF7JJMYFNH2897,2030,/static/images/2kfaces/Google_1_Molly Palm_5_oval.jpg,0,9,61
377,A2HYRO7O5TM42J:3PJUZCGDJ8N4UEQLJF7JJMYFNH2897,2198,/static/images/2kfaces/Google_1_Jeffery Mcclinton_7-oval.jpg,0,8,62
378,A2HYRO7O5TM42J:3PJUZCGDJ8N4UEQLJF7JJMYFNH2897,2132,/static/images/2kfaces/Google_1_Jose Monaghan_9_oval.jpg,0,9,63
379,A2HYRO7O5TM42J:3PJUZCGDJ8N4UEQLJF7JJMYFNH2897,1556,/static/images/2kfaces/Google_1_Henry Gumm_19_oval.jpg,0,8,64
380,A2HYRO7O5TM42J:3PJUZCGDJ8N4UEQLJF7JJMYFNH2897,2028,/static/images/2kfaces/Google_1_Kara Mickelson_13_oval.jpg,0,9,65
381,A2HYRO7O5TM42J:3PJUZCGDJ8N4UEQLJF7JJMYFNH2897,4251,/static/images/2kfaces/Google_1_Erika Fletcher_1_oval.jpg,0,8,66
382,A2HYRO7O5TM42J:3PJUZCGDJ8N4UEQLJF7JJMYFNH2897,1939,/static/images/2kfaces/Google_1_Leonard Overcash_5_oval.jpg,0,9,67
383,A2HYRO7O5TM42J:3PJUZCGDJ8N4UEQLJF7JJMYFNH2897,1514,/static/images/2kfaces/Google_1_Kenneth Cabral_19_oval.jpg,0,8,68
384,A2HYRO7O5TM42J:3PJUZCGDJ8N4UEQLJF7JJMYFNH2897,2645,/static/images/2kfaces/Google_1_Mark Houser_17_oval.jpg,0,9,69
385,A2HYRO7O5TM42J:3PJUZCGDJ8N4UEQLJF7JJMYFNH2897,1963,/static/images/2kfaces/Google_1_Beth Hollister_3_oval.jpg,0,8,70
386,A2HYRO7O5TM42J:3PJUZCGDJ8N4UEQLJF7JJMYFNH2897,1797,/static/images/2kfaces/Google_1_Sean Raleigh_7_oval.jpg,0,9,71
387,A2HYRO7O5TM42J:3PJUZCGDJ8N4UEQLJF7JJMYFNH2897,2810,/static/images/2kfaces/Google_1_Sherry Mcmichael_11_oval.jpg,0,9,72
388,A2HYRO7O5TM42J:3PJUZCGDJ8N4UEQLJF7JJMYFNH2897,1694,/static/images/2kfaces/Google_1_Leonard True_5_oval.jpg,0,8,73
389,A2HYRO7O5TM42J:3PJUZCGDJ8N4UEQLJF7JJMYFNH2897,3818,/static/images/2kfaces/Google_1_Donald Shaw_13_oval.jpg,0,9,74
390,A2HYRO7O5TM42J:3PJUZCGDJ8N4UEQLJF7JJMYFNH2897,3150,/static/images/2kfaces/Google_1_Amelia Lines_11_oval.jpg,0,8,75
391,A2HYRO7O5TM42J:3PJUZCGDJ8N4UEQLJF7JJMYFNH2897,3061,/static/images/2kfaces/Google_1_Mark Detwiler_9_oval.jpg,0,9,76
392,A2HYRO7O5TM42J:3PJUZCGDJ8N4UEQLJF7JJMYFNH2897,86068,/static/images/2kfaces/Google_1_Marjorie Rule_3_oval.jpg,0,9,77
393,A2HYRO7O5TM42J:3PJUZCGDJ8N4UEQLJF7JJMYFNH2897,3659,/static/images/2kfaces/Google_1_Belinda Dupuis_9_oval.jpg,0,8,78
394,A2HYRO7O5TM42J:3PJUZCGDJ8N4UEQLJF7JJMYFNH2897,3866,/static/images/2kfaces/Google_1_Russell Gillam_17_oval.jpg,0,9,79
395,A2HYRO7O5TM42J:3PJUZCGDJ8N4UEQLJF7JJMYFNH2897,1551,/static/images/2kfaces/Google_1_Gary Nance_3_oval.jpg,0,8,80
396,A2HYRO7O5TM42J:3PJUZCGDJ8N4UEQLJF7JJMYFNH2897,1611,/static/images/2kfaces/Google_1_Ronald Driver_19_oval.jpg,0,9,81
397,A2HYRO7O5TM42J:3PJUZCGDJ8N4UEQLJF7JJMYFNH2897,1780,/static/images/2kfaces/Google_1_Billy Kiely_1_oval.jpg,0,8,82
398,A2HYRO7O5TM42J:3PJUZCGDJ8N4UEQLJF7JJMYFNH2897,3157,/static/images/2kfaces/Google_1_Paul Reno_1_oval.jpg,0,9,83
399,A2HYRO7O5TM42J:3PJUZCGDJ8N4UEQLJF7JJMYFNH2897,1611,/static/images/2kfaces/Google_1_Eva Kirkman_15_oval.jpg,0,9,84
400,A2HYRO7O5TM42J:3PJUZCGDJ8N4UEQLJF7JJMYFNH2897,1939,/static/images/2kfaces/Google_1_Norman Westfall_5_oval.jpg,0,8,85
401,A2HYRO7O5TM42J:3PJUZCGDJ8N4UEQLJF7JJMYFNH2897,3484,/static/images/2kfaces/Google_1_Frank Luke_9_oval.jpg,0,9,86
402,A2HYRO7O5TM42J:3PJUZCGDJ8N4UEQLJF7JJMYFNH2897,1981,/static/images/2kfaces/Google_1_Joshua Lessard_11_oval.jpg,0,8,87
403,A2HYRO7O5TM42J:3PJUZCGDJ8N4UEQLJF7JJMYFNH2897,2305,/static/images/2kfaces/Google_1_Paul Horst_15_oval.jpg,1,9,90
404,A2HYRO7O5TM42J:3PJUZCGDJ8N4UEQLJF7JJMYFNH2897,3511,/static/images/2kfaces/Google_1_Florence Lott_19_oval.jpg,1,8,91
405,A2HYRO7O5TM42J:3PJUZCGDJ8N4UEQLJF7JJMYFNH2897,1905,/static/images/2kfaces/Google_1_Rose Barlow_1_oval.jpg,1,9,92
406,A2HYRO7O5TM42J:3PJUZCGDJ8N4UEQLJF7JJMYFNH2897,1796,/static/images/2kfaces/Google_1_Matthew Vanbuskirk_1_oval.jpg,1,9,93
407,A2HYRO7O5TM42J:3PJUZCGDJ8N4UEQLJF7JJMYFNH2897,1332,/static/images/2kfaces/Google_1_Samuel Goff_1_oval.jpg,1,8,94
408,A2HYRO7O5TM42J:3PJUZCGDJ8N4UEQLJF7JJMYFNH2897,1541,/static/images/2kfaces/Google_1_Beth Hollister_3_oval.jpg,1,8,95
409,A2HYRO7O5TM42J:3PJUZCGDJ8N4UEQLJF7JJMYFNH2897,1656,/static/images/2kfaces/Google_1_Jeffery Mcclinton_7-oval.jpg,1,9,96
410,A2HYRO7O5TM42J:3PJUZCGDJ8N4UEQLJF7JJMYFNH2897,2199,/static/images/2kfaces/Google_1_Norman Westfall_5_oval.jpg,1,8,97
411,A2HYRO7O5TM42J:3PJUZCGDJ8N4UEQLJF7JJMYFNH2897,1852,/static/images/2kfaces/Google_1_Louis Mceachern_7_oval.jpg,1,9,98
412,A2HYRO7O5TM42J:3PJUZCGDJ8N4UEQLJF7JJMYFNH2897,1643,/static/images/2kfaces/Google_1_Ernest Crump_3_oval.jpg,1,9,99
413,A2HYRO7O5TM42J:3PJUZCGDJ8N4UEQLJF7JJMYFNH2897,1612,/static/images/2kfaces/Google_1_Marjorie Rule_3_oval.jpg,1,8,100
414,A2HYRO7O5TM42J:3PJUZCGDJ8N4UEQLJF7JJMYFNH2897,3171,/static/images/2kfaces/Google_1_Shelia Latham_17_oval.jpg,1,9,101
415,A2HYRO7O5TM42J:3PJUZCGDJ8N4UEQLJF7JJMYFNH2897,1805,/static/images/2kfaces/Google_1_Jonathan Marek_5_oval.jpg,1,8,102
416,A2HYRO7O5TM42J:3PJUZCGDJ8N4UEQLJF7JJMYFNH2897,1699,/static/images/2kfaces/Google_1_Gary Perri_3_oval.jpg,1,9,103
417,A2HYRO7O5TM42J:3PJUZCGDJ8N4UEQLJF7JJMYFNH2897,1533,/static/images/2kfaces/Google_1_Henry Gumm_19_oval.jpg,1,8,104
418,A2HYRO7O5TM42J:3PJUZCGDJ8N4UEQLJF7JJMYFNH2897,1757,/static/images/2kfaces/Google_1_Donald Shaw_13_oval.jpg,1,9,105
419,A2HYRO7O5TM42J:3PJUZCGDJ8N4UEQLJF7JJMYFNH2897,1732,/static/images/2kfaces/Google_1_Sarah Woodcock_3_oval.jpg,1,8,106
420,A2HYRO7O5TM42J:3PJUZCGDJ8N4UEQLJF7JJMYFNH2897,2108,/static/images/2kfaces/Google_1_Gloria Canada_13_oval.jpg,1,9,107
421,A2HYRO7O5TM42J:3PJUZCGDJ8N4UEQLJF7JJMYFNH2897,2018,/static/images/2kfaces/Google_1_Stanley Kato_17_oval.jpg,1,8,108
422,A2HYRO7O5TM42J:3PJUZCGDJ8N4UEQLJF7JJMYFNH2897,3732,/static/images/2kfaces/Google_1_Wilma Allman_15_oval.jpg,1,9,109
423,A2HYRO7O5TM42J:3PJUZCGDJ8N4UEQLJF7JJMYFNH2897,2141,/static/images/2kfaces/Google_1_Mark Houser_17_oval.jpg,1,8,110
424,A2HYRO7O5TM42J:3PJUZCGDJ8N4UEQLJF7JJMYFNH2897,1980,/static/images/2kfaces/Google_1_Joshua Lessard_11_oval.jpg,1,8,111
425,A2HYRO7O5TM42J:3PJUZCGDJ8N4UEQLJF7JJMYFNH2897,2158,/static/images/2kfaces/Google_1_Frank Luke_9_oval.jpg,1,9,112
426,A2HYRO7O5TM42J:3PJUZCGDJ8N4UEQLJF7JJMYFNH2897,1922,/static/images/2kfaces/Bryan_Shanklin_9_oval.jpg,1,9,113
427,A2HYRO7O5TM42J:3PJUZCGDJ8N4UEQLJF7JJMYFNH2897,2190,/static/images/2kfaces/Google_1_Alma Poor_7_oval.jpg,1,8,114
428,A2HYRO7O5TM42J:3PJUZCGDJ8N4UEQLJF7JJMYFNH2897,1652,/static/images/2kfaces/Google_1_Leonard True_5_oval.jpg,1,9,115
429,A2HYRO7O5TM42J:3PJUZCGDJ8N4UEQLJF7JJMYFNH2897,2059,/static/images/2kfaces/Google_1_Colleen Summer_5_oval.jpg,1,8,116
430,A2HYRO7O5TM42J:3PJUZCGDJ8N4UEQLJF7JJMYFNH2897,1565,/static/images/2kfaces/Google_1_Eric Osuna_3_oval.jpg,1,9,117
431,A2HYRO7O5TM42J:3PJUZCGDJ8N4UEQLJF7JJMYFNH2897,2036,/static/images/2kfaces/Google_1_Belinda Dupuis_9_oval.jpg,1,9,118
432,A2HYRO7O5TM42J:3PJUZCGDJ8N4UEQLJF7JJMYFNH2897,1763,/static/images/2kfaces/Google_1_Carole Bentley_7_oval.jpg,1,8,119
433,A2HYRO7O5TM42J:3PJUZCGDJ8N4UEQLJF7JJMYFNH2897,2215,/static/images/2kfaces/Google_1_Steve Stamm_1_oval.jpg,1,9,120
434,A2HYRO7O5TM42J:3PJUZCGDJ8N4UEQLJF7JJMYFNH2897,2955,/static/images/2kfaces/Google_1_Vera Becker_5_oval.jpg,1,8,121
435,A2HYRO7O5TM42J:3PJUZCGDJ8N4UEQLJF7JJMYFNH2897,1691,/static/images/2kfaces/Google_1_Jeff Williford_7_oval.jpg,1,9,122
436,A2HYRO7O5TM42J:3PJUZCGDJ8N4UEQLJF7JJMYFNH2897,1641,/static/images/2kfaces/Google_1_Sherry Mcmichael_11_oval.jpg,1,9,123
437,A2HYRO7O5TM42J:3PJUZCGDJ8N4UEQLJF7JJMYFNH2897,3415,/static/images/2kfaces/Google_1_Bryan Brunner_3_oval.jpg,1,8,124
438,A2HYRO7O5TM42J:3PJUZCGDJ8N4UEQLJF7JJMYFNH2897,2690,/static/images/2kfaces/Google_1_Erika Fletcher_1_oval.jpg,1,9,125
439,A2HYRO7O5TM42J:3PJUZCGDJ8N4UEQLJF7JJMYFNH2897,3994,/static/images/2kfaces/Google_1_Stephen Conley_1_oval.jpg,1,8,126
440,A2HYRO7O5TM42J:3PJUZCGDJ8N4UEQLJF7JJMYFNH2897,1980,/static/images/2kfaces/Google_1_Samuel Paschal_17_oval.jpg,1,9,127
441,A2HYRO7O5TM42J:3PJUZCGDJ8N4UEQLJF7JJMYFNH2897,1710,/static/images/2kfaces/Google_1_Stanley Rowden_19_oval.jpg,1,8,128
442,A2HYRO7O5TM42J:3PJUZCGDJ8N4UEQLJF7JJMYFNH2897,2252,/static/images/2kfaces/Google_1_Cheryl Griffin_15_oval.jpg,1,9,129
443,A2HYRO7O5TM42J:3PJUZCGDJ8N4UEQLJF7JJMYFNH2897,3395,/static/images/2kfaces/Google_1_Frank Whitehouse_3_oval.jpg,1,9,131
444,A2HYRO7O5TM42J:3PJUZCGDJ8N4UEQLJF7JJMYFNH2897,2708,/static/images/2kfaces/Google_1_Mark Detwiler_9_oval.jpg,1,8,132
445,A2HYRO7O5TM42J:3PJUZCGDJ8N4UEQLJF7JJMYFNH2897,3092,/static/images/2kfaces/Google_1_Andrew Diggs_9_oval.jpg,1,9,133
446,A2HYRO7O5TM42J:3PJUZCGDJ8N4UEQLJF7JJMYFNH2897,1556,/static/images/2kfaces/Google_1_Veronica Percy_7_oval.jpg,1,8,134
447,A2HYRO7O5TM42J:3PJUZCGDJ8N4UEQLJF7JJMYFNH2897,1712,/static/images/2kfaces/Google_1_Kenneth Cabral_19_oval.jpg,1,9,135
448,A2HYRO7O5TM42J:3PJUZCGDJ8N4UEQLJF7JJMYFNH2897,2053,/static/images/2kfaces/Brian_Mach_1_oval.jpg,1,8,136
449,A2HYRO7O5TM42J:3PJUZCGDJ8N4UEQLJF7JJMYFNH2897,1916,/static/images/2kfaces/Google_1_Sean Raleigh_7_oval.jpg,1,9,137
450,A2HYRO7O5TM42J:3PJUZCGDJ8N4UEQLJF7JJMYFNH2897,1547,/static/images/2kfaces/Google_1_Valerie Noble_9_oval.jpg,1,8,138
451,A2HYRO7O5TM42J:3PJUZCGDJ8N4UEQLJF7JJMYFNH2897,1822,/static/images/2kfaces/Alice_Mckellar_11_oval.jpg,1,9,139
452,A2HYRO7O5TM42J:3PJUZCGDJ8N4UEQLJF7JJMYFNH2897,2714,/static/images/2kfaces/Google_1_Victoria Ambrose_17_oval.jpg,1,8,140
453,A2HYRO7O5TM42J:3PJUZCGDJ8N4UEQLJF7JJMYFNH2897,1955,/static/images/2kfaces/Google_1_Douglas Tanguay_9_oval.jpg,1,9,141
454,A2HYRO7O5TM42J:3PJUZCGDJ8N4UEQLJF7JJMYFNH2897,2180,/static/images/2kfaces/Google_1_Ronald Driver_19_oval.jpg,1,8,142
455,A2HYRO7O5TM42J:3PJUZCGDJ8N4UEQLJF7JJMYFNH2897,2739,/static/images/2kfaces/Google_1_Sara Guajardo_1_oval.jpg,1,9,143
456,A2HYRO7O5TM42J:3PJUZCGDJ8N4UEQLJF7JJMYFNH2897,3386,/static/images/2kfaces/Google_1_Paul Reno_1_oval.jpg,1,8,144
457,A2HYRO7O5TM42J:3PJUZCGDJ8N4UEQLJF7JJMYFNH2897,2125,/static/images/2kfaces/Google_1_Ryan Marvel_15_oval.jpg,1,9,145
458,A2HYRO7O5TM42J:3PJUZCGDJ8N4UEQLJF7JJMYFNH2897,2578,/static/images/2kfaces/Google_1_Gregory Arriola_3_oval.jpg,1,9,146
459,A2HYRO7O5TM42J:3PJUZCGDJ8N4UEQLJF7JJMYFNH2897,1628,/static/images/2kfaces/Google_1_Russell Gillam_17_oval.jpg,1,8,147
460,A2HYRO7O5TM42J:3PJUZCGDJ8N4UEQLJF7JJMYFNH2897,1806,/static/images/2kfaces/Google_1_Kathleen Sartain_1_oval.jpg,1,9,148
461,A2HYRO7O5TM42J:3PJUZCGDJ8N4UEQLJF7JJMYFNH2897,1538,/static/images/2kfaces/Google_1_Claudia Rohrer_13_oval.jpg,1,8,149
462,A2HYRO7O5TM42J:3PJUZCGDJ8N4UEQLJF7JJMYFNH2897,1972,/static/images/2kfaces/Google_1_Billy Kiely_1_oval.jpg,1,9,150
463,A2HYRO7O5TM42J:3PJUZCGDJ8N4UEQLJF7JJMYFNH2897,1554,/static/images/2kfaces/Google_1_Tina Middleton_7_oval.jpg,1,8,151
464,A2HYRO7O5TM42J:3PJUZCGDJ8N4UEQLJF7JJMYFNH2897,2124,/static/images/2kfaces/Google_1_Charlotte Dearborn_13_oval.jpg,1,9,152
465,A2HYRO7O5TM42J:3PJUZCGDJ8N4UEQLJF7JJMYFNH2897,1956,/static/images/2kfaces/Google_1_Cindy Morehead_5_oval.jpg,1,8,153
466,A2HYRO7O5TM42J:3PJUZCGDJ8N4UEQLJF7JJMYFNH2897,1901,/static/images/2kfaces/Google_1_Antonio Benn_12_oval.jpg,1,9,154
467,A2HYRO7O5TM42J:3PJUZCGDJ8N4UEQLJF7JJMYFNH2897,2834,/static/images/2kfaces/Google_1_Jose Monaghan_9_oval.jpg,1,8,155
468,A2HYRO7O5TM42J:3PJUZCGDJ8N4UEQLJF7JJMYFNH2897,2293,/static/images/2kfaces/Google_1_Molly Palm_5_oval.jpg,1,9,156
469,A2HYRO7O5TM42J:3PJUZCGDJ8N4UEQLJF7JJMYFNH2897,2238,/static/images/2kfaces/Google_1_Shelley Lund_5_oval.jpg,1,8,157
470,A2HYRO7O5TM42J:3PJUZCGDJ8N4UEQLJF7JJMYFNH2897,1874,/static/images/2kfaces/Google_1_Gary Nance_3_oval.jpg,1,9,158
471,A2HYRO7O5TM42J:3PJUZCGDJ8N4UEQLJF7JJMYFNH2897,2299,/static/images/2kfaces/Google_1_Timothy Galvan_11_oval.jpg,1,8,159
472,A2HYRO7O5TM42J:3PJUZCGDJ8N4UEQLJF7JJMYFNH2897,2051,/static/images/2kfaces/Google_1_Leonard Overcash_5_oval.jpg,1,9,160
473,A2HYRO7O5TM42J:3PJUZCGDJ8N4UEQLJF7JJMYFNH2897,1731,/static/images/2kfaces/Google_1_Eva Kirkman_15_oval.jpg,1,8,161
474,A2HYRO7O5TM42J:3PJUZCGDJ8N4UEQLJF7JJMYFNH2897,1636,/static/images/2kfaces/Google_1_Kenneth Rigsby_15_oval.jpg,1,9,162
475,A2HYRO7O5TM42J:3PJUZCGDJ8N4UEQLJF7JJMYFNH2897,1739,/static/images/2kfaces/Google_1_Florence Melton_1_oval.jpg,1,9,163
476,A2HYRO7O5TM42J:3PJUZCGDJ8N4UEQLJF7JJMYFNH2897,1746,/static/images/2kfaces/Google_1_Claudia Olivarez_9_oval.jpg,1,8,164
477,A2HYRO7O5TM42J:3PJUZCGDJ8N4UEQLJF7JJMYFNH2897,1627,/static/images/2kfaces/Google_1_Amelia Lines_11_oval.jpg,1,8,165
478,A2HYRO7O5TM42J:3PJUZCGDJ8N4UEQLJF7JJMYFNH2897,1979,/static/images/2kfaces/Google_1_Kara Mickelson_13_oval.jpg,1,9,166
479,A2HYRO7O5TM42J:3PJUZCGDJ8N4UEQLJF7JJMYFNH2897,1716,/static/images/2kfaces/Google_1_Rodney Wyant_13_oval.jpg,1,8,167
480,A2HYRO7O5TM42J:3PJUZCGDJ8N4UEQLJF7JJMYFNH2897,1594,/static/images/2kfaces/Google_1_Donna Asberry_5_oval.jpg,1,9,168
481,A2HYRO7O5TM42J:3PJUZCGDJ8N4UEQLJF7JJMYFNH2897,3324,/static/images/2kfaces/Google_1_Diana Bateman_7_oval.jpg,1,8,169
482,A2HYRO7O5TM42J:3PJUZCGDJ8N4UEQLJF7JJMYFNH2897,4469,/static/images/2kfaces/Google_1_Gertrude Bayne_11_oval.jpg,1,9,170
483,A2OU924AC8XCYC:3HPZF4IVNO0L7IO683F4KPNPMH8CY6,6974,/static/images/faces/empty-image-1.jpg,False,5,4
484,A2OU924AC8XCYC:3HPZF4IVNO0L7IO683F4KPNPMH8CY6,4895,/static/images/2kfaces/Google_1_Steve Stamm_1_oval.jpg,0,7,6
485,A2OU924AC8XCYC:3HPZF4IVNO0L7IO683F4KPNPMH8CY6,2563,/static/images/2kfaces/Google_1_Paul Horst_15_oval.jpg,0,6,7
486,A2OU924AC8XCYC:3HPZF4IVNO0L7IO683F4KPNPMH8CY6,3610,/static/images/2kfaces/Google_1_Jeffery Mcclinton_7-oval.jpg,0,6,8
487,A2OU924AC8XCYC:3HPZF4IVNO0L7IO683F4KPNPMH8CY6,3678,/static/images/2kfaces/Google_1_Charlotte Dearborn_13_oval.jpg,0,4,9
488,A2OU924AC8XCYC:3HPZF4IVNO0L7IO683F4KPNPMH8CY6,3363,/static/images/2kfaces/Google_1_Cheryl Griffin_15_oval.jpg,0,7,10
489,A2OU924AC8XCYC:3HPZF4IVNO0L7IO683F4KPNPMH8CY6,3925,/static/images/2kfaces/Google_1_Gregory Arriola_3_oval.jpg,0,4,11
490,A2OU924AC8XCYC:3HPZF4IVNO0L7IO683F4KPNPMH8CY6,2856,/static/images/2kfaces/Google_1_Matthew Vanbuskirk_1_oval.jpg,0,5,12
491,A2OU924AC8XCYC:3HPZF4IVNO0L7IO683F4KPNPMH8CY6,2767,/static/images/2kfaces/Google_1_Vera Becker_5_oval.jpg,0,3,13
492,A2OU924AC8XCYC:3HPZF4IVNO0L7IO683F4KPNPMH8CY6,3914,/static/images/2kfaces/Google_1_Ryan Marvel_15_oval.jpg,0,6,14
493,A2OU924AC8XCYC:3HPZF4IVNO0L7IO683F4KPNPMH8CY6,3565,/static/images/2kfaces/Google_1_Kenneth Cabral_19_oval.jpg,0,5,15
494,A2OU924AC8XCYC:3HPZF4IVNO0L7IO683F4KPNPMH8CY6,3070,/static/images/2kfaces/Google_1_Gary Perri_3_oval.jpg,0,4,16
495,A2OU924AC8XCYC:3HPZF4IVNO0L7IO683F4KPNPMH8CY6,4207,/static/images/2kfaces/Google_1_Shelia Latham_17_oval.jpg,0,4,17
496,A2OU924AC8XCYC:3HPZF4IVNO0L7IO683F4KPNPMH8CY6,2519,/static/images/2kfaces/Google_1_Paul Reno_1_oval.jpg,0,4,18
497,A2OU924AC8XCYC:3HPZF4IVNO0L7IO683F4KPNPMH8CY6,4083,/static/images/2kfaces/Google_1_Beth Hollister_3_oval.jpg,0,3,19
498,A2OU924AC8XCYC:3HPZF4IVNO0L7IO683F4KPNPMH8CY6,3947,/static/images/2kfaces/Google_1_Alma Poor_7_oval.jpg,0,6,20
499,A2OU924AC8XCYC:3HPZF4IVNO0L7IO683F4KPNPMH8CY6,2868,/static/images/2kfaces/Google_1_Mark Detwiler_9_oval.jpg,0,5,21
500,A2OU924AC8XCYC:3HPZF4IVNO0L7IO683F4KPNPMH8CY6,4871,/static/images/2kfaces/Google_1_Bryan Brunner_3_oval.jpg,0,6,22
501,A2OU924AC8XCYC:3HPZF4IVNO0L7IO683F4KPNPMH8CY6,4195,/static/images/2kfaces/Google_1_Samuel Paschal_17_oval.jpg,0,3,23
502,A2OU924AC8XCYC:3HPZF4IVNO0L7IO683F4KPNPMH8CY6,4060,/static/images/2kfaces/Google_1_Sherry Mcmichael_11_oval.jpg,0,6,24
503,A2OU924AC8XCYC:3HPZF4IVNO0L7IO683F4KPNPMH8CY6,3295,/static/images/2kfaces/Google_1_Jeff Williford_7_oval.jpg,0,6,25
504,A2OU924AC8XCYC:3HPZF4IVNO0L7IO683F4KPNPMH8CY6,4410,/static/images/2kfaces/Google_1_Frank Whitehouse_3_oval.jpg,0,3,26
505,A2OU924AC8XCYC:3HPZF4IVNO0L7IO683F4KPNPMH8CY6,2980,/static/images/2kfaces/Google_1_Gloria Canada_13_oval.jpg,0,3,27
506,A2OU924AC8XCYC:3HPZF4IVNO0L7IO683F4KPNPMH8CY6,3036,/static/images/2kfaces/Google_1_Amelia Lines_11_oval.jpg,0,4,28
507,A2OU924AC8XCYC:3HPZF4IVNO0L7IO683F4KPNPMH8CY6,3183,/static/images/2kfaces/Brian_Mach_1_oval.jpg,0,4,29
508,A2OU924AC8XCYC:3HPZF4IVNO0L7IO683F4KPNPMH8CY6,4409,/static/images/2kfaces/Google_1_Andrew Diggs_9_oval.jpg,0,5,30
509,A2OU924AC8XCYC:3HPZF4IVNO0L7IO683F4KPNPMH8CY6,6220,/static/images/2kfaces/Google_1_Florence Lott_19_oval.jpg,0,4,31
510,A2OU924AC8XCYC:3HPZF4IVNO0L7IO683F4KPNPMH8CY6,3070,/static/images/2kfaces/Google_1_Jonathan Marek_5_oval.jpg,0,5,32
511,A2OU924AC8XCYC:3HPZF4IVNO0L7IO683F4KPNPMH8CY6,2811,/static/images/2kfaces/Google_1_Wilma Allman_15_oval.jpg,0,4,33
512,A2OU924AC8XCYC:3HPZF4IVNO0L7IO683F4KPNPMH8CY6,2473,/static/images/2kfaces/Google_1_Rose Barlow_1_oval.jpg,0,3,34
513,A2OU924AC8XCYC:3HPZF4IVNO0L7IO683F4KPNPMH8CY6,2677,/static/images/2kfaces/Google_1_Tina Middleton_7_oval.jpg,0,5,35
514,A2OU924AC8XCYC:3HPZF4IVNO0L7IO683F4KPNPMH8CY6,4398,/static/images/2kfaces/Google_1_Claudia Olivarez_9_oval.jpg,0,6,36
515,A2OU924AC8XCYC:3HPZF4IVNO0L7IO683F4KPNPMH8CY6,3228,/static/images/2kfaces/Google_1_Kathleen Sartain_1_oval.jpg,0,6,37
516,A2OU924AC8XCYC:3HPZF4IVNO0L7IO683F4KPNPMH8CY6,4825,/static/images/2kfaces/Google_1_Rodney Wyant_13_oval.jpg,0,5,38
517,A2OU924AC8XCYC:3HPZF4IVNO0L7IO683F4KPNPMH8CY6,3363,/static/images/2kfaces/Google_1_Florence Melton_1_oval.jpg,0,5,39
518,A2OU924AC8XCYC:3HPZF4IVNO0L7IO683F4KPNPMH8CY6,3880,/static/images/2kfaces/Google_1_Eric Osuna_3_oval.jpg,0,4,40
519,A2OU924AC8XCYC:3HPZF4IVNO0L7IO683F4KPNPMH8CY6,3183,/static/images/2kfaces/Google_1_Victoria Ambrose_17_oval.jpg,0,5,41
520,A2OU924AC8XCYC:3HPZF4IVNO0L7IO683F4KPNPMH8CY6,3925,/static/images/2kfaces/Google_1_Leonard True_5_oval.jpg,0,6,42
521,A2OU924AC8XCYC:3HPZF4IVNO0L7IO683F4KPNPMH8CY6,4826,/static/images/2kfaces/Google_1_Ernest Crump_3_oval.jpg,0,4,43
522,A2OU924AC8XCYC:3HPZF4IVNO0L7IO683F4KPNPMH8CY6,3835,/static/images/2kfaces/Google_1_Gertrude Bayne_11_oval.jpg,0,4,44
523,A2OU924AC8XCYC:3HPZF4IVNO0L7IO683F4KPNPMH8CY6,3644,/static/images/2kfaces/Alice_Mckellar_11_oval.jpg,0,5,45
524,A2OU924AC8XCYC:3HPZF4IVNO0L7IO683F4KPNPMH8CY6,5197,/static/images/2kfaces/Google_1_Belinda Dupuis_9_oval.jpg,0,5,47
525,A2OU924AC8XCYC:3HPZF4IVNO0L7IO683F4KPNPMH8CY6,4533,/static/images/2kfaces/Google_1_Stanley Kato_17_oval.jpg,0,3,48
526,A2OU924AC8XCYC:3HPZF4IVNO0L7IO683F4KPNPMH8CY6,4769,/static/images/2kfaces/Google_1_Kara Mickelson_13_oval.jpg,0,5,49
527,A2OU924AC8XCYC:3HPZF4IVNO0L7IO683F4KPNPMH8CY6,2677,/static/images/2kfaces/Google_1_Frank Luke_9_oval.jpg,0,4,50
528,A2OU924AC8XCYC:3HPZF4IVNO0L7IO683F4KPNPMH8CY6,2473,/static/images/2kfaces/Google_1_Samuel Goff_1_oval.jpg,0,4,51
529,A2OU924AC8XCYC:3HPZF4IVNO0L7IO683F4KPNPMH8CY6,2947,/static/images/2kfaces/Google_1_Eva Kirkman_15_oval.jpg,0,5,52
530,A2OU924AC8XCYC:3HPZF4IVNO0L7IO683F4KPNPMH8CY6,2756,/static/images/2kfaces/Google_1_Ronald Driver_19_oval.jpg,0,6,53
531,A2OU924AC8XCYC:3HPZF4IVNO0L7IO683F4KPNPMH8CY6,3036,/static/images/2kfaces/Google_1_Gary Nance_3_oval.jpg,0,6,54
532,A2OU924AC8XCYC:3HPZF4IVNO0L7IO683F4KPNPMH8CY6,4128,/static/images/2kfaces/Google_1_Cindy Morehead_5_oval.jpg,0,5,55
533,A2OU924AC8XCYC:3HPZF4IVNO0L7IO683F4KPNPMH8CY6,3980,/static/images/2kfaces/Google_1_Antonio Benn_12_oval.jpg,0,4,56
534,A2OU924AC8XCYC:3HPZF4IVNO0L7IO683F4KPNPMH8CY6,2699,/static/images/2kfaces/Google_1_Valerie Noble_9_oval.jpg,0,4,57
535,A2OU924AC8XCYC:3HPZF4IVNO0L7IO683F4KPNPMH8CY6,4476,/static/images/2kfaces/Google_1_Douglas Tanguay_9_oval.jpg,0,6,58
536,A2OU924AC8XCYC:3HPZF4IVNO0L7IO683F4KPNPMH8CY6,3194,/static/images/2kfaces/Google_1_Shelley Lund_5_oval.jpg,0,6,59
537,A2OU924AC8XCYC:3HPZF4IVNO0L7IO683F4KPNPMH8CY6,3048,/static/images/2kfaces/Google_1_Billy Kiely_1_oval.jpg,0,5,60
538,A2OU924AC8XCYC:3HPZF4IVNO0L7IO683F4KPNPMH8CY6,3295,/static/images/2kfaces/Google_1_Mark Houser_17_oval.jpg,0,4,61
539,A2OU924AC8XCYC:3HPZF4IVNO0L7IO683F4KPNPMH8CY6,4826,/static/images/2kfaces/Google_1_Veronica Percy_7_oval.jpg,0,3,62
540,A2OU924AC8XCYC:3HPZF4IVNO0L7IO683F4KPNPMH8CY6,2823,/static/images/2kfaces/Google_1_Donald Shaw_13_oval.jpg,0,4,63
541,A2OU924AC8XCYC:3HPZF4IVNO0L7IO683F4KPNPMH8CY6,3452,/static/images/2kfaces/Google_1_Jose Monaghan_9_oval.jpg,0,4,64
542,A2OU924AC8XCYC:3HPZF4IVNO0L7IO683F4KPNPMH8CY6,3836,/static/images/2kfaces/Google_1_Colleen Summer_5_oval.jpg,0,6,65
543,A2OU924AC8XCYC:3HPZF4IVNO0L7IO683F4KPNPMH8CY6,3992,/static/images/2kfaces/Google_1_Donna Asberry_5_oval.jpg,0,6,66
544,A2OU924AC8XCYC:3HPZF4IVNO0L7IO683F4KPNPMH8CY6,3092,/static/images/2kfaces/Google_1_Stephen Conley_1_oval.jpg,0,5,67
545,A2OU924AC8XCYC:3HPZF4IVNO0L7IO683F4KPNPMH8CY6,2879,/static/images/2kfaces/Google_1_Leonard Overcash_5_oval.jpg,0,6,68
546,A2OU924AC8XCYC:3HPZF4IVNO0L7IO683F4KPNPMH8CY6,3183,/static/images/2kfaces/Google_1_Stanley Rowden_19_oval.jpg,0,4,69
547,A2OU924AC8XCYC:3HPZF4IVNO0L7IO683F4KPNPMH8CY6,2474,/static/images/2kfaces/Google_1_Diana Bateman_7_oval.jpg,0,5,70
548,A2OU924AC8XCYC:3HPZF4IVNO0L7IO683F4KPNPMH8CY6,3116,/static/images/2kfaces/Google_1_Marjorie Rule_3_oval.jpg,0,5,71
549,A2OU924AC8XCYC:3HPZF4IVNO0L7IO683F4KPNPMH8CY6,3396,/static/images/2kfaces/Google_1_Kenneth Rigsby_15_oval.jpg,0,4,72
550,A2OU924AC8XCYC:3HPZF4IVNO0L7IO683F4KPNPMH8CY6,2778,/static/images/2kfaces/Google_1_Henry Gumm_19_oval.jpg,0,5,73
551,A2OU924AC8XCYC:3HPZF4IVNO0L7IO683F4KPNPMH8CY6,3666,/static/images/2kfaces/Google_1_Timothy Galvan_11_oval.jpg,0,4,74
552,A2OU924AC8XCYC:3HPZF4IVNO0L7IO683F4KPNPMH8CY6,2822,/static/images/2kfaces/Google_1_Sara Guajardo_1_oval.jpg,0,4,75
553,A2OU924AC8XCYC:3HPZF4IVNO0L7IO683F4KPNPMH8CY6,2553,/static/images/2kfaces/Google_1_Sean Raleigh_7_oval.jpg,0,4,76
554,A2OU924AC8XCYC:3HPZF4IVNO0L7IO683F4KPNPMH8CY6,2722,/static/images/2kfaces/Google_1_Joshua Lessard_11_oval.jpg,0,5,77
555,A2OU924AC8XCYC:3HPZF4IVNO0L7IO683F4KPNPMH8CY6,3047,/static/images/2kfaces/Google_1_Russell Gillam_17_oval.jpg,0,6,78
556,A2OU924AC8XCYC:3HPZF4IVNO0L7IO683F4KPNPMH8CY6,2396,/static/images/2kfaces/Google_1_Claudia Rohrer_13_oval.jpg,0,3,79
557,A2OU924AC8XCYC:3HPZF4IVNO0L7IO683F4KPNPMH8CY6,3857,/static/images/2kfaces/Google_1_Erika Fletcher_1_oval.jpg,0,4,80
558,A2OU924AC8XCYC:3HPZF4IVNO0L7IO683F4KPNPMH8CY6,2159,/static/images/2kfaces/Google_1_Molly Palm_5_oval.jpg,0,4,81
559,A2OU924AC8XCYC:3HPZF4IVNO0L7IO683F4KPNPMH8CY6,2632,/static/images/2kfaces/Google_1_Louis Mceachern_7_oval.jpg,0,4,82
560,A2OU924AC8XCYC:3HPZF4IVNO0L7IO683F4KPNPMH8CY6,2890,/static/images/2kfaces/Google_1_Sarah Woodcock_3_oval.jpg,0,5,83
561,A2OU924AC8XCYC:3HPZF4IVNO0L7IO683F4KPNPMH8CY6,2845,/static/images/2kfaces/Google_1_Norman Westfall_5_oval.jpg,0,4,84
562,A2OU924AC8XCYC:3HPZF4IVNO0L7IO683F4KPNPMH8CY6,4275,/static/images/2kfaces/Google_1_Carole Bentley_7_oval.jpg,0,3,85
563,A2OU924AC8XCYC:3HPZF4IVNO0L7IO683F4KPNPMH8CY6,2800,/static/images/2kfaces/Bryan_Shanklin_9_oval.jpg,0,4,86
564,A2OU924AC8XCYC:3HPZF4IVNO0L7IO683F4KPNPMH8CY6,6397,/static/images/2kfaces/Google_1_Shelley Lund_5_oval.jpg,1,5,89
565,A2OU924AC8XCYC:3HPZF4IVNO0L7IO683F4KPNPMH8CY6,3351,/static/images/2kfaces/Google_1_Donald Shaw_13_oval.jpg,1,3,90
566,A2OU924AC8XCYC:3HPZF4IVNO0L7IO683F4KPNPMH8CY6,2395,/static/images/2kfaces/Google_1_Sara Guajardo_1_oval.jpg,1,4,91
567,A2OU924AC8XCYC:3HPZF4IVNO0L7IO683F4KPNPMH8CY6,5591,/static/images/2kfaces/Google_1_Carole Bentley_7_oval.jpg,1,3,92
568,A2OU924AC8XCYC:3HPZF4IVNO0L7IO683F4KPNPMH8CY6,2395,/static/images/2kfaces/Google_1_Florence Melton_1_oval.jpg,1,5,93
569,A2OU924AC8XCYC:3HPZF4IVNO0L7IO683F4KPNPMH8CY6,3430,/static/images/2kfaces/Google_1_Vera Becker_5_oval.jpg,1,4,94
570,A2OU924AC8XCYC:3HPZF4IVNO0L7IO683F4KPNPMH8CY6,2328,/static/images/2kfaces/Alice_Mckellar_11_oval.jpg,1,5,95
571,A2OU924AC8XCYC:3HPZF4IVNO0L7IO683F4KPNPMH8CY6,3959,/static/images/2kfaces/Google_1_Matthew Vanbuskirk_1_oval.jpg,1,5,96
572,A2OU924AC8XCYC:3HPZF4IVNO0L7IO683F4KPNPMH8CY6,2913,/static/images/2kfaces/Google_1_Jeffery Mcclinton_7-oval.jpg,1,4,97
573,A2OU924AC8XCYC:3HPZF4IVNO0L7IO683F4KPNPMH8CY6,2744,/static/images/2kfaces/Google_1_Belinda Dupuis_9_oval.jpg,1,3,98
574,A2OU924AC8XCYC:3HPZF4IVNO0L7IO683F4KPNPMH8CY6,2733,/static/images/2kfaces/Google_1_Sherry Mcmichael_11_oval.jpg,1,6,99
575,A2OU924AC8XCYC:3HPZF4IVNO0L7IO683F4KPNPMH8CY6,2373,/static/images/2kfaces/Google_1_Ronald Driver_19_oval.jpg,1,6,100
576,A2OU924AC8XCYC:3HPZF4IVNO0L7IO683F4KPNPMH8CY6,2136,/static/images/2kfaces/Google_1_Louis Mceachern_7_oval.jpg,1,4,101
577,A2OU924AC8XCYC:3HPZF4IVNO0L7IO683F4KPNPMH8CY6,3273,/static/images/2kfaces/Google_1_Jeff Williford_7_oval.jpg,1,4,102
578,A2OU924AC8XCYC:3HPZF4IVNO0L7IO683F4KPNPMH8CY6,4735,/static/images/2kfaces/Google_1_Joshua Lessard_11_oval.jpg,1,6,103
579,A2OU924AC8XCYC:3HPZF4IVNO0L7IO683F4KPNPMH8CY6,3127,/static/images/2kfaces/Google_1_Norman Westfall_5_oval.jpg,1,3,104
580,A2OU924AC8XCYC:3HPZF4IVNO0L7IO683F4KPNPMH8CY6,3633,/static/images/2kfaces/Google_1_Antonio Benn_12_oval.jpg,1,4,105
581,A2OU924AC8XCYC:3HPZF4IVNO0L7IO683F4KPNPMH8CY6,3171,/static/images/2kfaces/Google_1_Diana Bateman_7_oval.jpg,1,6,106
582,A2OU924AC8XCYC:3HPZF4IVNO0L7IO683F4KPNPMH8CY6,2203,/static/images/2kfaces/Google_1_Claudia Olivarez_9_oval.jpg,1,6,107
583,A2OU924AC8XCYC:3HPZF4IVNO0L7IO683F4KPNPMH8CY6,4061,/static/images/2kfaces/Google_1_Ernest Crump_3_oval.jpg,1,3,108
584,A2OU924AC8XCYC:3HPZF4IVNO0L7IO683F4KPNPMH8CY6,2734,/static/images/2kfaces/Google_1_Jonathan Marek_5_oval.jpg,1,6,109
585,A2OU924AC8XCYC:3HPZF4IVNO0L7IO683F4KPNPMH8CY6,2912,/static/images/2kfaces/Google_1_Stanley Rowden_19_oval.jpg,1,3,110
586,A2OU924AC8XCYC:3HPZF4IVNO0L7IO683F4KPNPMH8CY6,2047,/static/images/2kfaces/Google_1_Mark Houser_17_oval.jpg,1,4,111
587,A2OU924AC8XCYC:3HPZF4IVNO0L7IO683F4KPNPMH8CY6,2283,/static/images/2kfaces/Google_1_Samuel Goff_1_oval.jpg,1,4,112
588,A2OU924AC8XCYC:3HPZF4IVNO0L7IO683F4KPNPMH8CY6,2012,/static/images/2kfaces/Google_1_Eric Osuna_3_oval.jpg,1,4,113
589,A2OU924AC8XCYC:3HPZF4IVNO0L7IO683F4KPNPMH8CY6,2981,/static/images/2kfaces/Brian_Mach_1_oval.jpg,1,3,114
590,A2OU924AC8XCYC:3HPZF4IVNO0L7IO683F4KPNPMH8CY6,4341,/static/images/2kfaces/Google_1_Stanley Kato_17_oval.jpg,1,3,115
591,A2OU924AC8XCYC:3HPZF4IVNO0L7IO683F4KPNPMH8CY6,2587,/static/images/2kfaces/Google_1_Gregory Arriola_3_oval.jpg,1,5,116
592,A2OU924AC8XCYC:3HPZF4IVNO0L7IO683F4KPNPMH8CY6,2405,/static/images/2kfaces/Google_1_Sean Raleigh_7_oval.jpg,1,5,117
593,A2OU924AC8XCYC:3HPZF4IVNO0L7IO683F4KPNPMH8CY6,3239,/static/images/2kfaces/Google_1_Marjorie Rule_3_oval.jpg,1,5,118
594,A2OU924AC8XCYC:3HPZF4IVNO0L7IO683F4KPNPMH8CY6,2293,/static/images/2kfaces/Google_1_Jose Monaghan_9_oval.jpg,1,5,119
595,A2OU924AC8XCYC:3HPZF4IVNO0L7IO683F4KPNPMH8CY6,2441,/static/images/2kfaces/Google_1_Gary Nance_3_oval.jpg,1,6,120
596,A2OU924AC8XCYC:3HPZF4IVNO0L7IO683F4KPNPMH8CY6,3778,/static/images/2kfaces/Google_1_Samuel Paschal_17_oval.jpg,1,6,121
597,A2OU924AC8XCYC:3HPZF4IVNO0L7IO683F4KPNPMH8CY6,3838,/static/images/2kfaces/Google_1_Erika Fletcher_1_oval.jpg,1,4,122
598,A2OU924AC8XCYC:3HPZF4IVNO0L7IO683F4KPNPMH8CY6,3552,/static/images/2kfaces/Google_1_Veronica Percy_7_oval.jpg,1,3,123
599,A2OU924AC8XCYC:3HPZF4IVNO0L7IO683F4KPNPMH8CY6,3824,/static/images/2kfaces/Google_1_Russell Gillam_17_oval.jpg,1,6,124
600,A2OU924AC8XCYC:3HPZF4IVNO0L7IO683F4KPNPMH8CY6,2440,/static/images/2kfaces/Google_1_Kara Mickelson_13_oval.jpg,1,6,125
601,A2OU924AC8XCYC:3HPZF4IVNO0L7IO683F4KPNPMH8CY6,2316,/static/images/2kfaces/Google_1_Timothy Galvan_11_oval.jpg,1,5,126
602,A2OU924AC8XCYC:3HPZF4IVNO0L7IO683F4KPNPMH8CY6,3227,/static/images/2kfaces/Google_1_Andrew Diggs_9_oval.jpg,1,4,127
603,A2OU924AC8XCYC:3HPZF4IVNO0L7IO683F4KPNPMH8CY6,3217,/static/images/2kfaces/Google_1_Steve Stamm_1_oval.jpg,1,7,128
604,A2OU924AC8XCYC:3HPZF4IVNO0L7IO683F4KPNPMH8CY6,4375,/static/images/2kfaces/Google_1_Colleen Summer_5_oval.jpg,1,5,130
605,A2OU924AC8XCYC:3HPZF4IVNO0L7IO683F4KPNPMH8CY6,3498,/static/images/2kfaces/Google_1_Leonard Overcash_5_oval.jpg,1,4,131
606,A2OU924AC8XCYC:3HPZF4IVNO0L7IO683F4KPNPMH8CY6,2283,/static/images/2kfaces/Google_1_Charlotte Dearborn_13_oval.jpg,1,5,132
607,A2OU924AC8XCYC:3HPZF4IVNO0L7IO683F4KPNPMH8CY6,3093,/static/images/2kfaces/Google_1_Alma Poor_7_oval.jpg,1,6,133
608,A2OU924AC8XCYC:3HPZF4IVNO0L7IO683F4KPNPMH8CY6,4791,/static/images/2kfaces/Google_1_Bryan Brunner_3_oval.jpg,1,3,134
609,A2OU924AC8XCYC:3HPZF4IVNO0L7IO683F4KPNPMH8CY6,3015,/static/images/2kfaces/Google_1_Cheryl Griffin_15_oval.jpg,1,6,135
610,A2OU924AC8XCYC:3HPZF4IVNO0L7IO683F4KPNPMH8CY6,2204,/static/images/2kfaces/Google_1_Paul Reno_1_oval.jpg,1,5,136
611,A2OU924AC8XCYC:3HPZF4IVNO0L7IO683F4KPNPMH8CY6,2462,/static/images/2kfaces/Google_1_Shelia Latham_17_oval.jpg,1,3,137
612,A2OU924AC8XCYC:3HPZF4IVNO0L7IO683F4KPNPMH8CY6,2811,/static/images/2kfaces/Google_1_Valerie Noble_9_oval.jpg,1,5,138
613,A2OU924AC8XCYC:3HPZF4IVNO0L7IO683F4KPNPMH8CY6,2238,/static/images/2kfaces/Google_1_Douglas Tanguay_9_oval.jpg,1,6,139
614,A2OU924AC8XCYC:3HPZF4IVNO0L7IO683F4KPNPMH8CY6,2530,/static/images/2kfaces/Google_1_Mark Detwiler_9_oval.jpg,1,6,140
615,A2OU924AC8XCYC:3HPZF4IVNO0L7IO683F4KPNPMH8CY6,1990,/static/images/2kfaces/Google_1_Donna Asberry_5_oval.jpg,1,6,141
616,A2OU924AC8XCYC:3HPZF4IVNO0L7IO683F4KPNPMH8CY6,3329,/static/images/2kfaces/Google_1_Billy Kiely_1_oval.jpg,1,4,142
617,A2OU924AC8XCYC:3HPZF4IVNO0L7IO683F4KPNPMH8CY6,2597,/static/images/2kfaces/Google_1_Leonard True_5_oval.jpg,1,6,143
618,A2OU924AC8XCYC:3HPZF4IVNO0L7IO683F4KPNPMH8CY6,2924,/static/images/2kfaces/Google_1_Beth Hollister_3_oval.jpg,1,6,144
619,A2OU924AC8XCYC:3HPZF4IVNO0L7IO683F4KPNPMH8CY6,3104,/static/images/2kfaces/Google_1_Eva Kirkman_15_oval.jpg,1,6,145
620,A2OU924AC8XCYC:3HPZF4IVNO0L7IO683F4KPNPMH8CY6,2294,/static/images/2kfaces/Google_1_Florence Lott_19_oval.jpg,1,6,146
621,A2OU924AC8XCYC:3HPZF4IVNO0L7IO683F4KPNPMH8CY6,2114,/static/images/2kfaces/Google_1_Paul Horst_15_oval.jpg,1,5,147
622,A2OU924AC8XCYC:3HPZF4IVNO0L7IO683F4KPNPMH8CY6,2947,/static/images/2kfaces/Google_1_Cindy Morehead_5_oval.jpg,1,4,148
623,A2OU924AC8XCYC:3HPZF4IVNO0L7IO683F4KPNPMH8CY6,1833,/static/images/2kfaces/Google_1_Kenneth Cabral_19_oval.jpg,1,5,149
624,A2OU924AC8XCYC:3HPZF4IVNO0L7IO683F4KPNPMH8CY6,3610,/static/images/2kfaces/Google_1_Gary Perri_3_oval.jpg,1,5,150
625,A2OU924AC8XCYC:3HPZF4IVNO0L7IO683F4KPNPMH8CY6,1844,/static/images/2kfaces/Google_1_Henry Gumm_19_oval.jpg,1,5,151
626,A2OU924AC8XCYC:3HPZF4IVNO0L7IO683F4KPNPMH8CY6,2362,/static/images/2kfaces/Google_1_Molly Palm_5_oval.jpg,1,5,152
627,A2OU924AC8XCYC:3HPZF4IVNO0L7IO683F4KPNPMH8CY6,3002,/static/images/2kfaces/Google_1_Sarah Woodcock_3_oval.jpg,1,4,153
628,A2OU924AC8XCYC:3HPZF4IVNO0L7IO683F4KPNPMH8CY6,3171,/static/images/2kfaces/Google_1_Gertrude Bayne_11_oval.jpg,1,4,154
629,A2OU924AC8XCYC:3HPZF4IVNO0L7IO683F4KPNPMH8CY6,2102,/static/images/2kfaces/Google_1_Ryan Marvel_15_oval.jpg,1,5,155
630,A2OU924AC8XCYC:3HPZF4IVNO0L7IO683F4KPNPMH8CY6,2576,/static/images/2kfaces/Google_1_Gloria Canada_13_oval.jpg,1,5,156
631,A2OU924AC8XCYC:3HPZF4IVNO0L7IO683F4KPNPMH8CY6,3014,/static/images/2kfaces/Google_1_Stephen Conley_1_oval.jpg,1,5,157
632,A2OU924AC8XCYC:3HPZF4IVNO0L7IO683F4KPNPMH8CY6,3699,/static/images/2kfaces/Bryan_Shanklin_9_oval.jpg,1,5,158
633,A2OU924AC8XCYC:3HPZF4IVNO0L7IO683F4KPNPMH8CY6,2620,/static/images/2kfaces/Google_1_Victoria Ambrose_17_oval.jpg,1,5,159
634,A2OU924AC8XCYC:3HPZF4IVNO0L7IO683F4KPNPMH8CY6,2417,/static/images/2kfaces/Google_1_Rose Barlow_1_oval.jpg,1,3,160
635,A2OU924AC8XCYC:3HPZF4IVNO0L7IO683F4KPNPMH8CY6,2430,/static/images/2kfaces/Google_1_Claudia Rohrer_13_oval.jpg,1,3,161
636,A2OU924AC8XCYC:3HPZF4IVNO0L7IO683F4KPNPMH8CY6,2687,/static/images/2kfaces/Google_1_Frank Luke_9_oval.jpg,1,4,162
637,A2OU924AC8XCYC:3HPZF4IVNO0L7IO683F4KPNPMH8CY6,2879,/static/images/2kfaces/Google_1_Kathleen Sartain_1_oval.jpg,1,6,163
638,A2OU924AC8XCYC:3HPZF4IVNO0L7IO683F4KPNPMH8CY6,2553,/static/images/2kfaces/Google_1_Tina Middleton_7_oval.jpg,1,6,164
639,A2OU924AC8XCYC:3HPZF4IVNO0L7IO683F4KPNPMH8CY6,4094,/static/images/2kfaces/Google_1_Wilma Allman_15_oval.jpg,1,5,165
640,A2OU924AC8XCYC:3HPZF4IVNO0L7IO683F4KPNPMH8CY6,2475,/static/images/2kfaces/Google_1_Frank Whitehouse_3_oval.jpg,1,4,166
641,A2OU924AC8XCYC:3HPZF4IVNO0L7IO683F4KPNPMH8CY6,2057,/static/images/2kfaces/Google_1_Kenneth Rigsby_15_oval.jpg,1,4,167
642,A2OU924AC8XCYC:3HPZF4IVNO0L7IO683F4KPNPMH8CY6,2889,/static/images/2kfaces/Google_1_Rodney Wyant_13_oval.jpg,1,3,168
643,A2OU924AC8XCYC:3HPZF4IVNO0L7IO683F4KPNPMH8CY6,3971,/static/images/2kfaces/Google_1_Amelia Lines_11_oval.jpg,1,5,169
644,A1TLNLB9D87H6:33SA9F9TRZ1WFBDKPT3BPG2CWLMWEL,10526,/static/images/faces/empty-image-1.jpg,False,5,4
645,A1TLNLB9D87H6:33SA9F9TRZ1WFBDKPT3BPG2CWLMWEL,6632,/static/images/2kfaces/Google_1_Marjorie Rule_3_oval.jpg,0,3,6
646,A1TLNLB9D87H6:33SA9F9TRZ1WFBDKPT3BPG2CWLMWEL,4243,/static/images/2kfaces/Google_1_Joshua Lessard_11_oval.jpg,0,9,7
647,A1TLNLB9D87H6:33SA9F9TRZ1WFBDKPT3BPG2CWLMWEL,3187,/static/images/2kfaces/Google_1_Claudia Rohrer_13_oval.jpg,0,1,8
648,A1TLNLB9D87H6:33SA9F9TRZ1WFBDKPT3BPG2CWLMWEL,2604,/static/images/2kfaces/Google_1_Henry Gumm_19_oval.jpg,0,5,9
649,A1TLNLB9D87H6:33SA9F9TRZ1WFBDKPT3BPG2CWLMWEL,3767,/static/images/2kfaces/Google_1_Colleen Summer_5_oval.jpg,0,7,10
650,A1TLNLB9D87H6:33SA9F9TRZ1WFBDKPT3BPG2CWLMWEL,4201,/static/images/2kfaces/Google_1_Shelia Latham_17_oval.jpg,0,1,11
651,A1TLNLB9D87H6:33SA9F9TRZ1WFBDKPT3BPG2CWLMWEL,18057,/static/images/2kfaces/Google_1_Ronald Driver_19_oval.jpg,0,7,12
652,A1TLNLB9D87H6:33SA9F9TRZ1WFBDKPT3BPG2CWLMWEL,3441,/static/images/2kfaces/Google_1_Steve Stamm_1_oval.jpg,0,2,13
653,A1TLNLB9D87H6:33SA9F9TRZ1WFBDKPT3BPG2CWLMWEL,7094,/static/images/2kfaces/Google_1_Amelia Lines_11_oval.jpg,0,1,14
654,A1TLNLB9D87H6:33SA9F9TRZ1WFBDKPT3BPG2CWLMWEL,2980,/static/images/2kfaces/Brian_Mach_1_oval.jpg,0,1,15
655,A1TLNLB9D87H6:33SA9F9TRZ1WFBDKPT3BPG2CWLMWEL,4228,/static/images/2kfaces/Google_1_Kenneth Cabral_19_oval.jpg,0,6,16
656,A1TLNLB9D87H6:33SA9F9TRZ1WFBDKPT3BPG2CWLMWEL,2815,/static/images/2kfaces/Google_1_Kara Mickelson_13_oval.jpg,0,1,17
657,A1TLNLB9D87H6:33SA9F9TRZ1WFBDKPT3BPG2CWLMWEL,4651,/static/images/2kfaces/Google_1_Florence Lott_19_oval.jpg,0,9,18
658,A1TLNLB9D87H6:33SA9F9TRZ1WFBDKPT3BPG2CWLMWEL,3418,/static/images/2kfaces/Google_1_Mark Detwiler_9_oval.jpg,0,2,19
659,A1TLNLB9D87H6:33SA9F9TRZ1WFBDKPT3BPG2CWLMWEL,3115,/static/images/2kfaces/Google_1_Norman Westfall_5_oval.jpg,0,2,20
660,A1TLNLB9D87H6:33SA9F9TRZ1WFBDKPT3BPG2CWLMWEL,2512,/static/images/2kfaces/Google_1_Charlotte Dearborn_13_oval.jpg,0,1,21
661,A1TLNLB9D87H6:33SA9F9TRZ1WFBDKPT3BPG2CWLMWEL,3336,/static/images/2kfaces/Google_1_Andrew Diggs_9_oval.jpg,0,1,22
662,A1TLNLB9D87H6:33SA9F9TRZ1WFBDKPT3BPG2CWLMWEL,2584,/static/images/2kfaces/Google_1_Florence Melton_1_oval.jpg,0,1,23
663,A1TLNLB9D87H6:33SA9F9TRZ1WFBDKPT3BPG2CWLMWEL,3831,/static/images/2kfaces/Google_1_Veronica Percy_7_oval.jpg,0,3,24
664,A1TLNLB9D87H6:33SA9F9TRZ1WFBDKPT3BPG2CWLMWEL,2811,/static/images/2kfaces/Google_1_Beth Hollister_3_oval.jpg,0,9,25
665,A1TLNLB9D87H6:33SA9F9TRZ1WFBDKPT3BPG2CWLMWEL,3354,/static/images/2kfaces/Google_1_Cheryl Griffin_15_oval.jpg,0,3,26
666,A1TLNLB9D87H6:33SA9F9TRZ1WFBDKPT3BPG2CWLMWEL,2736,/static/images/2kfaces/Google_1_Paul Reno_1_oval.jpg,0,1,27
667,A1TLNLB9D87H6:33SA9F9TRZ1WFBDKPT3BPG2CWLMWEL,3332,/static/images/2kfaces/Google_1_Kenneth Rigsby_15_oval.jpg,0,4,28
668,A1TLNLB9D87H6:33SA9F9TRZ1WFBDKPT3BPG2CWLMWEL,3178,/static/images/2kfaces/Google_1_Donald Shaw_13_oval.jpg,0,6,29
669,A1TLNLB9D87H6:33SA9F9TRZ1WFBDKPT3BPG2CWLMWEL,3511,/static/images/2kfaces/Google_1_Rodney Wyant_13_oval.jpg,0,1,30
670,A1TLNLB9D87H6:33SA9F9TRZ1WFBDKPT3BPG2CWLMWEL,3341,/static/images/2kfaces/Google_1_Stanley Rowden_19_oval.jpg,0,1,31
671,A1TLNLB9D87H6:33SA9F9TRZ1WFBDKPT3BPG2CWLMWEL,2598,/static/images/2kfaces/Google_1_Sean Raleigh_7_oval.jpg,0,2,32
672,A1TLNLB9D87H6:33SA9F9TRZ1WFBDKPT3BPG2CWLMWEL,3395,/static/images/2kfaces/Google_1_Leonard True_5_oval.jpg,0,7,33
673,A1TLNLB9D87H6:33SA9F9TRZ1WFBDKPT3BPG2CWLMWEL,2699,/static/images/2kfaces/Google_1_Wilma Allman_15_oval.jpg,0,5,34
674,A1TLNLB9D87H6:33SA9F9TRZ1WFBDKPT3BPG2CWLMWEL,2808,/static/images/2kfaces/Google_1_Donna Asberry_5_oval.jpg,0,1,35
675,A1TLNLB9D87H6:33SA9F9TRZ1WFBDKPT3BPG2CWLMWEL,3908,/static/images/2kfaces/Google_1_Alma Poor_7_oval.jpg,0,2,36
676,A1TLNLB9D87H6:33SA9F9TRZ1WFBDKPT3BPG2CWLMWEL,3981,/static/images/2kfaces/Google_1_Gertrude Bayne_11_oval.jpg,0,1,37
677,A1TLNLB9D87H6:33SA9F9TRZ1WFBDKPT3BPG2CWLMWEL,4701,/static/images/2kfaces/Google_1_Gary Perri_3_oval.jpg,0,2,38
678,A1TLNLB9D87H6:33SA9F9TRZ1WFBDKPT3BPG2CWLMWEL,3116,/static/images/2kfaces/Google_1_Shelley Lund_5_oval.jpg,0,6,39
679,A1TLNLB9D87H6:33SA9F9TRZ1WFBDKPT3BPG2CWLMWEL,3198,/static/images/2kfaces/Alice_Mckellar_11_oval.jpg,0,7,40
680,A1TLNLB9D87H6:33SA9F9TRZ1WFBDKPT3BPG2CWLMWEL,2944,/static/images/2kfaces/Google_1_Stanley Kato_17_oval.jpg,0,8,41
681,A1TLNLB9D87H6:33SA9F9TRZ1WFBDKPT3BPG2CWLMWEL,2480,/static/images/2kfaces/Google_1_Molly Palm_5_oval.jpg,0,1,42
682,A1TLNLB9D87H6:33SA9F9TRZ1WFBDKPT3BPG2CWLMWEL,2759,/static/images/2kfaces/Google_1_Valerie Noble_9_oval.jpg,0,2,43
683,A1TLNLB9D87H6:33SA9F9TRZ1WFBDKPT3BPG2CWLMWEL,2613,/static/images/2kfaces/Google_1_Mark Houser_17_oval.jpg,0,4,44
684,A1TLNLB9D87H6:33SA9F9TRZ1WFBDKPT3BPG2CWLMWEL,3767,/static/images/2kfaces/Google_1_Diana Bateman_7_oval.jpg,0,1,45
685,A1TLNLB9D87H6:33SA9F9TRZ1WFBDKPT3BPG2CWLMWEL,3924,/static/images/2kfaces/Google_1_Erika Fletcher_1_oval.jpg,0,5,47
686,A1TLNLB9D87H6:33SA9F9TRZ1WFBDKPT3BPG2CWLMWEL,2902,/static/images/2kfaces/Google_1_Stephen Conley_1_oval.jpg,0,1,48
687,A1TLNLB9D87H6:33SA9F9TRZ1WFBDKPT3BPG2CWLMWEL,2780,/static/images/2kfaces/Google_1_Jeffery Mcclinton_7-oval.jpg,0,2,49
688,A1TLNLB9D87H6:33SA9F9TRZ1WFBDKPT3BPG2CWLMWEL,2968,/static/images/2kfaces/Google_1_Ernest Crump_3_oval.jpg,0,6,50
689,A1TLNLB9D87H6:33SA9F9TRZ1WFBDKPT3BPG2CWLMWEL,4135,/static/images/2kfaces/Google_1_Bryan Brunner_3_oval.jpg,0,1,51
690,A1TLNLB9D87H6:33SA9F9TRZ1WFBDKPT3BPG2CWLMWEL,2863,/static/images/2kfaces/Google_1_Claudia Olivarez_9_oval.jpg,0,6,52
691,A1TLNLB9D87H6:33SA9F9TRZ1WFBDKPT3BPG2CWLMWEL,2940,/static/images/2kfaces/Google_1_Louis Mceachern_7_oval.jpg,0,9,53
692,A1TLNLB9D87H6:33SA9F9TRZ1WFBDKPT3BPG2CWLMWEL,5354,/static/images/2kfaces/Google_1_Gary Nance_3_oval.jpg,0,3,54
693,A1TLNLB9D87H6:33SA9F9TRZ1WFBDKPT3BPG2CWLMWEL,2643,/static/images/2kfaces/Google_1_Rose Barlow_1_oval.jpg,0,1,55
694,A1TLNLB9D87H6:33SA9F9TRZ1WFBDKPT3BPG2CWLMWEL,3266,/static/images/2kfaces/Google_1_Jonathan Marek_5_oval.jpg,0,7,56
695,A1TLNLB9D87H6:33SA9F9TRZ1WFBDKPT3BPG2CWLMWEL,2415,/static/images/2kfaces/Google_1_Eva Kirkman_15_oval.jpg,0,1,57
696,A1TLNLB9D87H6:33SA9F9TRZ1WFBDKPT3BPG2CWLMWEL,2820,/static/images/2kfaces/Google_1_Sarah Woodcock_3_oval.jpg,0,7,58
697,A1TLNLB9D87H6:33SA9F9TRZ1WFBDKPT3BPG2CWLMWEL,2940,/static/images/2kfaces/Google_1_Sherry Mcmichael_11_oval.jpg,0,3,59
698,A1TLNLB9D87H6:33SA9F9TRZ1WFBDKPT3BPG2CWLMWEL,5236,/static/images/2kfaces/Google_1_Jose Monaghan_9_oval.jpg,0,3,60
699,A1TLNLB9D87H6:33SA9F9TRZ1WFBDKPT3BPG2CWLMWEL,3012,/static/images/2kfaces/Google_1_Frank Luke_9_oval.jpg,0,4,61
700,A1TLNLB9D87H6:33SA9F9TRZ1WFBDKPT3BPG2CWLMWEL,2904,/static/images/2kfaces/Google_1_Cindy Morehead_5_oval.jpg,0,1,62
701,A1TLNLB9D87H6:33SA9F9TRZ1WFBDKPT3BPG2CWLMWEL,3338,/static/images/2kfaces/Bryan_Shanklin_9_oval.jpg,0,3,63
702,A1TLNLB9D87H6:33SA9F9TRZ1WFBDKPT3BPG2CWLMWEL,2606,/static/images/2kfaces/Google_1_Carole Bentley_7_oval.jpg,0,1,64
703,A1TLNLB9D87H6:33SA9F9TRZ1WFBDKPT3BPG2CWLMWEL,3235,/static/images/2kfaces/Google_1_Frank Whitehouse_3_oval.jpg,0,9,65
704,A1TLNLB9D87H6:33SA9F9TRZ1WFBDKPT3BPG2CWLMWEL,2336,/static/images/2kfaces/Google_1_Gregory Arriola_3_oval.jpg,0,1,66
705,A1TLNLB9D87H6:33SA9F9TRZ1WFBDKPT3BPG2CWLMWEL,2691,/static/images/2kfaces/Google_1_Ryan Marvel_15_oval.jpg,0,7,67
706,A1TLNLB9D87H6:33SA9F9TRZ1WFBDKPT3BPG2CWLMWEL,2787,/static/images/2kfaces/Google_1_Timothy Galvan_11_oval.jpg,0,2,68
707,A1TLNLB9D87H6:33SA9F9TRZ1WFBDKPT3BPG2CWLMWEL,2849,/static/images/2kfaces/Google_1_Tina Middleton_7_oval.jpg,0,1,69
708,A1TLNLB9D87H6:33SA9F9TRZ1WFBDKPT3BPG2CWLMWEL,2991,/static/images/2kfaces/Google_1_Gloria Canada_13_oval.jpg,0,1,70
709,A1TLNLB9D87H6:33SA9F9TRZ1WFBDKPT3BPG2CWLMWEL,7277,/static/images/2kfaces/Google_1_Eric Osuna_3_oval.jpg,0,1,71
710,A1TLNLB9D87H6:33SA9F9TRZ1WFBDKPT3BPG2CWLMWEL,3105,/static/images/2kfaces/Google_1_Antonio Benn_12_oval.jpg,0,1,72
711,A1TLNLB9D87H6:33SA9F9TRZ1WFBDKPT3BPG2CWLMWEL,2717,/static/images/2kfaces/Google_1_Sara Guajardo_1_oval.jpg,0,2,73
712,A1TLNLB9D87H6:33SA9F9TRZ1WFBDKPT3BPG2CWLMWEL,2753,/static/images/2kfaces/Google_1_Matthew Vanbuskirk_1_oval.jpg,0,1,74
713,A1TLNLB9D87H6:33SA9F9TRZ1WFBDKPT3BPG2CWLMWEL,2506,/static/images/2kfaces/Google_1_Billy Kiely_1_oval.jpg,0,1,75
714,A1TLNLB9D87H6:33SA9F9TRZ1WFBDKPT3BPG2CWLMWEL,2413,/static/images/2kfaces/Google_1_Jeff Williford_7_oval.jpg,0,1,76
715,A1TLNLB9D87H6:33SA9F9TRZ1WFBDKPT3BPG2CWLMWEL,3872,/static/images/2kfaces/Google_1_Leonard Overcash_5_oval.jpg,0,9,77
716,A1TLNLB9D87H6:33SA9F9TRZ1WFBDKPT3BPG2CWLMWEL,2687,/static/images/2kfaces/Google_1_Samuel Paschal_17_oval.jpg,0,1,78
717,A1TLNLB9D87H6:33SA9F9TRZ1WFBDKPT3BPG2CWLMWEL,4375,/static/images/2kfaces/Google_1_Samuel Goff_1_oval.jpg,0,1,79
718,A1TLNLB9D87H6:33SA9F9TRZ1WFBDKPT3BPG2CWLMWEL,3127,/static/images/2kfaces/Google_1_Paul Horst_15_oval.jpg,0,1,80
719,A1TLNLB9D87H6:33SA9F9TRZ1WFBDKPT3BPG2CWLMWEL,2944,/static/images/2kfaces/Google_1_Victoria Ambrose_17_oval.jpg,0,7,81
720,A1TLNLB9D87H6:33SA9F9TRZ1WFBDKPT3BPG2CWLMWEL,3072,/static/images/2kfaces/Google_1_Vera Becker_5_oval.jpg,0,1,82
721,A1TLNLB9D87H6:33SA9F9TRZ1WFBDKPT3BPG2CWLMWEL,2942,/static/images/2kfaces/Google_1_Douglas Tanguay_9_oval.jpg,0,1,83
722,A1TLNLB9D87H6:33SA9F9TRZ1WFBDKPT3BPG2CWLMWEL,2753,/static/images/2kfaces/Google_1_Russell Gillam_17_oval.jpg,0,5,84
723,A1TLNLB9D87H6:33SA9F9TRZ1WFBDKPT3BPG2CWLMWEL,4768,/static/images/2kfaces/Google_1_Kathleen Sartain_1_oval.jpg,0,4,85
724,A1TLNLB9D87H6:33SA9F9TRZ1WFBDKPT3BPG2CWLMWEL,2677,/static/images/2kfaces/Google_1_Belinda Dupuis_9_oval.jpg,0,1,86
725,A1TLNLB9D87H6:33SA9F9TRZ1WFBDKPT3BPG2CWLMWEL,3182,/static/images/2kfaces/Google_1_Claudia Olivarez_9_oval.jpg,1,9,89
726,A1TLNLB9D87H6:33SA9F9TRZ1WFBDKPT3BPG2CWLMWEL,2482,/static/images/2kfaces/Google_1_Sherry Mcmichael_11_oval.jpg,1,1,90
727,A1TLNLB9D87H6:33SA9F9TRZ1WFBDKPT3BPG2CWLMWEL,3150,/static/images/2kfaces/Google_1_Stanley Kato_17_oval.jpg,1,9,91
728,A1TLNLB9D87H6:33SA9F9TRZ1WFBDKPT3BPG2CWLMWEL,4451,/static/images/2kfaces/Google_1_Jonathan Marek_5_oval.jpg,1,7,92
729,A1TLNLB9D87H6:33SA9F9TRZ1WFBDKPT3BPG2CWLMWEL,2488,/static/images/2kfaces/Google_1_Stephen Conley_1_oval.jpg,1,2,93
730,A1TLNLB9D87H6:33SA9F9TRZ1WFBDKPT3BPG2CWLMWEL,2420,/static/images/2kfaces/Google_1_Gary Nance_3_oval.jpg,1,1,94
731,A1TLNLB9D87H6:33SA9F9TRZ1WFBDKPT3BPG2CWLMWEL,2978,/static/images/2kfaces/Google_1_Jeffery Mcclinton_7-oval.jpg,1,2,95
732,A1TLNLB9D87H6:33SA9F9TRZ1WFBDKPT3BPG2CWLMWEL,2319,/static/images/2kfaces/Google_1_Rodney Wyant_13_oval.jpg,1,1,96
733,A1TLNLB9D87H6:33SA9F9TRZ1WFBDKPT3BPG2CWLMWEL,3247,/static/images/2kfaces/Google_1_Shelley Lund_5_oval.jpg,1,4,97
734,A1TLNLB9D87H6:33SA9F9TRZ1WFBDKPT3BPG2CWLMWEL,2075,/static/images/2kfaces/Google_1_Stanley Rowden_19_oval.jpg,1,1,98
735,A1TLNLB9D87H6:33SA9F9TRZ1WFBDKPT3BPG2CWLMWEL,2775,/static/images/2kfaces/Google_1_Paul Horst_15_oval.jpg,1,1,99
736,A1TLNLB9D87H6:33SA9F9TRZ1WFBDKPT3BPG2CWLMWEL,2596,/static/images/2kfaces/Google_1_Andrew Diggs_9_oval.jpg,1,1,100
737,A1TLNLB9D87H6:33SA9F9TRZ1WFBDKPT3BPG2CWLMWEL,2650,/static/images/2kfaces/Google_1_Florence Lott_19_oval.jpg,1,9,101
738,A1TLNLB9D87H6:33SA9F9TRZ1WFBDKPT3BPG2CWLMWEL,2233,/static/images/2kfaces/Google_1_Amelia Lines_11_oval.jpg,1,1,102
739,A1TLNLB9D87H6:33SA9F9TRZ1WFBDKPT3BPG2CWLMWEL,3004,/static/images/2kfaces/Google_1_Joshua Lessard_11_oval.jpg,1,9,103
740,A1TLNLB9D87H6:33SA9F9TRZ1WFBDKPT3BPG2CWLMWEL,3109,/static/images/2kfaces/Google_1_Douglas Tanguay_9_oval.jpg,1,2,104
741,A1TLNLB9D87H6:33SA9F9TRZ1WFBDKPT3BPG2CWLMWEL,3116,/static/images/2kfaces/Google_1_Gary Perri_3_oval.jpg,1,1,105
742,A1TLNLB9D87H6:33SA9F9TRZ1WFBDKPT3BPG2CWLMWEL,2082,/static/images/2kfaces/Google_1_Mark Houser_17_oval.jpg,1,3,106
743,A1TLNLB9D87H6:33SA9F9TRZ1WFBDKPT3BPG2CWLMWEL,2249,/static/images/2kfaces/Google_1_Samuel Paschal_17_oval.jpg,1,1,107
744,A1TLNLB9D87H6:33SA9F9TRZ1WFBDKPT3BPG2CWLMWEL,2699,/static/images/2kfaces/Google_1_Vera Becker_5_oval.jpg,1,1,108
745,A1TLNLB9D87H6:33SA9F9TRZ1WFBDKPT3BPG2CWLMWEL,3626,/static/images/2kfaces/Google_1_Molly Palm_5_oval.jpg,1,1,109
746,A1TLNLB9D87H6:33SA9F9TRZ1WFBDKPT3BPG2CWLMWEL,2339,/static/images/2kfaces/Google_1_Sarah Woodcock_3_oval.jpg,1,6,110
747,A1TLNLB9D87H6:33SA9F9TRZ1WFBDKPT3BPG2CWLMWEL,2228,/static/images/2kfaces/Google_1_Claudia Rohrer_13_oval.jpg,1,1,111
748,A1TLNLB9D87H6:33SA9F9TRZ1WFBDKPT3BPG2CWLMWEL,2262,/static/images/2kfaces/Google_1_Antonio Benn_12_oval.jpg,1,1,112
749,A1TLNLB9D87H6:33SA9F9TRZ1WFBDKPT3BPG2CWLMWEL,2280,/static/images/2kfaces/Google_1_Valerie Noble_9_oval.jpg,1,2,113
750,A1TLNLB9D87H6:33SA9F9TRZ1WFBDKPT3BPG2CWLMWEL,2480,/static/images/2kfaces/Google_1_Louis Mceachern_7_oval.jpg,1,9,114
751,A1TLNLB9D87H6:33SA9F9TRZ1WFBDKPT3BPG2CWLMWEL,2401,/static/images/2kfaces/Google_1_Cindy Morehead_5_oval.jpg,1,1,115
752,A1TLNLB9D87H6:33SA9F9TRZ1WFBDKPT3BPG2CWLMWEL,2409,/static/images/2kfaces/Google_1_Mark Detwiler_9_oval.jpg,1,1,116
753,A1TLNLB9D87H6:33SA9F9TRZ1WFBDKPT3BPG2CWLMWEL,2052,/static/images/2kfaces/Google_1_Leonard Overcash_5_oval.jpg,1,9,117
754,A1TLNLB9D87H6:33SA9F9TRZ1WFBDKPT3BPG2CWLMWEL,2037,/static/images/2kfaces/Google_1_Timothy Galvan_11_oval.jpg,1,1,118
755,A1TLNLB9D87H6:33SA9F9TRZ1WFBDKPT3BPG2CWLMWEL,2292,/static/images/2kfaces/Google_1_Matthew Vanbuskirk_1_oval.jpg,1,1,119
756,A1TLNLB9D87H6:33SA9F9TRZ1WFBDKPT3BPG2CWLMWEL,2455,/static/images/2kfaces/Google_1_Sean Raleigh_7_oval.jpg,1,1,120
757,A1TLNLB9D87H6:33SA9F9TRZ1WFBDKPT3BPG2CWLMWEL,2133,/static/images/2kfaces/Google_1_Florence Melton_1_oval.jpg,1,1,121
758,A1TLNLB9D87H6:33SA9F9TRZ1WFBDKPT3BPG2CWLMWEL,2052,/static/images/2kfaces/Google_1_Marjorie Rule_3_oval.jpg,1,1,122
759,A1TLNLB9D87H6:33SA9F9TRZ1WFBDKPT3BPG2CWLMWEL,2030,/static/images/2kfaces/Google_1_Erika Fletcher_1_oval.jpg,1,6,123
760,A1TLNLB9D87H6:33SA9F9TRZ1WFBDKPT3BPG2CWLMWEL,1995,/static/images/2kfaces/Google_1_Steve Stamm_1_oval.jpg,1,1,124
761,A1TLNLB9D87H6:33SA9F9TRZ1WFBDKPT3BPG2CWLMWEL,2152,/static/images/2kfaces/Google_1_Tina Middleton_7_oval.jpg,1,1,125
762,A1TLNLB9D87H6:33SA9F9TRZ1WFBDKPT3BPG2CWLMWEL,2124,/static/images/2kfaces/Bryan_Shanklin_9_oval.jpg,1,3,126
763,A1TLNLB9D87H6:33SA9F9TRZ1WFBDKPT3BPG2CWLMWEL,3071,/static/images/2kfaces/Google_1_Diana Bateman_7_oval.jpg,1,2,127
764,A1TLNLB9D87H6:33SA9F9TRZ1WFBDKPT3BPG2CWLMWEL,3393,/static/images/2kfaces/Google_1_Norman Westfall_5_oval.jpg,1,2,128
765,A1TLNLB9D87H6:33SA9F9TRZ1WFBDKPT3BPG2CWLMWEL,3375,/static/images/2kfaces/Google_1_Gertrude Bayne_11_oval.jpg,1,1,130
766,A1TLNLB9D87H6:33SA9F9TRZ1WFBDKPT3BPG2CWLMWEL,2012,/static/images/2kfaces/Google_1_Rose Barlow_1_oval.jpg,1,1,131
767,A1TLNLB9D87H6:33SA9F9TRZ1WFBDKPT3BPG2CWLMWEL,1938,/static/images/2kfaces/Google_1_Charlotte Dearborn_13_oval.jpg,1,1,132
768,A1TLNLB9D87H6:33SA9F9TRZ1WFBDKPT3BPG2CWLMWEL,2196,/static/images/2kfaces/Google_1_Gloria Canada_13_oval.jpg,1,1,133
769,A1TLNLB9D87H6:33SA9F9TRZ1WFBDKPT3BPG2CWLMWEL,2219,/static/images/2kfaces/Alice_Mckellar_11_oval.jpg,1,6,134
770,A1TLNLB9D87H6:33SA9F9TRZ1WFBDKPT3BPG2CWLMWEL,2813,/static/images/2kfaces/Google_1_Kathleen Sartain_1_oval.jpg,1,4,135
771,A1TLNLB9D87H6:33SA9F9TRZ1WFBDKPT3BPG2CWLMWEL,2681,/static/images/2kfaces/Google_1_Ernest Crump_3_oval.jpg,1,5,136
772,A1TLNLB9D87H6:33SA9F9TRZ1WFBDKPT3BPG2CWLMWEL,2403,/static/images/2kfaces/Google_1_Frank Luke_9_oval.jpg,1,4,137
773,A1TLNLB9D87H6:33SA9F9TRZ1WFBDKPT3BPG2CWLMWEL,1941,/static/images/2kfaces/Google_1_Eric Osuna_3_oval.jpg,1,1,138
774,A1TLNLB9D87H6:33SA9F9TRZ1WFBDKPT3BPG2CWLMWEL,2467,/static/images/2kfaces/Google_1_Belinda Dupuis_9_oval.jpg,1,1,139
775,A1TLNLB9D87H6:33SA9F9TRZ1WFBDKPT3BPG2CWLMWEL,2030,/static/images/2kfaces/Google_1_Jeff Williford_7_oval.jpg,1,1,140
776,A1TLNLB9D87H6:33SA9F9TRZ1WFBDKPT3BPG2CWLMWEL,1964,/static/images/2kfaces/Google_1_Veronica Percy_7_oval.jpg,1,1,141
777,A1TLNLB9D87H6:33SA9F9TRZ1WFBDKPT3BPG2CWLMWEL,2107,/static/images/2kfaces/Google_1_Paul Reno_1_oval.jpg,1,1,142
778,A1TLNLB9D87H6:33SA9F9TRZ1WFBDKPT3BPG2CWLMWEL,3206,/static/images/2kfaces/Google_1_Eva Kirkman_15_oval.jpg,1,1,143
779,A1TLNLB9D87H6:33SA9F9TRZ1WFBDKPT3BPG2CWLMWEL,2170,/static/images/2kfaces/Google_1_Sara Guajardo_1_oval.jpg,1,1,144
780,A1TLNLB9D87H6:33SA9F9TRZ1WFBDKPT3BPG2CWLMWEL,1848,/static/images/2kfaces/Google_1_Bryan Brunner_3_oval.jpg,1,1,145
781,A1TLNLB9D87H6:33SA9F9TRZ1WFBDKPT3BPG2CWLMWEL,2029,/static/images/2kfaces/Google_1_Alma Poor_7_oval.jpg,1,1,146
782,A1TLNLB9D87H6:33SA9F9TRZ1WFBDKPT3BPG2CWLMWEL,2683,/static/images/2kfaces/Google_1_Colleen Summer_5_oval.jpg,1,3,147
783,A1TLNLB9D87H6:33SA9F9TRZ1WFBDKPT3BPG2CWLMWEL,6925,/static/images/2kfaces/Google_1_Ronald Driver_19_oval.jpg,1,4,148
784,A1TLNLB9D87H6:33SA9F9TRZ1WFBDKPT3BPG2CWLMWEL,2419,/static/images/2kfaces/Google_1_Frank Whitehouse_3_oval.jpg,1,9,149
785,A1TLNLB9D87H6:33SA9F9TRZ1WFBDKPT3BPG2CWLMWEL,3388,/static/images/2kfaces/Google_1_Henry Gumm_19_oval.jpg,1,2,150
786,A1TLNLB9D87H6:33SA9F9TRZ1WFBDKPT3BPG2CWLMWEL,2127,/static/images/2kfaces/Google_1_Gregory Arriola_3_oval.jpg,1,1,151
787,A1TLNLB9D87H6:33SA9F9TRZ1WFBDKPT3BPG2CWLMWEL,2340,/static/images/2kfaces/Brian_Mach_1_oval.jpg,1,1,152
788,A1TLNLB9D87H6:33SA9F9TRZ1WFBDKPT3BPG2CWLMWEL,2106,/static/images/2kfaces/Google_1_Donald Shaw_13_oval.jpg,1,2,153
789,A1TLNLB9D87H6:33SA9F9TRZ1WFBDKPT3BPG2CWLMWEL,2879,/static/images/2kfaces/Google_1_Wilma Allman_15_oval.jpg,1,4,154
790,A1TLNLB9D87H6:33SA9F9TRZ1WFBDKPT3BPG2CWLMWEL,11284,/static/images/2kfaces/Google_1_Kenneth Cabral_19_oval.jpg,1,8,155
791,A1TLNLB9D87H6:33SA9F9TRZ1WFBDKPT3BPG2CWLMWEL,4452,/static/images/2kfaces/Google_1_Leonard True_5_oval.jpg,1,6,156
792,A1TLNLB9D87H6:33SA9F9TRZ1WFBDKPT3BPG2CWLMWEL,2619,/static/images/2kfaces/Google_1_Ryan Marvel_15_oval.jpg,1,5,157
793,A1TLNLB9D87H6:33SA9F9TRZ1WFBDKPT3BPG2CWLMWEL,3147,/static/images/2kfaces/Google_1_Samuel Goff_1_oval.jpg,1,1,158
794,A1TLNLB9D87H6:33SA9F9TRZ1WFBDKPT3BPG2CWLMWEL,2954,/static/images/2kfaces/Google_1_Victoria Ambrose_17_oval.jpg,1,4,159
795,A1TLNLB9D87H6:33SA9F9TRZ1WFBDKPT3BPG2CWLMWEL,3181,/static/images/2kfaces/Google_1_Kara Mickelson_13_oval.jpg,1,1,160
796,A1TLNLB9D87H6:33SA9F9TRZ1WFBDKPT3BPG2CWLMWEL,3004,/static/images/2kfaces/Google_1_Carole Bentley_7_oval.jpg,1,1,161
797,A1TLNLB9D87H6:33SA9F9TRZ1WFBDKPT3BPG2CWLMWEL,4119,/static/images/2kfaces/Google_1_Russell Gillam_17_oval.jpg,1,5,162
798,A1TLNLB9D87H6:33SA9F9TRZ1WFBDKPT3BPG2CWLMWEL,2569,/static/images/2kfaces/Google_1_Shelia Latham_17_oval.jpg,1,1,163
799,A1TLNLB9D87H6:33SA9F9TRZ1WFBDKPT3BPG2CWLMWEL,3096,/static/images/2kfaces/Google_1_Kenneth Rigsby_15_oval.jpg,1,2,164
800,A1TLNLB9D87H6:33SA9F9TRZ1WFBDKPT3BPG2CWLMWEL,3009,/static/images/2kfaces/Google_1_Billy Kiely_1_oval.jpg,1,1,165
801,A1TLNLB9D87H6:33SA9F9TRZ1WFBDKPT3BPG2CWLMWEL,2590,/static/images/2kfaces/Google_1_Jose Monaghan_9_oval.jpg,1,2,166
802,A1TLNLB9D87H6:33SA9F9TRZ1WFBDKPT3BPG2CWLMWEL,3237,/static/images/2kfaces/Google_1_Beth Hollister_3_oval.jpg,1,8,167
803,A1TLNLB9D87H6:33SA9F9TRZ1WFBDKPT3BPG2CWLMWEL,2660,/static/images/2kfaces/Google_1_Donna Asberry_5_oval.jpg,1,1,168
804,A1TLNLB9D87H6:33SA9F9TRZ1WFBDKPT3BPG2CWLMWEL,3524,/static/images/2kfaces/Google_1_Cheryl Griffin_15_oval.jpg,1,1,169
805,A1NK84W9T83USS:3LUY3GC6317LMN19QZBARC2ZH1EP7W,6902,/static/images/faces/empty-image-1.jpg,False,7,4
806,A1NK84W9T83USS:3LUY3GC6317LMN19QZBARC2ZH1EP7W,4233,/static/images/2kfaces/Google_1_Billy Kiely_1_oval.jpg,0,2,6
807,A1NK84W9T83USS:3LUY3GC6317LMN19QZBARC2ZH1EP7W,2421,/static/images/2kfaces/Google_1_Frank Luke_9_oval.jpg,0,4,7
808,A1NK84W9T83USS:3LUY3GC6317LMN19QZBARC2ZH1EP7W,3927,/static/images/2kfaces/Google_1_Victoria Ambrose_17_oval.jpg,0,6,8
809,A1NK84W9T83USS:3LUY3GC6317LMN19QZBARC2ZH1EP7W,3337,/static/images/2kfaces/Google_1_Kenneth Rigsby_15_oval.jpg,0,3,9
810,A1NK84W9T83USS:3LUY3GC6317LMN19QZBARC2ZH1EP7W,2744,/static/images/2kfaces/Google_1_Rodney Wyant_13_oval.jpg,0,4,10
811,A1NK84W9T83USS:3LUY3GC6317LMN19QZBARC2ZH1EP7W,3702,/static/images/2kfaces/Alice_Mckellar_11_oval.jpg,0,8,11
812,A1NK84W9T83USS:3LUY3GC6317LMN19QZBARC2ZH1EP7W,3228,/static/images/2kfaces/Google_1_Florence Melton_1_oval.jpg,0,3,12
813,A1NK84W9T83USS:3LUY3GC6317LMN19QZBARC2ZH1EP7W,2994,/static/images/2kfaces/Google_1_Joshua Lessard_11_oval.jpg,0,5,13
814,A1NK84W9T83USS:3LUY3GC6317LMN19QZBARC2ZH1EP7W,3848,/static/images/2kfaces/Google_1_Louis Mceachern_7_oval.jpg,0,6,14
815,A1NK84W9T83USS:3LUY3GC6317LMN19QZBARC2ZH1EP7W,2979,/static/images/2kfaces/Google_1_Paul Reno_1_oval.jpg,0,4,15
816,A1NK84W9T83USS:3LUY3GC6317LMN19QZBARC2ZH1EP7W,2699,/static/images/2kfaces/Google_1_Cindy Morehead_5_oval.jpg,0,3,16
817,A1NK84W9T83USS:3LUY3GC6317LMN19QZBARC2ZH1EP7W,2678,/static/images/2kfaces/Google_1_Claudia Rohrer_13_oval.jpg,0,2,17
818,A1NK84W9T83USS:3LUY3GC6317LMN19QZBARC2ZH1EP7W,2034,/static/images/2kfaces/Google_1_Mark Houser_17_oval.jpg,0,3,18
819,A1NK84W9T83USS:3LUY3GC6317LMN19QZBARC2ZH1EP7W,2434,/static/images/2kfaces/Google_1_Diana Bateman_7_oval.jpg,0,4,19
820,A1NK84W9T83USS:3LUY3GC6317LMN19QZBARC2ZH1EP7W,3775,/static/images/2kfaces/Google_1_Matthew Vanbuskirk_1_oval.jpg,0,4,20
821,A1NK84W9T83USS:3LUY3GC6317LMN19QZBARC2ZH1EP7W,3681,/static/images/2kfaces/Google_1_Valerie Noble_9_oval.jpg,0,5,21
822,A1NK84W9T83USS:3LUY3GC6317LMN19QZBARC2ZH1EP7W,4227,/static/images/2kfaces/Google_1_Jonathan Marek_5_oval.jpg,0,4,22
823,A1NK84W9T83USS:3LUY3GC6317LMN19QZBARC2ZH1EP7W,2682,/static/images/2kfaces/Google_1_Donald Shaw_13_oval.jpg,0,3,23
824,A1NK84W9T83USS:3LUY3GC6317LMN19QZBARC2ZH1EP7W,2901,/static/images/2kfaces/Google_1_Amelia Lines_11_oval.jpg,0,4,24
825,A1NK84W9T83USS:3LUY3GC6317LMN19QZBARC2ZH1EP7W,3181,/static/images/2kfaces/Google_1_Eva Kirkman_15_oval.jpg,0,4,25
826,A1NK84W9T83USS:3LUY3GC6317LMN19QZBARC2ZH1EP7W,3536,/static/images/2kfaces/Google_1_Marjorie Rule_3_oval.jpg,0,4,26
827,A1NK84W9T83USS:3LUY3GC6317LMN19QZBARC2ZH1EP7W,3385,/static/images/2kfaces/Google_1_Gloria Canada_13_oval.jpg,0,3,27
828,A1NK84W9T83USS:3LUY3GC6317LMN19QZBARC2ZH1EP7W,2551,/static/images/2kfaces/Google_1_Gertrude Bayne_11_oval.jpg,0,3,28
829,A1NK84W9T83USS:3LUY3GC6317LMN19QZBARC2ZH1EP7W,3341,/static/images/2kfaces/Google_1_Kathleen Sartain_1_oval.jpg,0,6,29
830,A1NK84W9T83USS:3LUY3GC6317LMN19QZBARC2ZH1EP7W,3110,/static/images/2kfaces/Google_1_Jeffery Mcclinton_7-oval.jpg,0,3,30
831,A1NK84W9T83USS:3LUY3GC6317LMN19QZBARC2ZH1EP7W,3082,/static/images/2kfaces/Google_1_Bryan Brunner_3_oval.jpg,0,4,31
832,A1NK84W9T83USS:3LUY3GC6317LMN19QZBARC2ZH1EP7W,2809,/static/images/2kfaces/Google_1_Erika Fletcher_1_oval.jpg,0,6,32
833,A1NK84W9T83USS:3LUY3GC6317LMN19QZBARC2ZH1EP7W,2292,/static/images/2kfaces/Google_1_Samuel Paschal_17_oval.jpg,0,2,33
834,A1NK84W9T83USS:3LUY3GC6317LMN19QZBARC2ZH1EP7W,2445,/static/images/2kfaces/Google_1_Samuel Goff_1_oval.jpg,0,2,34
835,A1NK84W9T83USS:3LUY3GC6317LMN19QZBARC2ZH1EP7W,2585,/static/images/2kfaces/Google_1_Leonard True_5_oval.jpg,0,7,35
836,A1NK84W9T83USS:3LUY3GC6317LMN19QZBARC2ZH1EP7W,3202,/static/images/2kfaces/Google_1_Sarah Woodcock_3_oval.jpg,0,7,36
837,A1NK84W9T83USS:3LUY3GC6317LMN19QZBARC2ZH1EP7W,3216,/static/images/2kfaces/Google_1_Frank Whitehouse_3_oval.jpg,0,6,37
838,A1NK84W9T83USS:3LUY3GC6317LMN19QZBARC2ZH1EP7W,2623,/static/images/2kfaces/Google_1_Steve Stamm_1_oval.jpg,0,6,38
839,A1NK84W9T83USS:3LUY3GC6317LMN19QZBARC2ZH1EP7W,2199,/static/images/2kfaces/Google_1_Belinda Dupuis_9_oval.jpg,0,2,39
