,subId,rt,imgName,rating,trial_index,debug_mode
0,debugGEQMFL:debugSY4EBY,55124,177368.jpg,3,1,debug
1,debugGEQMFL:debugSY4EBY,3688,067792.jpg,7,2,debug
2,debugGEQMFL:debugSY4EBY,3291,180966.jpg,5,3,debug
3,debugGEQMFL:debugSY4EBY,2195,017238.jpg,5,4,debug
4,debugGEQMFL:debugSY4EBY,2766,119535.jpg,3,5,debug
5,debugGEQMFL:debugSY4EBY,2570,100138.jpg,6,6,debug
6,debugGEQMFL:debugSY4EBY,3239,082102.jpg,7,7,debug
7,debugGEQMFL:debugSY4EBY,2879,030000.jpg,4,8,debug
8,debugGEQMFL:debugSY4EBY,2504,050455.jpg,2,9,debug
9,debugGEQMFL:debugSY4EBY,2159,115789.jpg,7,10,debug
10,debugGEQMFL:debugSY4EBY,3186,100138.jpg,6,13,debug
11,debugGEQMFL:debugSY4EBY,4079,180966.jpg,5,14,debug
12,debugGEQMFL:debugSY4EBY,2399,030000.jpg,3,15,debug
13,debugGEQMFL:debugSY4EBY,2152,115789.jpg,7,16,debug
14,debugGEQMFL:debugSY4EBY,2317,017238.jpg,6,17,debug
15,debugGEQMFL:debugSY4EBY,5076,177368.jpg,6,18,debug
16,debugGEQMFL:debugSY4EBY,2053,050455.jpg,4,19,debug
17,debugGEQMFL:debugSY4EBY,3005,082102.jpg,7,20,debug
18,debugGEQMFL:debugSY4EBY,3126,119535.jpg,3,21,debug
19,debugGEQMFL:debugSY4EBY,2840,067792.jpg,7,22,debug
20,debugGEQMFL:debugSY4EBY,4244,128631.jpg,7,1,debug
21,debugGEQMFL:debugSY4EBY,2271,067760.jpg,6,2,debug
22,debugGEQMFL:debugSY4EBY,3575,054267.jpg,5,3,debug
23,debugGEQMFL:debugSY4EBY,2601,148453.jpg,2,4,debug
24,debugGEQMFL:debugSY4EBY,2083,118166.jpg,6,5,debug
25,debugGEQMFL:debugSY4EBY,2534,063392.jpg,3,6,debug
26,debugGEQMFL:debugSY4EBY,2361,132629.jpg,6,7,debug
27,debugGEQMFL:debugSY4EBY,1992,060174.jpg,7,8,debug
28,debugGEQMFL:debugSY4EBY,2751,000192.jpg,8,9,debug
29,debugGEQMFL:debugSY4EBY,4753,141059.jpg,5,10,debug
30,debugGEQMFL:debugSY4EBY,6861,054808.jpg,9,12,debug
31,debugGEQMFL:debugSY4EBY,3095,163887.jpg,7,13,debug
32,debugGEQMFL:debugSY4EBY,2286,017238.jpg,6,14,debug
33,debugGEQMFL:debugSY4EBY,2668,112278.jpg,2,15,debug
34,debugGEQMFL:debugSY4EBY,5016,100659.jpg,8,16,debug
35,debugGEQMFL:debugSY4EBY,2030,141075.jpg,6,17,debug
36,debugGEQMFL:debugSY4EBY,3209,096767.jpg,7,18,debug
37,debugGEQMFL:debugSY4EBY,4392,120726.jpg,7,19,debug
38,debugGEQMFL:debugSY4EBY,3411,113099.jpg,7,20,debug
39,debugGEQMFL:debugSY4EBY,2661,007128.jpg,5,21,debug
40,debugGEQMFL:debugSY4EBY,1991,030000.jpg,6,23,debug
41,debugGEQMFL:debugSY4EBY,1964,084296.jpg,7,24,debug
42,debugGEQMFL:debugSY4EBY,3780,200021.jpg,7,25,debug
43,debugGEQMFL:debugSY4EBY,2436,092268.jpg,8,26,debug
44,debugGEQMFL:debugSY4EBY,2352,115851.jpg,4,27,debug
45,debugGEQMFL:debugSY4EBY,3134,035590.jpg,6,28,debug
46,debugGEQMFL:debugSY4EBY,3546,050455.jpg,3,29,debug
47,debugGEQMFL:debugSY4EBY,2354,102224.jpg,2,30,debug
48,debugGEQMFL:debugSY4EBY,2481,119535.jpg,1,31,debug
49,debugGEQMFL:debugSY4EBY,2390,160622.jpg,8,32,debug
50,debugGEQMFL:debugSY4EBY,2097,092268.jpg,7,34,debug
51,debugGEQMFL:debugSY4EBY,3688,119380.jpg,8,35,debug
52,debugGEQMFL:debugSY4EBY,5144,161526.jpg,1,36,debug
53,debugGEQMFL:debugSY4EBY,3314,086966.jpg,6,37,debug
54,debugGEQMFL:debugSY4EBY,3051,012925.jpg,4,38,debug
55,debugGEQMFL:debugSY4EBY,2684,163842.jpg,7,39,debug
56,debugGEQMFL:debugSY4EBY,2188,067760.jpg,8,40,debug
57,debugGEQMFL:debugSY4EBY,2347,115789.jpg,8,41,debug
58,debugGEQMFL:debugSY4EBY,4776,082102.jpg,9,42,debug
59,debugGEQMFL:debugSY4EBY,2503,039990.jpg,6,43,debug
60,debugGEQMFL:debugSY4EBY,2109,011510.jpg,6,45,debug
61,debugGEQMFL:debugSY4EBY,2331,073829.jpg,8,46,debug
62,debugGEQMFL:debugSY4EBY,2323,030000.jpg,7,47,debug
63,debugGEQMFL:debugSY4EBY,4162,104401.jpg,5,48,debug
64,debugGEQMFL:debugSY4EBY,2420,111185.jpg,6,49,debug
65,debugGEQMFL:debugSY4EBY,2856,067792.jpg,6,50,debug
66,debugGEQMFL:debugSY4EBY,2405,156121.jpg,3,51,debug
67,debugGEQMFL:debugSY4EBY,2592,017238.jpg,5,52,debug
68,debugGEQMFL:debugSY4EBY,2024,100659.jpg,6,53,debug
69,debugGEQMFL:debugSY4EBY,2135,198632.jpg,7,54,debug
70,debugGEQMFL:debugSY4EBY,2470,075975.jpg,6,56,debug
71,debugGEQMFL:debugSY4EBY,2392,177368.jpg,4,57,debug
72,debugGEQMFL:debugSY4EBY,2309,014755.jpg,5,58,debug
73,debugGEQMFL:debugSY4EBY,2682,100138.jpg,6,59,debug
74,debugGEQMFL:debugSY4EBY,4043,144010.jpg,4,60,debug
75,debugGEQMFL:debugSY4EBY,2278,010645.jpg,9,61,debug
76,debugGEQMFL:debugSY4EBY,2992,115851.jpg,4,62,debug
77,debugGEQMFL:debugSY4EBY,2159,098484.jpg,2,63,debug
78,debugGEQMFL:debugSY4EBY,2691,067792.jpg,8,64,debug
79,debugGEQMFL:debugSY4EBY,4910,121737.jpg,3,65,debug
80,debugGEQMFL:debugSY4EBY,8310,083021.jpg,2,67,debug
81,debugGEQMFL:debugSY4EBY,3441,033997.jpg,4,68,debug
82,debugGEQMFL:debugSY4EBY,2625,200021.jpg,4,69,debug
83,debugGEQMFL:debugSY4EBY,3201,187879.jpg,6,70,debug
84,debugGEQMFL:debugSY4EBY,2024,043287.jpg,5,71,debug
85,debugGEQMFL:debugSY4EBY,2323,004868.jpg,1,72,debug
86,debugGEQMFL:debugSY4EBY,2257,200278.jpg,1,73,debug
87,debugGEQMFL:debugSY4EBY,2150,104401.jpg,3,74,debug
88,debugGEQMFL:debugSY4EBY,2106,098484.jpg,2,75,debug
89,debugGEQMFL:debugSY4EBY,5196,156121.jpg,3,76,debug
90,debugGEQMFL:debugSY4EBY,4835,089364.jpg,3,78,debug
91,debugGEQMFL:debugSY4EBY,1872,177368.jpg,4,79,debug
92,debugGEQMFL:debugSY4EBY,1859,122364.jpg,5,80,debug
93,debugGEQMFL:debugSY4EBY,1859,121110.jpg,6,81,debug
94,debugGEQMFL:debugSY4EBY,2054,180966.jpg,6,82,debug
95,debugGEQMFL:debugSY4EBY,2879,188240.jpg,6,83,debug
96,debugGEQMFL:debugSY4EBY,2091,059217.jpg,8,84,debug
97,debugGEQMFL:debugSY4EBY,1972,128002.jpg,9,85,debug
98,debugGEQMFL:debugSY4EBY,3030,069359.jpg,5,86,debug
99,debugGEQMFL:debugSY4EBY,2278,100138.jpg,6,87,debug
100,debugGEQMFL:debugSY4EBY,2139,121110.jpg,6,89,debug
101,debugGEQMFL:debugSY4EBY,1686,144346.jpg,6,90,debug
102,debugGEQMFL:debugSY4EBY,3411,047217.jpg,2,91,debug
103,debugGEQMFL:debugSY4EBY,1902,077912.jpg,3,92,debug
104,debugGEQMFL:debugSY4EBY,6261,198128.jpg,3,93,debug
105,debugGEQMFL:debugSY4EBY,3434,115789.jpg,6,94,debug
106,debugGEQMFL:debugSY4EBY,2504,119535.jpg,2,95,debug
107,debugGEQMFL:debugSY4EBY,3156,147371.jpg,7,96,debug
108,debugGEQMFL:debugSY4EBY,2924,057518.jpg,2,97,debug
109,debugGEQMFL:debugSY4EBY,2864,153098.jpg,6,98,debug
110,debugGEQMFL:debugSY4EBY,2693,164278.jpg,1,100,debug
111,debugGEQMFL:debugSY4EBY,4807,164278.jpg,1,101,debug
112,debugGEQMFL:debugSY4EBY,1978,070844.jpg,3,102,debug
113,debugGEQMFL:debugSY4EBY,6096,117478.jpg,3,103,debug
114,debugGEQMFL:debugSY4EBY,2961,068906.jpg,4,104,debug
115,debugGEQMFL:debugSY4EBY,6569,119380.jpg,8,105,debug
116,debugGEQMFL:debugSY4EBY,2886,031206.jpg,4,106,debug
117,debugGEQMFL:debugSY4EBY,4498,035508.jpg,8,107,debug
118,debugGEQMFL:debugSY4EBY,2540,198128.jpg,2,108,debug
119,debugGEQMFL:debugSY4EBY,4897,144346.jpg,6,109,debug
