,subId,rt,imgName,rating,trial_index,debug_mode
0,A2JBCLJVJ2VXVZ:3C5W7UE9CHX9GZANGWNG47LTUR4XMB,5913,054808.jpg,8,1,live
1,A2JBCLJVJ2VXVZ:3C5W7UE9CHX9GZANGWNG47LTUR4XMB,12492,100138.jpg,4,2,live
2,A2JBCLJVJ2VXVZ:3C5W7UE9CHX9GZANGWNG47LTUR4XMB,5218,144010.jpg,2,3,live
3,A2JBCLJVJ2VXVZ:3C5W7UE9CHX9GZANGWNG47LTUR4XMB,5540,059217.jpg,9,4,live
4,A2JBCLJVJ2VXVZ:3C5W7UE9CHX9GZANGWNG47LTUR4XMB,3141,128631.jpg,3,5,live
5,A2JBCLJVJ2VXVZ:3C5W7UE9CHX9GZANGWNG47LTUR4XMB,9324,004868.jpg,4,6,live
6,A2JBCLJVJ2VXVZ:3C5W7UE9CHX9GZANGWNG47LTUR4XMB,3350,012925.jpg,4,7,live
7,A2JBCLJVJ2VXVZ:3C5W7UE9CHX9GZANGWNG47LTUR4XMB,4620,073829.jpg,8,8,live
8,A2JBCLJVJ2VXVZ:3C5W7UE9CHX9GZANGWNG47LTUR4XMB,3134,120726.jpg,5,9,live
9,A2JBCLJVJ2VXVZ:3C5W7UE9CHX9GZANGWNG47LTUR4XMB,8285,200021.jpg,8,10,live
10,A2JBCLJVJ2VXVZ:3C5W7UE9CHX9GZANGWNG47LTUR4XMB,8832,121737.jpg,4,12,live
11,A2JBCLJVJ2VXVZ:3C5W7UE9CHX9GZANGWNG47LTUR4XMB,3243,073829.jpg,8,13,live
12,A2JBCLJVJ2VXVZ:3C5W7UE9CHX9GZANGWNG47LTUR4XMB,20069,000192.jpg,8,14,live
13,A2JBCLJVJ2VXVZ:3C5W7UE9CHX9GZANGWNG47LTUR4XMB,5241,063392.jpg,2,15,live
14,A2JBCLJVJ2VXVZ:3C5W7UE9CHX9GZANGWNG47LTUR4XMB,3550,060174.jpg,7,16,live
15,A2JBCLJVJ2VXVZ:3C5W7UE9CHX9GZANGWNG47LTUR4XMB,8797,082102.jpg,8,17,live
16,A2JBCLJVJ2VXVZ:3C5W7UE9CHX9GZANGWNG47LTUR4XMB,3085,043287.jpg,5,18,live
17,A2JBCLJVJ2VXVZ:3C5W7UE9CHX9GZANGWNG47LTUR4XMB,4316,144346.jpg,9,19,live
18,A2JBCLJVJ2VXVZ:3C5W7UE9CHX9GZANGWNG47LTUR4XMB,3962,039990.jpg,4,20,live
19,A2JBCLJVJ2VXVZ:3C5W7UE9CHX9GZANGWNG47LTUR4XMB,3768,119535.jpg,6,21,live
20,A2JBCLJVJ2VXVZ:3C5W7UE9CHX9GZANGWNG47LTUR4XMB,5884,014755.jpg,6,23,live
21,A2JBCLJVJ2VXVZ:3C5W7UE9CHX9GZANGWNG47LTUR4XMB,3099,067792.jpg,7,24,live
22,A2JBCLJVJ2VXVZ:3C5W7UE9CHX9GZANGWNG47LTUR4XMB,5741,117478.jpg,6,25,live
23,A2JBCLJVJ2VXVZ:3C5W7UE9CHX9GZANGWNG47LTUR4XMB,3110,198632.jpg,9,26,live
24,A2JBCLJVJ2VXVZ:3C5W7UE9CHX9GZANGWNG47LTUR4XMB,3549,141059.jpg,4,27,live
25,A2JBCLJVJ2VXVZ:3C5W7UE9CHX9GZANGWNG47LTUR4XMB,5148,086966.jpg,6,28,live
26,A2JBCLJVJ2VXVZ:3C5W7UE9CHX9GZANGWNG47LTUR4XMB,4036,059217.jpg,9,29,live
27,A2JBCLJVJ2VXVZ:3C5W7UE9CHX9GZANGWNG47LTUR4XMB,3367,141075.jpg,6,30,live
28,A2JBCLJVJ2VXVZ:3C5W7UE9CHX9GZANGWNG47LTUR4XMB,3050,161526.jpg,2,31,live
29,A2JBCLJVJ2VXVZ:3C5W7UE9CHX9GZANGWNG47LTUR4XMB,3814,017238.jpg,6,32,live
30,A2JBCLJVJ2VXVZ:3C5W7UE9CHX9GZANGWNG47LTUR4XMB,3883,164278.jpg,4,34,live
31,A2JBCLJVJ2VXVZ:3C5W7UE9CHX9GZANGWNG47LTUR4XMB,5414,010645.jpg,7,35,live
32,A2JBCLJVJ2VXVZ:3C5W7UE9CHX9GZANGWNG47LTUR4XMB,4358,100659.jpg,6,36,live
33,A2JBCLJVJ2VXVZ:3C5W7UE9CHX9GZANGWNG47LTUR4XMB,5148,102224.jpg,4,37,live
34,A2JBCLJVJ2VXVZ:3C5W7UE9CHX9GZANGWNG47LTUR4XMB,3677,177368.jpg,5,38,live
35,A2JBCLJVJ2VXVZ:3C5W7UE9CHX9GZANGWNG47LTUR4XMB,3397,198128.jpg,2,39,live
36,A2JBCLJVJ2VXVZ:3C5W7UE9CHX9GZANGWNG47LTUR4XMB,3526,096767.jpg,9,40,live
37,A2JBCLJVJ2VXVZ:3C5W7UE9CHX9GZANGWNG47LTUR4XMB,4428,200278.jpg,4,41,live
38,A2JBCLJVJ2VXVZ:3C5W7UE9CHX9GZANGWNG47LTUR4XMB,3902,031206.jpg,7,42,live
39,A2JBCLJVJ2VXVZ:3C5W7UE9CHX9GZANGWNG47LTUR4XMB,4365,100138.jpg,8,43,live
40,A2JBCLJVJ2VXVZ:3C5W7UE9CHX9GZANGWNG47LTUR4XMB,3786,068906.jpg,7,45,live
41,A2JBCLJVJ2VXVZ:3C5W7UE9CHX9GZANGWNG47LTUR4XMB,3426,177368.jpg,6,46,live
42,A2JBCLJVJ2VXVZ:3C5W7UE9CHX9GZANGWNG47LTUR4XMB,3674,113099.jpg,9,47,live
43,A2JBCLJVJ2VXVZ:3C5W7UE9CHX9GZANGWNG47LTUR4XMB,58352,163842.jpg,8,48,live
44,A2JBCLJVJ2VXVZ:3C5W7UE9CHX9GZANGWNG47LTUR4XMB,3099,148453.jpg,5,49,live
45,A2JBCLJVJ2VXVZ:3C5W7UE9CHX9GZANGWNG47LTUR4XMB,4329,112278.jpg,3,50,live
46,A2JBCLJVJ2VXVZ:3C5W7UE9CHX9GZANGWNG47LTUR4XMB,6069,017238.jpg,9,51,live
47,A2JBCLJVJ2VXVZ:3C5W7UE9CHX9GZANGWNG47LTUR4XMB,3940,115789.jpg,9,52,live
48,A2JBCLJVJ2VXVZ:3C5W7UE9CHX9GZANGWNG47LTUR4XMB,5414,132629.jpg,7,53,live
49,A2JBCLJVJ2VXVZ:3C5W7UE9CHX9GZANGWNG47LTUR4XMB,3612,057518.jpg,4,54,live
50,A2JBCLJVJ2VXVZ:3C5W7UE9CHX9GZANGWNG47LTUR4XMB,5425,153098.jpg,8,56,live
51,A2JBCLJVJ2VXVZ:3C5W7UE9CHX9GZANGWNG47LTUR4XMB,5246,117478.jpg,7,57,live
52,A2JBCLJVJ2VXVZ:3C5W7UE9CHX9GZANGWNG47LTUR4XMB,3548,084296.jpg,8,58,live
53,A2JBCLJVJ2VXVZ:3C5W7UE9CHX9GZANGWNG47LTUR4XMB,3507,035590.jpg,7,59,live
54,A2JBCLJVJ2VXVZ:3C5W7UE9CHX9GZANGWNG47LTUR4XMB,3881,122364.jpg,9,60,live
55,A2JBCLJVJ2VXVZ:3C5W7UE9CHX9GZANGWNG47LTUR4XMB,3037,069359.jpg,5,61,live
56,A2JBCLJVJ2VXVZ:3C5W7UE9CHX9GZANGWNG47LTUR4XMB,4235,098484.jpg,7,62,live
57,A2JBCLJVJ2VXVZ:3C5W7UE9CHX9GZANGWNG47LTUR4XMB,3125,121110.jpg,9,63,live
58,A2JBCLJVJ2VXVZ:3C5W7UE9CHX9GZANGWNG47LTUR4XMB,6311,147371.jpg,8,64,live
59,A2JBCLJVJ2VXVZ:3C5W7UE9CHX9GZANGWNG47LTUR4XMB,3228,007128.jpg,5,65,live
60,A2JBCLJVJ2VXVZ:3C5W7UE9CHX9GZANGWNG47LTUR4XMB,4168,075975.jpg,5,67,live
61,A2JBCLJVJ2VXVZ:3C5W7UE9CHX9GZANGWNG47LTUR4XMB,4187,180966.jpg,9,68,live
62,A2JBCLJVJ2VXVZ:3C5W7UE9CHX9GZANGWNG47LTUR4XMB,3721,092268.jpg,7,69,live
63,A2JBCLJVJ2VXVZ:3C5W7UE9CHX9GZANGWNG47LTUR4XMB,2748,098484.jpg,4,70,live
64,A2JBCLJVJ2VXVZ:3C5W7UE9CHX9GZANGWNG47LTUR4XMB,3240,187879.jpg,9,71,live
65,A2JBCLJVJ2VXVZ:3C5W7UE9CHX9GZANGWNG47LTUR4XMB,2816,083021.jpg,4,72,live
66,A2JBCLJVJ2VXVZ:3C5W7UE9CHX9GZANGWNG47LTUR4XMB,4617,039990.jpg,5,73,live
67,A2JBCLJVJ2VXVZ:3C5W7UE9CHX9GZANGWNG47LTUR4XMB,2796,120726.jpg,6,74,live
68,A2JBCLJVJ2VXVZ:3C5W7UE9CHX9GZANGWNG47LTUR4XMB,2766,057518.jpg,4,75,live
69,A2JBCLJVJ2VXVZ:3C5W7UE9CHX9GZANGWNG47LTUR4XMB,6499,156121.jpg,7,76,live
70,A2JBCLJVJ2VXVZ:3C5W7UE9CHX9GZANGWNG47LTUR4XMB,3816,112278.jpg,4,78,live
71,A2JBCLJVJ2VXVZ:3C5W7UE9CHX9GZANGWNG47LTUR4XMB,4797,014755.jpg,8,79,live
72,A2JBCLJVJ2VXVZ:3C5W7UE9CHX9GZANGWNG47LTUR4XMB,2639,086966.jpg,6,80,live
73,A2JBCLJVJ2VXVZ:3C5W7UE9CHX9GZANGWNG47LTUR4XMB,4595,188240.jpg,9,81,live
74,A2JBCLJVJ2VXVZ:3C5W7UE9CHX9GZANGWNG47LTUR4XMB,3101,164278.jpg,6,82,live
75,A2JBCLJVJ2VXVZ:3C5W7UE9CHX9GZANGWNG47LTUR4XMB,3246,047217.jpg,4,83,live
76,A2JBCLJVJ2VXVZ:3C5W7UE9CHX9GZANGWNG47LTUR4XMB,3832,033997.jpg,9,84,live
77,A2JBCLJVJ2VXVZ:3C5W7UE9CHX9GZANGWNG47LTUR4XMB,3657,119380.jpg,8,85,live
78,A2JBCLJVJ2VXVZ:3C5W7UE9CHX9GZANGWNG47LTUR4XMB,4549,160622.jpg,8,86,live
79,A2JBCLJVJ2VXVZ:3C5W7UE9CHX9GZANGWNG47LTUR4XMB,5099,067760.jpg,9,87,live
80,A2JBCLJVJ2VXVZ:3C5W7UE9CHX9GZANGWNG47LTUR4XMB,3511,030000.jpg,4,89,live
81,A2JBCLJVJ2VXVZ:3C5W7UE9CHX9GZANGWNG47LTUR4XMB,4305,163887.jpg,5,90,live
82,A2JBCLJVJ2VXVZ:3C5W7UE9CHX9GZANGWNG47LTUR4XMB,3248,115851.jpg,6,91,live
83,A2JBCLJVJ2VXVZ:3C5W7UE9CHX9GZANGWNG47LTUR4XMB,3309,111185.jpg,9,92,live
84,A2JBCLJVJ2VXVZ:3C5W7UE9CHX9GZANGWNG47LTUR4XMB,3635,077912.jpg,6,93,live
85,A2JBCLJVJ2VXVZ:3C5W7UE9CHX9GZANGWNG47LTUR4XMB,3124,111185.jpg,9,94,live
86,A2JBCLJVJ2VXVZ:3C5W7UE9CHX9GZANGWNG47LTUR4XMB,5469,070844.jpg,9,95,live
87,A2JBCLJVJ2VXVZ:3C5W7UE9CHX9GZANGWNG47LTUR4XMB,3761,084296.jpg,7,96,live
88,A2JBCLJVJ2VXVZ:3C5W7UE9CHX9GZANGWNG47LTUR4XMB,3785,035508.jpg,9,97,live
89,A2JBCLJVJ2VXVZ:3C5W7UE9CHX9GZANGWNG47LTUR4XMB,3253,118166.jpg,7,98,live
90,A2JBCLJVJ2VXVZ:3C5W7UE9CHX9GZANGWNG47LTUR4XMB,2999,089364.jpg,4,100,live
91,A2JBCLJVJ2VXVZ:3C5W7UE9CHX9GZANGWNG47LTUR4XMB,3165,004868.jpg,3,101,live
92,A2JBCLJVJ2VXVZ:3C5W7UE9CHX9GZANGWNG47LTUR4XMB,3627,035508.jpg,9,102,live
93,A2JBCLJVJ2VXVZ:3C5W7UE9CHX9GZANGWNG47LTUR4XMB,5646,104401.jpg,7,103,live
94,A2JBCLJVJ2VXVZ:3C5W7UE9CHX9GZANGWNG47LTUR4XMB,3073,035590.jpg,9,104,live
95,A2JBCLJVJ2VXVZ:3C5W7UE9CHX9GZANGWNG47LTUR4XMB,8349,011510.jpg,5,105,live
96,A2JBCLJVJ2VXVZ:3C5W7UE9CHX9GZANGWNG47LTUR4XMB,3211,128002.jpg,9,106,live
97,A2JBCLJVJ2VXVZ:3C5W7UE9CHX9GZANGWNG47LTUR4XMB,3676,050455.jpg,6,107,live
98,A2JBCLJVJ2VXVZ:3C5W7UE9CHX9GZANGWNG47LTUR4XMB,4006,054267.jpg,6,108,live
99,A2JBCLJVJ2VXVZ:3C5W7UE9CHX9GZANGWNG47LTUR4XMB,2941,160622.jpg,8,109,live
100,A2C7TMRC2QHTIW:30H4UDGLT4P47Q8WU5DZAUZQSSVPMF,4620,119380.jpg,9,1,live
101,A2C7TMRC2QHTIW:30H4UDGLT4P47Q8WU5DZAUZQSSVPMF,2180,200021.jpg,8,2,live
102,A2C7TMRC2QHTIW:30H4UDGLT4P47Q8WU5DZAUZQSSVPMF,1932,047217.jpg,4,3,live
103,A2C7TMRC2QHTIW:30H4UDGLT4P47Q8WU5DZAUZQSSVPMF,1594,161526.jpg,3,4,live
104,A2C7TMRC2QHTIW:30H4UDGLT4P47Q8WU5DZAUZQSSVPMF,1956,120726.jpg,5,5,live
105,A2C7TMRC2QHTIW:30H4UDGLT4P47Q8WU5DZAUZQSSVPMF,1692,039990.jpg,3,6,live
106,A2C7TMRC2QHTIW:30H4UDGLT4P47Q8WU5DZAUZQSSVPMF,1997,096767.jpg,8,7,live
107,A2C7TMRC2QHTIW:30H4UDGLT4P47Q8WU5DZAUZQSSVPMF,1763,039990.jpg,3,8,live
108,A2C7TMRC2QHTIW:30H4UDGLT4P47Q8WU5DZAUZQSSVPMF,1690,067792.jpg,9,9,live
109,A2C7TMRC2QHTIW:30H4UDGLT4P47Q8WU5DZAUZQSSVPMF,1731,128002.jpg,9,10,live
110,A2C7TMRC2QHTIW:30H4UDGLT4P47Q8WU5DZAUZQSSVPMF,1287,033997.jpg,9,12,live
111,A2C7TMRC2QHTIW:30H4UDGLT4P47Q8WU5DZAUZQSSVPMF,2028,031206.jpg,8,13,live
112,A2C7TMRC2QHTIW:30H4UDGLT4P47Q8WU5DZAUZQSSVPMF,1811,054267.jpg,5,14,live
113,A2C7TMRC2QHTIW:30H4UDGLT4P47Q8WU5DZAUZQSSVPMF,1619,035590.jpg,9,15,live
114,A2C7TMRC2QHTIW:30H4UDGLT4P47Q8WU5DZAUZQSSVPMF,4093,082102.jpg,9,16,live
115,A2C7TMRC2QHTIW:30H4UDGLT4P47Q8WU5DZAUZQSSVPMF,2393,012925.jpg,1,17,live
116,A2C7TMRC2QHTIW:30H4UDGLT4P47Q8WU5DZAUZQSSVPMF,1771,118166.jpg,9,18,live
117,A2C7TMRC2QHTIW:30H4UDGLT4P47Q8WU5DZAUZQSSVPMF,1491,153098.jpg,9,19,live
118,A2C7TMRC2QHTIW:30H4UDGLT4P47Q8WU5DZAUZQSSVPMF,1716,117478.jpg,9,20,live
119,A2C7TMRC2QHTIW:30H4UDGLT4P47Q8WU5DZAUZQSSVPMF,2027,017238.jpg,7,21,live
120,A2C7TMRC2QHTIW:30H4UDGLT4P47Q8WU5DZAUZQSSVPMF,2300,141075.jpg,8,23,live
121,A2C7TMRC2QHTIW:30H4UDGLT4P47Q8WU5DZAUZQSSVPMF,2155,132629.jpg,7,24,live
122,A2C7TMRC2QHTIW:30H4UDGLT4P47Q8WU5DZAUZQSSVPMF,1531,067760.jpg,9,25,live
123,A2C7TMRC2QHTIW:30H4UDGLT4P47Q8WU5DZAUZQSSVPMF,2283,121110.jpg,8,26,live
124,A2C7TMRC2QHTIW:30H4UDGLT4P47Q8WU5DZAUZQSSVPMF,1572,102224.jpg,1,27,live
125,A2C7TMRC2QHTIW:30H4UDGLT4P47Q8WU5DZAUZQSSVPMF,1620,092268.jpg,9,28,live
126,A2C7TMRC2QHTIW:30H4UDGLT4P47Q8WU5DZAUZQSSVPMF,1227,144346.jpg,9,29,live
127,A2C7TMRC2QHTIW:30H4UDGLT4P47Q8WU5DZAUZQSSVPMF,4635,104401.jpg,3,30,live
128,A2C7TMRC2QHTIW:30H4UDGLT4P47Q8WU5DZAUZQSSVPMF,1620,164278.jpg,5,31,live
129,A2C7TMRC2QHTIW:30H4UDGLT4P47Q8WU5DZAUZQSSVPMF,1539,086966.jpg,7,32,live
130,A2C7TMRC2QHTIW:30H4UDGLT4P47Q8WU5DZAUZQSSVPMF,1970,100138.jpg,9,34,live
131,A2C7TMRC2QHTIW:30H4UDGLT4P47Q8WU5DZAUZQSSVPMF,1955,043287.jpg,6,35,live
132,A2C7TMRC2QHTIW:30H4UDGLT4P47Q8WU5DZAUZQSSVPMF,1764,057518.jpg,1,36,live
133,A2C7TMRC2QHTIW:30H4UDGLT4P47Q8WU5DZAUZQSSVPMF,3208,059217.jpg,9,37,live
134,A2C7TMRC2QHTIW:30H4UDGLT4P47Q8WU5DZAUZQSSVPMF,1675,086966.jpg,7,38,live
135,A2C7TMRC2QHTIW:30H4UDGLT4P47Q8WU5DZAUZQSSVPMF,1811,063392.jpg,4,39,live
136,A2C7TMRC2QHTIW:30H4UDGLT4P47Q8WU5DZAUZQSSVPMF,1947,075975.jpg,5,40,live
137,A2C7TMRC2QHTIW:30H4UDGLT4P47Q8WU5DZAUZQSSVPMF,1787,111185.jpg,9,41,live
138,A2C7TMRC2QHTIW:30H4UDGLT4P47Q8WU5DZAUZQSSVPMF,1691,057518.jpg,1,42,live
139,A2C7TMRC2QHTIW:30H4UDGLT4P47Q8WU5DZAUZQSSVPMF,1643,163887.jpg,3,43,live
140,A2C7TMRC2QHTIW:30H4UDGLT4P47Q8WU5DZAUZQSSVPMF,2117,180966.jpg,9,45,live
141,A2C7TMRC2QHTIW:30H4UDGLT4P47Q8WU5DZAUZQSSVPMF,1736,004868.jpg,1,46,live
142,A2C7TMRC2QHTIW:30H4UDGLT4P47Q8WU5DZAUZQSSVPMF,2515,069359.jpg,3,47,live
143,A2C7TMRC2QHTIW:30H4UDGLT4P47Q8WU5DZAUZQSSVPMF,1500,073829.jpg,9,48,live
144,A2C7TMRC2QHTIW:30H4UDGLT4P47Q8WU5DZAUZQSSVPMF,1241,060174.jpg,9,49,live
145,A2C7TMRC2QHTIW:30H4UDGLT4P47Q8WU5DZAUZQSSVPMF,1587,070844.jpg,5,50,live
146,A2C7TMRC2QHTIW:30H4UDGLT4P47Q8WU5DZAUZQSSVPMF,1635,098484.jpg,2,51,live
147,A2C7TMRC2QHTIW:30H4UDGLT4P47Q8WU5DZAUZQSSVPMF,1685,035508.jpg,9,52,live
148,A2C7TMRC2QHTIW:30H4UDGLT4P47Q8WU5DZAUZQSSVPMF,1300,010645.jpg,9,53,live
149,A2C7TMRC2QHTIW:30H4UDGLT4P47Q8WU5DZAUZQSSVPMF,1811,011510.jpg,3,54,live
150,A2C7TMRC2QHTIW:30H4UDGLT4P47Q8WU5DZAUZQSSVPMF,1537,089364.jpg,1,56,live
151,A2C7TMRC2QHTIW:30H4UDGLT4P47Q8WU5DZAUZQSSVPMF,1443,112278.jpg,1,57,live
152,A2C7TMRC2QHTIW:30H4UDGLT4P47Q8WU5DZAUZQSSVPMF,1586,083021.jpg,5,58,live
153,A2C7TMRC2QHTIW:30H4UDGLT4P47Q8WU5DZAUZQSSVPMF,1579,160622.jpg,6,59,live
154,A2C7TMRC2QHTIW:30H4UDGLT4P47Q8WU5DZAUZQSSVPMF,1732,188240.jpg,9,60,live
155,A2C7TMRC2QHTIW:30H4UDGLT4P47Q8WU5DZAUZQSSVPMF,1548,035590.jpg,7,61,live
156,A2C7TMRC2QHTIW:30H4UDGLT4P47Q8WU5DZAUZQSSVPMF,2156,117478.jpg,9,62,live
157,A2C7TMRC2QHTIW:30H4UDGLT4P47Q8WU5DZAUZQSSVPMF,2002,141059.jpg,1,63,live
158,A2C7TMRC2QHTIW:30H4UDGLT4P47Q8WU5DZAUZQSSVPMF,1707,198632.jpg,9,64,live
159,A2C7TMRC2QHTIW:30H4UDGLT4P47Q8WU5DZAUZQSSVPMF,1587,111185.jpg,9,65,live
160,A2C7TMRC2QHTIW:30H4UDGLT4P47Q8WU5DZAUZQSSVPMF,1617,100138.jpg,6,67,live
161,A2C7TMRC2QHTIW:30H4UDGLT4P47Q8WU5DZAUZQSSVPMF,1395,187879.jpg,9,68,live
162,A2C7TMRC2QHTIW:30H4UDGLT4P47Q8WU5DZAUZQSSVPMF,1260,163842.jpg,9,69,live
163,A2C7TMRC2QHTIW:30H4UDGLT4P47Q8WU5DZAUZQSSVPMF,1058,054808.jpg,9,70,live
164,A2C7TMRC2QHTIW:30H4UDGLT4P47Q8WU5DZAUZQSSVPMF,2268,068906.jpg,4,71,live
165,A2C7TMRC2QHTIW:30H4UDGLT4P47Q8WU5DZAUZQSSVPMF,1691,014755.jpg,5,72,live
166,A2C7TMRC2QHTIW:30H4UDGLT4P47Q8WU5DZAUZQSSVPMF,1483,077912.jpg,1,73,live
167,A2C7TMRC2QHTIW:30H4UDGLT4P47Q8WU5DZAUZQSSVPMF,1451,035508.jpg,9,74,live
168,A2C7TMRC2QHTIW:30H4UDGLT4P47Q8WU5DZAUZQSSVPMF,1563,144010.jpg,1,75,live
169,A2C7TMRC2QHTIW:30H4UDGLT4P47Q8WU5DZAUZQSSVPMF,1396,073829.jpg,9,76,live
170,A2C7TMRC2QHTIW:30H4UDGLT4P47Q8WU5DZAUZQSSVPMF,1353,059217.jpg,9,78,live
171,A2C7TMRC2QHTIW:30H4UDGLT4P47Q8WU5DZAUZQSSVPMF,1657,177368.jpg,1,79,live
172,A2C7TMRC2QHTIW:30H4UDGLT4P47Q8WU5DZAUZQSSVPMF,1397,100659.jpg,9,80,live
173,A2C7TMRC2QHTIW:30H4UDGLT4P47Q8WU5DZAUZQSSVPMF,1116,115789.jpg,9,81,live
174,A2C7TMRC2QHTIW:30H4UDGLT4P47Q8WU5DZAUZQSSVPMF,1785,030000.jpg,1,82,live
175,A2C7TMRC2QHTIW:30H4UDGLT4P47Q8WU5DZAUZQSSVPMF,1908,113099.jpg,9,83,live
176,A2C7TMRC2QHTIW:30H4UDGLT4P47Q8WU5DZAUZQSSVPMF,1771,198128.jpg,1,84,live
177,A2C7TMRC2QHTIW:30H4UDGLT4P47Q8WU5DZAUZQSSVPMF,1532,084296.jpg,9,85,live
178,A2C7TMRC2QHTIW:30H4UDGLT4P47Q8WU5DZAUZQSSVPMF,1588,000192.jpg,9,86,live
179,A2C7TMRC2QHTIW:30H4UDGLT4P47Q8WU5DZAUZQSSVPMF,2066,050455.jpg,1,87,live
180,A2C7TMRC2QHTIW:30H4UDGLT4P47Q8WU5DZAUZQSSVPMF,1478,112278.jpg,1,89,live
181,A2C7TMRC2QHTIW:30H4UDGLT4P47Q8WU5DZAUZQSSVPMF,2147,007128.jpg,5,90,live
182,A2C7TMRC2QHTIW:30H4UDGLT4P47Q8WU5DZAUZQSSVPMF,1480,120726.jpg,6,91,live
183,A2C7TMRC2QHTIW:30H4UDGLT4P47Q8WU5DZAUZQSSVPMF,1413,014755.jpg,5,92,live
184,A2C7TMRC2QHTIW:30H4UDGLT4P47Q8WU5DZAUZQSSVPMF,1804,200278.jpg,1,93,live
185,A2C7TMRC2QHTIW:30H4UDGLT4P47Q8WU5DZAUZQSSVPMF,2652,160622.jpg,6,94,live
186,A2C7TMRC2QHTIW:30H4UDGLT4P47Q8WU5DZAUZQSSVPMF,1763,115851.jpg,1,95,live
187,A2C7TMRC2QHTIW:30H4UDGLT4P47Q8WU5DZAUZQSSVPMF,1566,121737.jpg,1,96,live
188,A2C7TMRC2QHTIW:30H4UDGLT4P47Q8WU5DZAUZQSSVPMF,2526,164278.jpg,5,97,live
189,A2C7TMRC2QHTIW:30H4UDGLT4P47Q8WU5DZAUZQSSVPMF,2109,177368.jpg,1,98,live
190,A2C7TMRC2QHTIW:30H4UDGLT4P47Q8WU5DZAUZQSSVPMF,1671,017238.jpg,9,100,live
191,A2C7TMRC2QHTIW:30H4UDGLT4P47Q8WU5DZAUZQSSVPMF,1491,128631.jpg,1,101,live
192,A2C7TMRC2QHTIW:30H4UDGLT4P47Q8WU5DZAUZQSSVPMF,1892,156121.jpg,5,102,live
193,A2C7TMRC2QHTIW:30H4UDGLT4P47Q8WU5DZAUZQSSVPMF,1835,098484.jpg,1,103,live
194,A2C7TMRC2QHTIW:30H4UDGLT4P47Q8WU5DZAUZQSSVPMF,1211,004868.jpg,1,104,live
195,A2C7TMRC2QHTIW:30H4UDGLT4P47Q8WU5DZAUZQSSVPMF,2517,147371.jpg,5,105,live
196,A2C7TMRC2QHTIW:30H4UDGLT4P47Q8WU5DZAUZQSSVPMF,1763,148453.jpg,1,106,live
197,A2C7TMRC2QHTIW:30H4UDGLT4P47Q8WU5DZAUZQSSVPMF,1419,119535.jpg,1,107,live
198,A2C7TMRC2QHTIW:30H4UDGLT4P47Q8WU5DZAUZQSSVPMF,1515,122364.jpg,9,108,live
199,A2C7TMRC2QHTIW:30H4UDGLT4P47Q8WU5DZAUZQSSVPMF,1187,084296.jpg,9,109,live
200,A25PFSORDO3SWQ:3CFJTT4SXVXT51E5D4LQIF1OBP67IB,2880,177368.jpg,3,1,live
201,A25PFSORDO3SWQ:3CFJTT4SXVXT51E5D4LQIF1OBP67IB,2557,035508.jpg,9,2,live
202,A25PFSORDO3SWQ:3CFJTT4SXVXT51E5D4LQIF1OBP67IB,2845,112278.jpg,2,3,live
203,A25PFSORDO3SWQ:3CFJTT4SXVXT51E5D4LQIF1OBP67IB,3641,128002.jpg,9,4,live
204,A25PFSORDO3SWQ:3CFJTT4SXVXT51E5D4LQIF1OBP67IB,2587,070844.jpg,5,5,live
205,A25PFSORDO3SWQ:3CFJTT4SXVXT51E5D4LQIF1OBP67IB,5497,098484.jpg,4,6,live
206,A25PFSORDO3SWQ:3CFJTT4SXVXT51E5D4LQIF1OBP67IB,2499,063392.jpg,4,7,live
207,A25PFSORDO3SWQ:3CFJTT4SXVXT51E5D4LQIF1OBP67IB,2449,164278.jpg,5,8,live
208,A25PFSORDO3SWQ:3CFJTT4SXVXT51E5D4LQIF1OBP67IB,3755,035590.jpg,8,9,live
209,A25PFSORDO3SWQ:3CFJTT4SXVXT51E5D4LQIF1OBP67IB,2772,059217.jpg,8,10,live
210,A25PFSORDO3SWQ:3CFJTT4SXVXT51E5D4LQIF1OBP67IB,3269,004868.jpg,2,12,live
211,A25PFSORDO3SWQ:3CFJTT4SXVXT51E5D4LQIF1OBP67IB,3358,054267.jpg,5,13,live
212,A25PFSORDO3SWQ:3CFJTT4SXVXT51E5D4LQIF1OBP67IB,2557,144346.jpg,8,14,live
213,A25PFSORDO3SWQ:3CFJTT4SXVXT51E5D4LQIF1OBP67IB,5967,111185.jpg,9,15,live
214,A25PFSORDO3SWQ:3CFJTT4SXVXT51E5D4LQIF1OBP67IB,4043,144010.jpg,4,16,live
215,A25PFSORDO3SWQ:3CFJTT4SXVXT51E5D4LQIF1OBP67IB,4295,115851.jpg,6,17,live
216,A25PFSORDO3SWQ:3CFJTT4SXVXT51E5D4LQIF1OBP67IB,6349,100138.jpg,6,18,live
217,A25PFSORDO3SWQ:3CFJTT4SXVXT51E5D4LQIF1OBP67IB,3292,120726.jpg,5,19,live
218,A25PFSORDO3SWQ:3CFJTT4SXVXT51E5D4LQIF1OBP67IB,3463,141075.jpg,8,20,live
219,A25PFSORDO3SWQ:3CFJTT4SXVXT51E5D4LQIF1OBP67IB,3107,000192.jpg,7,21,live
220,A25PFSORDO3SWQ:3CFJTT4SXVXT51E5D4LQIF1OBP67IB,2517,017238.jpg,4,23,live
221,A25PFSORDO3SWQ:3CFJTT4SXVXT51E5D4LQIF1OBP67IB,3167,148453.jpg,5,24,live
222,A25PFSORDO3SWQ:3CFJTT4SXVXT51E5D4LQIF1OBP67IB,3219,043287.jpg,7,25,live
223,A25PFSORDO3SWQ:3CFJTT4SXVXT51E5D4LQIF1OBP67IB,2507,060174.jpg,9,26,live
224,A25PFSORDO3SWQ:3CFJTT4SXVXT51E5D4LQIF1OBP67IB,4323,120726.jpg,5,27,live
225,A25PFSORDO3SWQ:3CFJTT4SXVXT51E5D4LQIF1OBP67IB,2760,007128.jpg,6,28,live
226,A25PFSORDO3SWQ:3CFJTT4SXVXT51E5D4LQIF1OBP67IB,3372,012925.jpg,3,29,live
227,A25PFSORDO3SWQ:3CFJTT4SXVXT51E5D4LQIF1OBP67IB,3055,082102.jpg,9,30,live
228,A25PFSORDO3SWQ:3CFJTT4SXVXT51E5D4LQIF1OBP67IB,7527,083021.jpg,5,31,live
229,A25PFSORDO3SWQ:3CFJTT4SXVXT51E5D4LQIF1OBP67IB,2607,200021.jpg,8,32,live
230,A25PFSORDO3SWQ:3CFJTT4SXVXT51E5D4LQIF1OBP67IB,6314,039990.jpg,3,34,live
231,A25PFSORDO3SWQ:3CFJTT4SXVXT51E5D4LQIF1OBP67IB,2678,111185.jpg,9,35,live
232,A25PFSORDO3SWQ:3CFJTT4SXVXT51E5D4LQIF1OBP67IB,3097,011510.jpg,4,36,live
233,A25PFSORDO3SWQ:3CFJTT4SXVXT51E5D4LQIF1OBP67IB,2915,033997.jpg,7,37,live
234,A25PFSORDO3SWQ:3CFJTT4SXVXT51E5D4LQIF1OBP67IB,6975,057518.jpg,3,38,live
235,A25PFSORDO3SWQ:3CFJTT4SXVXT51E5D4LQIF1OBP67IB,4201,069359.jpg,4,39,live
236,A25PFSORDO3SWQ:3CFJTT4SXVXT51E5D4LQIF1OBP67IB,3279,104401.jpg,5,40,live
237,A25PFSORDO3SWQ:3CFJTT4SXVXT51E5D4LQIF1OBP67IB,2797,067760.jpg,8,41,live
238,A25PFSORDO3SWQ:3CFJTT4SXVXT51E5D4LQIF1OBP67IB,2823,188240.jpg,9,42,live
239,A25PFSORDO3SWQ:3CFJTT4SXVXT51E5D4LQIF1OBP67IB,2857,115789.jpg,9,43,live
240,A25PFSORDO3SWQ:3CFJTT4SXVXT51E5D4LQIF1OBP67IB,2586,161526.jpg,4,45,live
241,A25PFSORDO3SWQ:3CFJTT4SXVXT51E5D4LQIF1OBP67IB,2367,059217.jpg,8,46,live
242,A25PFSORDO3SWQ:3CFJTT4SXVXT51E5D4LQIF1OBP67IB,3303,100659.jpg,8,47,live
243,A25PFSORDO3SWQ:3CFJTT4SXVXT51E5D4LQIF1OBP67IB,2422,067792.jpg,7,48,live
244,A25PFSORDO3SWQ:3CFJTT4SXVXT51E5D4LQIF1OBP67IB,3017,132629.jpg,7,49,live
245,A25PFSORDO3SWQ:3CFJTT4SXVXT51E5D4LQIF1OBP67IB,3521,057518.jpg,3,50,live
246,A25PFSORDO3SWQ:3CFJTT4SXVXT51E5D4LQIF1OBP67IB,5033,198632.jpg,8,51,live
247,A25PFSORDO3SWQ:3CFJTT4SXVXT51E5D4LQIF1OBP67IB,3456,121737.jpg,3,52,live
248,A25PFSORDO3SWQ:3CFJTT4SXVXT51E5D4LQIF1OBP67IB,2863,112278.jpg,2,53,live
249,A25PFSORDO3SWQ:3CFJTT4SXVXT51E5D4LQIF1OBP67IB,2926,119380.jpg,6,54,live
250,A25PFSORDO3SWQ:3CFJTT4SXVXT51E5D4LQIF1OBP67IB,4228,180966.jpg,7,56,live
251,A25PFSORDO3SWQ:3CFJTT4SXVXT51E5D4LQIF1OBP67IB,5308,010645.jpg,7,57,live
252,A25PFSORDO3SWQ:3CFJTT4SXVXT51E5D4LQIF1OBP67IB,3310,163842.jpg,9,58,live
253,A25PFSORDO3SWQ:3CFJTT4SXVXT51E5D4LQIF1OBP67IB,2746,100138.jpg,6,59,live
254,A25PFSORDO3SWQ:3CFJTT4SXVXT51E5D4LQIF1OBP67IB,3147,084296.jpg,6,60,live
255,A25PFSORDO3SWQ:3CFJTT4SXVXT51E5D4LQIF1OBP67IB,3931,160622.jpg,8,61,live
256,A25PFSORDO3SWQ:3CFJTT4SXVXT51E5D4LQIF1OBP67IB,4089,073829.jpg,9,62,live
257,A25PFSORDO3SWQ:3CFJTT4SXVXT51E5D4LQIF1OBP67IB,2849,017238.jpg,4,63,live
258,A25PFSORDO3SWQ:3CFJTT4SXVXT51E5D4LQIF1OBP67IB,2610,200278.jpg,3,64,live
259,A25PFSORDO3SWQ:3CFJTT4SXVXT51E5D4LQIF1OBP67IB,3579,118166.jpg,9,65,live
260,A25PFSORDO3SWQ:3CFJTT4SXVXT51E5D4LQIF1OBP67IB,4468,054808.jpg,8,67,live
261,A25PFSORDO3SWQ:3CFJTT4SXVXT51E5D4LQIF1OBP67IB,2521,122364.jpg,8,68,live
262,A25PFSORDO3SWQ:3CFJTT4SXVXT51E5D4LQIF1OBP67IB,3871,039990.jpg,4,69,live
263,A25PFSORDO3SWQ:3CFJTT4SXVXT51E5D4LQIF1OBP67IB,3524,086966.jpg,8,70,live
264,A25PFSORDO3SWQ:3CFJTT4SXVXT51E5D4LQIF1OBP67IB,2705,030000.jpg,4,71,live
265,A25PFSORDO3SWQ:3CFJTT4SXVXT51E5D4LQIF1OBP67IB,3287,014755.jpg,6,72,live
266,A25PFSORDO3SWQ:3CFJTT4SXVXT51E5D4LQIF1OBP67IB,5972,096767.jpg,9,73,live
267,A25PFSORDO3SWQ:3CFJTT4SXVXT51E5D4LQIF1OBP67IB,4687,086966.jpg,8,74,live
268,A25PFSORDO3SWQ:3CFJTT4SXVXT51E5D4LQIF1OBP67IB,6637,075975.jpg,5,75,live
269,A25PFSORDO3SWQ:3CFJTT4SXVXT51E5D4LQIF1OBP67IB,4016,098484.jpg,4,76,live
270,A25PFSORDO3SWQ:3CFJTT4SXVXT51E5D4LQIF1OBP67IB,4214,128631.jpg,3,78,live
271,A25PFSORDO3SWQ:3CFJTT4SXVXT51E5D4LQIF1OBP67IB,3274,014755.jpg,6,79,live
272,A25PFSORDO3SWQ:3CFJTT4SXVXT51E5D4LQIF1OBP67IB,5366,153098.jpg,7,80,live
273,A25PFSORDO3SWQ:3CFJTT4SXVXT51E5D4LQIF1OBP67IB,2623,092268.jpg,9,81,live
274,A25PFSORDO3SWQ:3CFJTT4SXVXT51E5D4LQIF1OBP67IB,3931,004868.jpg,2,82,live
275,A25PFSORDO3SWQ:3CFJTT4SXVXT51E5D4LQIF1OBP67IB,2279,050455.jpg,5,83,live
276,A25PFSORDO3SWQ:3CFJTT4SXVXT51E5D4LQIF1OBP67IB,4366,141059.jpg,3,84,live
277,A25PFSORDO3SWQ:3CFJTT4SXVXT51E5D4LQIF1OBP67IB,3809,187879.jpg,9,85,live
278,A25PFSORDO3SWQ:3CFJTT4SXVXT51E5D4LQIF1OBP67IB,3123,102224.jpg,3,86,live
279,A25PFSORDO3SWQ:3CFJTT4SXVXT51E5D4LQIF1OBP67IB,4596,068906.jpg,6,87,live
280,A25PFSORDO3SWQ:3CFJTT4SXVXT51E5D4LQIF1OBP67IB,5874,163887.jpg,9,89,live
281,A25PFSORDO3SWQ:3CFJTT4SXVXT51E5D4LQIF1OBP67IB,3056,198128.jpg,2,90,live
282,A25PFSORDO3SWQ:3CFJTT4SXVXT51E5D4LQIF1OBP67IB,2653,113099.jpg,8,91,live
283,A25PFSORDO3SWQ:3CFJTT4SXVXT51E5D4LQIF1OBP67IB,2689,117478.jpg,9,92,live
284,A25PFSORDO3SWQ:3CFJTT4SXVXT51E5D4LQIF1OBP67IB,6100,035590.jpg,7,93,live
285,A25PFSORDO3SWQ:3CFJTT4SXVXT51E5D4LQIF1OBP67IB,2645,164278.jpg,5,94,live
286,A25PFSORDO3SWQ:3CFJTT4SXVXT51E5D4LQIF1OBP67IB,3325,031206.jpg,6,95,live
287,A25PFSORDO3SWQ:3CFJTT4SXVXT51E5D4LQIF1OBP67IB,6026,047217.jpg,4,96,live
288,A25PFSORDO3SWQ:3CFJTT4SXVXT51E5D4LQIF1OBP67IB,2688,089364.jpg,3,97,live
289,A25PFSORDO3SWQ:3CFJTT4SXVXT51E5D4LQIF1OBP67IB,4198,084296.jpg,6,98,live
290,A25PFSORDO3SWQ:3CFJTT4SXVXT51E5D4LQIF1OBP67IB,3546,121110.jpg,6,100,live
291,A25PFSORDO3SWQ:3CFJTT4SXVXT51E5D4LQIF1OBP67IB,2342,160622.jpg,8,101,live
292,A25PFSORDO3SWQ:3CFJTT4SXVXT51E5D4LQIF1OBP67IB,2747,119535.jpg,6,102,live
293,A25PFSORDO3SWQ:3CFJTT4SXVXT51E5D4LQIF1OBP67IB,7087,077912.jpg,4,103,live
294,A25PFSORDO3SWQ:3CFJTT4SXVXT51E5D4LQIF1OBP67IB,2741,156121.jpg,5,104,live
295,A25PFSORDO3SWQ:3CFJTT4SXVXT51E5D4LQIF1OBP67IB,3551,177368.jpg,4,105,live
296,A25PFSORDO3SWQ:3CFJTT4SXVXT51E5D4LQIF1OBP67IB,2843,073829.jpg,8,106,live
297,A25PFSORDO3SWQ:3CFJTT4SXVXT51E5D4LQIF1OBP67IB,2684,035508.jpg,9,107,live
298,A25PFSORDO3SWQ:3CFJTT4SXVXT51E5D4LQIF1OBP67IB,2897,117478.jpg,9,108,live
299,A25PFSORDO3SWQ:3CFJTT4SXVXT51E5D4LQIF1OBP67IB,3015,147371.jpg,7,109,live
300,A396Q093FLSH4G:3Z7VU45IP0O1P5ODOSS3H0D14G91Z6,2785,047217.jpg,8,1,live
301,A396Q093FLSH4G:3Z7VU45IP0O1P5ODOSS3H0D14G91Z6,2798,004868.jpg,6,2,live
302,A396Q093FLSH4G:3Z7VU45IP0O1P5ODOSS3H0D14G91Z6,2373,050455.jpg,7,3,live
303,A396Q093FLSH4G:3Z7VU45IP0O1P5ODOSS3H0D14G91Z6,3005,200021.jpg,9,4,live
304,A396Q093FLSH4G:3Z7VU45IP0O1P5ODOSS3H0D14G91Z6,2695,060174.jpg,8,5,live
305,A396Q093FLSH4G:3Z7VU45IP0O1P5ODOSS3H0D14G91Z6,4030,098484.jpg,6,6,live
306,A396Q093FLSH4G:3Z7VU45IP0O1P5ODOSS3H0D14G91Z6,2694,057518.jpg,6,7,live
307,A396Q093FLSH4G:3Z7VU45IP0O1P5ODOSS3H0D14G91Z6,1926,035508.jpg,8,8,live
308,A396Q093FLSH4G:3Z7VU45IP0O1P5ODOSS3H0D14G91Z6,2262,017238.jpg,6,9,live
309,A396Q093FLSH4G:3Z7VU45IP0O1P5ODOSS3H0D14G91Z6,1796,160622.jpg,8,10,live
310,A396Q093FLSH4G:3Z7VU45IP0O1P5ODOSS3H0D14G91Z6,3672,083021.jpg,6,12,live
311,A396Q093FLSH4G:3Z7VU45IP0O1P5ODOSS3H0D14G91Z6,1815,059217.jpg,7,13,live
312,A396Q093FLSH4G:3Z7VU45IP0O1P5ODOSS3H0D14G91Z6,2717,141075.jpg,8,14,live
313,A396Q093FLSH4G:3Z7VU45IP0O1P5ODOSS3H0D14G91Z6,2166,035590.jpg,9,15,live
314,A396Q093FLSH4G:3Z7VU45IP0O1P5ODOSS3H0D14G91Z6,2199,163887.jpg,6,16,live
315,A396Q093FLSH4G:3Z7VU45IP0O1P5ODOSS3H0D14G91Z6,2678,035508.jpg,7,17,live
316,A396Q093FLSH4G:3Z7VU45IP0O1P5ODOSS3H0D14G91Z6,2726,033997.jpg,8,18,live
317,A396Q093FLSH4G:3Z7VU45IP0O1P5ODOSS3H0D14G91Z6,1902,100138.jpg,5,19,live
318,A396Q093FLSH4G:3Z7VU45IP0O1P5ODOSS3H0D14G91Z6,2733,010645.jpg,9,20,live
319,A396Q093FLSH4G:3Z7VU45IP0O1P5ODOSS3H0D14G91Z6,2421,112278.jpg,8,21,live
320,A396Q093FLSH4G:3Z7VU45IP0O1P5ODOSS3H0D14G91Z6,5564,059217.jpg,6,23,live
321,A396Q093FLSH4G:3Z7VU45IP0O1P5ODOSS3H0D14G91Z6,1942,164278.jpg,7,24,live
322,A396Q093FLSH4G:3Z7VU45IP0O1P5ODOSS3H0D14G91Z6,2622,075975.jpg,8,25,live
323,A396Q093FLSH4G:3Z7VU45IP0O1P5ODOSS3H0D14G91Z6,1590,086966.jpg,7,26,live
324,A396Q093FLSH4G:3Z7VU45IP0O1P5ODOSS3H0D14G91Z6,2821,122364.jpg,8,27,live
325,A396Q093FLSH4G:3Z7VU45IP0O1P5ODOSS3H0D14G91Z6,3038,039990.jpg,5,28,live
326,A396Q093FLSH4G:3Z7VU45IP0O1P5ODOSS3H0D14G91Z6,2150,054267.jpg,6,29,live
327,A396Q093FLSH4G:3Z7VU45IP0O1P5ODOSS3H0D14G91Z6,2869,073829.jpg,8,30,live
328,A396Q093FLSH4G:3Z7VU45IP0O1P5ODOSS3H0D14G91Z6,8678,082102.jpg,9,31,live
329,A396Q093FLSH4G:3Z7VU45IP0O1P5ODOSS3H0D14G91Z6,6494,004868.jpg,6,32,live
330,A396Q093FLSH4G:3Z7VU45IP0O1P5ODOSS3H0D14G91Z6,8624,084296.jpg,6,34,live
331,A396Q093FLSH4G:3Z7VU45IP0O1P5ODOSS3H0D14G91Z6,2246,163842.jpg,7,35,live
332,A396Q093FLSH4G:3Z7VU45IP0O1P5ODOSS3H0D14G91Z6,3157,147371.jpg,8,36,live
333,A396Q093FLSH4G:3Z7VU45IP0O1P5ODOSS3H0D14G91Z6,2238,148453.jpg,5,37,live
334,A396Q093FLSH4G:3Z7VU45IP0O1P5ODOSS3H0D14G91Z6,2326,121110.jpg,6,38,live
335,A396Q093FLSH4G:3Z7VU45IP0O1P5ODOSS3H0D14G91Z6,10453,069359.jpg,6,39,live
336,A396Q093FLSH4G:3Z7VU45IP0O1P5ODOSS3H0D14G91Z6,3389,089364.jpg,5,40,live
337,A396Q093FLSH4G:3Z7VU45IP0O1P5ODOSS3H0D14G91Z6,2614,144010.jpg,4,41,live
338,A396Q093FLSH4G:3Z7VU45IP0O1P5ODOSS3H0D14G91Z6,2973,102224.jpg,4,42,live
339,A396Q093FLSH4G:3Z7VU45IP0O1P5ODOSS3H0D14G91Z6,2246,011510.jpg,6,43,live
340,A396Q093FLSH4G:3Z7VU45IP0O1P5ODOSS3H0D14G91Z6,1993,070844.jpg,6,45,live
341,A396Q093FLSH4G:3Z7VU45IP0O1P5ODOSS3H0D14G91Z6,2142,063392.jpg,8,46,live
342,A396Q093FLSH4G:3Z7VU45IP0O1P5ODOSS3H0D14G91Z6,1646,187879.jpg,7,47,live
343,A396Q093FLSH4G:3Z7VU45IP0O1P5ODOSS3H0D14G91Z6,2030,111185.jpg,5,48,live
344,A396Q093FLSH4G:3Z7VU45IP0O1P5ODOSS3H0D14G91Z6,2413,180966.jpg,6,49,live
345,A396Q093FLSH4G:3Z7VU45IP0O1P5ODOSS3H0D14G91Z6,2462,164278.jpg,5,50,live
346,A396Q093FLSH4G:3Z7VU45IP0O1P5ODOSS3H0D14G91Z6,2575,092268.jpg,6,51,live
347,A396Q093FLSH4G:3Z7VU45IP0O1P5ODOSS3H0D14G91Z6,4590,198632.jpg,9,52,live
348,A396Q093FLSH4G:3Z7VU45IP0O1P5ODOSS3H0D14G91Z6,2614,119535.jpg,5,53,live
349,A396Q093FLSH4G:3Z7VU45IP0O1P5ODOSS3H0D14G91Z6,12061,054808.jpg,9,54,live
350,A396Q093FLSH4G:3Z7VU45IP0O1P5ODOSS3H0D14G91Z6,2373,084296.jpg,8,56,live
351,A396Q093FLSH4G:3Z7VU45IP0O1P5ODOSS3H0D14G91Z6,2094,035590.jpg,6,57,live
352,A396Q093FLSH4G:3Z7VU45IP0O1P5ODOSS3H0D14G91Z6,4878,161526.jpg,5,58,live
353,A396Q093FLSH4G:3Z7VU45IP0O1P5ODOSS3H0D14G91Z6,18012,039990.jpg,4,59,live
354,A396Q093FLSH4G:3Z7VU45IP0O1P5ODOSS3H0D14G91Z6,23333,160622.jpg,7,60,live
355,A396Q093FLSH4G:3Z7VU45IP0O1P5ODOSS3H0D14G91Z6,2261,115851.jpg,5,61,live
356,A396Q093FLSH4G:3Z7VU45IP0O1P5ODOSS3H0D14G91Z6,3462,177368.jpg,4,62,live
357,A396Q093FLSH4G:3Z7VU45IP0O1P5ODOSS3H0D14G91Z6,3870,111185.jpg,9,63,live
358,A396Q093FLSH4G:3Z7VU45IP0O1P5ODOSS3H0D14G91Z6,2558,100659.jpg,7,64,live
359,A396Q093FLSH4G:3Z7VU45IP0O1P5ODOSS3H0D14G91Z6,2133,067760.jpg,8,65,live
360,A396Q093FLSH4G:3Z7VU45IP0O1P5ODOSS3H0D14G91Z6,2948,117478.jpg,9,67,live
361,A396Q093FLSH4G:3Z7VU45IP0O1P5ODOSS3H0D14G91Z6,2590,128631.jpg,5,68,live
362,A396Q093FLSH4G:3Z7VU45IP0O1P5ODOSS3H0D14G91Z6,2446,188240.jpg,6,69,live
363,A396Q093FLSH4G:3Z7VU45IP0O1P5ODOSS3H0D14G91Z6,3943,112278.jpg,5,70,live
364,A396Q093FLSH4G:3Z7VU45IP0O1P5ODOSS3H0D14G91Z6,2893,115789.jpg,7,71,live
365,A396Q093FLSH4G:3Z7VU45IP0O1P5ODOSS3H0D14G91Z6,2414,057518.jpg,4,72,live
366,A396Q093FLSH4G:3Z7VU45IP0O1P5ODOSS3H0D14G91Z6,2414,141059.jpg,5,73,live
367,A396Q093FLSH4G:3Z7VU45IP0O1P5ODOSS3H0D14G91Z6,2621,198128.jpg,4,74,live
368,A396Q093FLSH4G:3Z7VU45IP0O1P5ODOSS3H0D14G91Z6,2695,128002.jpg,9,75,live
369,A396Q093FLSH4G:3Z7VU45IP0O1P5ODOSS3H0D14G91Z6,2565,098484.jpg,5,76,live
370,A396Q093FLSH4G:3Z7VU45IP0O1P5ODOSS3H0D14G91Z6,5916,118166.jpg,7,78,live
371,A396Q093FLSH4G:3Z7VU45IP0O1P5ODOSS3H0D14G91Z6,3150,113099.jpg,9,79,live
372,A396Q093FLSH4G:3Z7VU45IP0O1P5ODOSS3H0D14G91Z6,4647,067792.jpg,9,80,live
373,A396Q093FLSH4G:3Z7VU45IP0O1P5ODOSS3H0D14G91Z6,2398,068906.jpg,6,81,live
374,A396Q093FLSH4G:3Z7VU45IP0O1P5ODOSS3H0D14G91Z6,2374,096767.jpg,8,82,live
375,A396Q093FLSH4G:3Z7VU45IP0O1P5ODOSS3H0D14G91Z6,7942,014755.jpg,5,83,live
376,A396Q093FLSH4G:3Z7VU45IP0O1P5ODOSS3H0D14G91Z6,2078,117478.jpg,8,84,live
377,A396Q093FLSH4G:3Z7VU45IP0O1P5ODOSS3H0D14G91Z6,2757,000192.jpg,7,85,live
378,A396Q093FLSH4G:3Z7VU45IP0O1P5ODOSS3H0D14G91Z6,2103,043287.jpg,5,86,live
379,A396Q093FLSH4G:3Z7VU45IP0O1P5ODOSS3H0D14G91Z6,2278,144346.jpg,9,87,live
380,A396Q093FLSH4G:3Z7VU45IP0O1P5ODOSS3H0D14G91Z6,3024,177368.jpg,4,89,live
381,A396Q093FLSH4G:3Z7VU45IP0O1P5ODOSS3H0D14G91Z6,2222,120726.jpg,5,90,live
382,A396Q093FLSH4G:3Z7VU45IP0O1P5ODOSS3H0D14G91Z6,2598,030000.jpg,6,91,live
383,A396Q093FLSH4G:3Z7VU45IP0O1P5ODOSS3H0D14G91Z6,2709,017238.jpg,5,92,live
384,A396Q093FLSH4G:3Z7VU45IP0O1P5ODOSS3H0D14G91Z6,2326,073829.jpg,8,93,live
385,A396Q093FLSH4G:3Z7VU45IP0O1P5ODOSS3H0D14G91Z6,2685,120726.jpg,4,94,live
386,A396Q093FLSH4G:3Z7VU45IP0O1P5ODOSS3H0D14G91Z6,3806,121737.jpg,3,95,live
387,A396Q093FLSH4G:3Z7VU45IP0O1P5ODOSS3H0D14G91Z6,2742,014755.jpg,6,96,live
388,A396Q093FLSH4G:3Z7VU45IP0O1P5ODOSS3H0D14G91Z6,3830,086966.jpg,5,97,live
389,A396Q093FLSH4G:3Z7VU45IP0O1P5ODOSS3H0D14G91Z6,3110,031206.jpg,4,98,live
390,A396Q093FLSH4G:3Z7VU45IP0O1P5ODOSS3H0D14G91Z6,3614,156121.jpg,7,100,live
391,A396Q093FLSH4G:3Z7VU45IP0O1P5ODOSS3H0D14G91Z6,1254,200278.jpg,6,101,live
392,A396Q093FLSH4G:3Z7VU45IP0O1P5ODOSS3H0D14G91Z6,2925,119380.jpg,9,102,live
393,A396Q093FLSH4G:3Z7VU45IP0O1P5ODOSS3H0D14G91Z6,2230,132629.jpg,8,103,live
394,A396Q093FLSH4G:3Z7VU45IP0O1P5ODOSS3H0D14G91Z6,1822,153098.jpg,6,104,live
395,A396Q093FLSH4G:3Z7VU45IP0O1P5ODOSS3H0D14G91Z6,1870,007128.jpg,5,105,live
396,A396Q093FLSH4G:3Z7VU45IP0O1P5ODOSS3H0D14G91Z6,3423,100138.jpg,7,106,live
397,A396Q093FLSH4G:3Z7VU45IP0O1P5ODOSS3H0D14G91Z6,2486,104401.jpg,6,107,live
398,A396Q093FLSH4G:3Z7VU45IP0O1P5ODOSS3H0D14G91Z6,1902,012925.jpg,5,108,live
399,A396Q093FLSH4G:3Z7VU45IP0O1P5ODOSS3H0D14G91Z6,1534,077912.jpg,4,109,live
400,A17D6BK59S31BM:3R5F3LQFV4RMLXVEUUQETWQ9XRHZOP,4597,014755.jpg,6,1,live
401,A17D6BK59S31BM:3R5F3LQFV4RMLXVEUUQETWQ9XRHZOP,2721,119535.jpg,5,2,live
402,A17D6BK59S31BM:3R5F3LQFV4RMLXVEUUQETWQ9XRHZOP,3123,161526.jpg,2,3,live
403,A17D6BK59S31BM:3R5F3LQFV4RMLXVEUUQETWQ9XRHZOP,2360,156121.jpg,5,4,live
404,A17D6BK59S31BM:3R5F3LQFV4RMLXVEUUQETWQ9XRHZOP,2543,010645.jpg,8,5,live
405,A17D6BK59S31BM:3R5F3LQFV4RMLXVEUUQETWQ9XRHZOP,3151,200278.jpg,2,6,live
406,A17D6BK59S31BM:3R5F3LQFV4RMLXVEUUQETWQ9XRHZOP,2605,073829.jpg,8,7,live
407,A17D6BK59S31BM:3R5F3LQFV4RMLXVEUUQETWQ9XRHZOP,3048,054808.jpg,7,8,live
408,A17D6BK59S31BM:3R5F3LQFV4RMLXVEUUQETWQ9XRHZOP,2365,067760.jpg,8,9,live
409,A17D6BK59S31BM:3R5F3LQFV4RMLXVEUUQETWQ9XRHZOP,2687,187879.jpg,7,10,live
410,A17D6BK59S31BM:3R5F3LQFV4RMLXVEUUQETWQ9XRHZOP,2867,198632.jpg,8,12,live
411,A17D6BK59S31BM:3R5F3LQFV4RMLXVEUUQETWQ9XRHZOP,3576,115851.jpg,5,13,live
412,A17D6BK59S31BM:3R5F3LQFV4RMLXVEUUQETWQ9XRHZOP,2833,017238.jpg,6,14,live
413,A17D6BK59S31BM:3R5F3LQFV4RMLXVEUUQETWQ9XRHZOP,2505,073829.jpg,7,15,live
414,A17D6BK59S31BM:3R5F3LQFV4RMLXVEUUQETWQ9XRHZOP,3752,198128.jpg,1,16,live
415,A17D6BK59S31BM:3R5F3LQFV4RMLXVEUUQETWQ9XRHZOP,2835,113099.jpg,8,17,live
416,A17D6BK59S31BM:3R5F3LQFV4RMLXVEUUQETWQ9XRHZOP,2847,153098.jpg,7,18,live
417,A17D6BK59S31BM:3R5F3LQFV4RMLXVEUUQETWQ9XRHZOP,2504,059217.jpg,7,19,live
418,A17D6BK59S31BM:3R5F3LQFV4RMLXVEUUQETWQ9XRHZOP,2941,092268.jpg,8,20,live
419,A17D6BK59S31BM:3R5F3LQFV4RMLXVEUUQETWQ9XRHZOP,2848,188240.jpg,8,21,live
420,A17D6BK59S31BM:3R5F3LQFV4RMLXVEUUQETWQ9XRHZOP,3261,068906.jpg,6,23,live
421,A17D6BK59S31BM:3R5F3LQFV4RMLXVEUUQETWQ9XRHZOP,3341,063392.jpg,3,24,live
422,A17D6BK59S31BM:3R5F3LQFV4RMLXVEUUQETWQ9XRHZOP,2765,163887.jpg,5,25,live
423,A17D6BK59S31BM:3R5F3LQFV4RMLXVEUUQETWQ9XRHZOP,2771,047217.jpg,2,26,live
424,A17D6BK59S31BM:3R5F3LQFV4RMLXVEUUQETWQ9XRHZOP,2458,141075.jpg,6,27,live
425,A17D6BK59S31BM:3R5F3LQFV4RMLXVEUUQETWQ9XRHZOP,2349,104401.jpg,4,28,live
426,A17D6BK59S31BM:3R5F3LQFV4RMLXVEUUQETWQ9XRHZOP,4154,164278.jpg,3,29,live
427,A17D6BK59S31BM:3R5F3LQFV4RMLXVEUUQETWQ9XRHZOP,5525,012925.jpg,1,30,live
428,A17D6BK59S31BM:3R5F3LQFV4RMLXVEUUQETWQ9XRHZOP,8740,112278.jpg,1,31,live
429,A17D6BK59S31BM:3R5F3LQFV4RMLXVEUUQETWQ9XRHZOP,2419,120726.jpg,5,32,live
430,A17D6BK59S31BM:3R5F3LQFV4RMLXVEUUQETWQ9XRHZOP,8678,086966.jpg,7,34,live
431,A17D6BK59S31BM:3R5F3LQFV4RMLXVEUUQETWQ9XRHZOP,2365,035590.jpg,7,35,live
432,A17D6BK59S31BM:3R5F3LQFV4RMLXVEUUQETWQ9XRHZOP,2729,057518.jpg,1,36,live
433,A17D6BK59S31BM:3R5F3LQFV4RMLXVEUUQETWQ9XRHZOP,4241,164278.jpg,4,37,live
434,A17D6BK59S31BM:3R5F3LQFV4RMLXVEUUQETWQ9XRHZOP,3418,119380.jpg,8,38,live
435,A17D6BK59S31BM:3R5F3LQFV4RMLXVEUUQETWQ9XRHZOP,2429,060174.jpg,8,39,live
436,A17D6BK59S31BM:3R5F3LQFV4RMLXVEUUQETWQ9XRHZOP,2547,147371.jpg,7,40,live
437,A17D6BK59S31BM:3R5F3LQFV4RMLXVEUUQETWQ9XRHZOP,2641,039990.jpg,1,41,live
438,A17D6BK59S31BM:3R5F3LQFV4RMLXVEUUQETWQ9XRHZOP,2666,121110.jpg,7,42,live
439,A17D6BK59S31BM:3R5F3LQFV4RMLXVEUUQETWQ9XRHZOP,4124,017238.jpg,6,43,live
440,A17D6BK59S31BM:3R5F3LQFV4RMLXVEUUQETWQ9XRHZOP,4026,033997.jpg,7,45,live
441,A17D6BK59S31BM:3R5F3LQFV4RMLXVEUUQETWQ9XRHZOP,2259,067792.jpg,7,46,live
442,A17D6BK59S31BM:3R5F3LQFV4RMLXVEUUQETWQ9XRHZOP,2355,177368.jpg,2,47,live
443,A17D6BK59S31BM:3R5F3LQFV4RMLXVEUUQETWQ9XRHZOP,2272,144346.jpg,7,48,live
444,A17D6BK59S31BM:3R5F3LQFV4RMLXVEUUQETWQ9XRHZOP,2783,144010.jpg,1,49,live
445,A17D6BK59S31BM:3R5F3LQFV4RMLXVEUUQETWQ9XRHZOP,2138,004868.jpg,1,50,live
446,A17D6BK59S31BM:3R5F3LQFV4RMLXVEUUQETWQ9XRHZOP,2403,115789.jpg,7,51,live
447,A17D6BK59S31BM:3R5F3LQFV4RMLXVEUUQETWQ9XRHZOP,2105,077912.jpg,1,52,live
448,A17D6BK59S31BM:3R5F3LQFV4RMLXVEUUQETWQ9XRHZOP,2260,102224.jpg,1,53,live
449,A17D6BK59S31BM:3R5F3LQFV4RMLXVEUUQETWQ9XRHZOP,2662,007128.jpg,4,54,live
450,A17D6BK59S31BM:3R5F3LQFV4RMLXVEUUQETWQ9XRHZOP,2467,120726.jpg,5,56,live
451,A17D6BK59S31BM:3R5F3LQFV4RMLXVEUUQETWQ9XRHZOP,2441,128631.jpg,1,57,live
452,A17D6BK59S31BM:3R5F3LQFV4RMLXVEUUQETWQ9XRHZOP,2413,070844.jpg,6,58,live
453,A17D6BK59S31BM:3R5F3LQFV4RMLXVEUUQETWQ9XRHZOP,2390,039990.jpg,1,59,live
454,A17D6BK59S31BM:3R5F3LQFV4RMLXVEUUQETWQ9XRHZOP,2346,117478.jpg,7,60,live
455,A17D6BK59S31BM:3R5F3LQFV4RMLXVEUUQETWQ9XRHZOP,2598,035508.jpg,8,61,live
456,A17D6BK59S31BM:3R5F3LQFV4RMLXVEUUQETWQ9XRHZOP,2537,082102.jpg,8,62,live
457,A17D6BK59S31BM:3R5F3LQFV4RMLXVEUUQETWQ9XRHZOP,2742,011510.jpg,1,63,live
458,A17D6BK59S31BM:3R5F3LQFV4RMLXVEUUQETWQ9XRHZOP,2294,059217.jpg,7,64,live
459,A17D6BK59S31BM:3R5F3LQFV4RMLXVEUUQETWQ9XRHZOP,2320,180966.jpg,7,65,live
460,A17D6BK59S31BM:3R5F3LQFV4RMLXVEUUQETWQ9XRHZOP,2623,122364.jpg,7,67,live
461,A17D6BK59S31BM:3R5F3LQFV4RMLXVEUUQETWQ9XRHZOP,2882,160622.jpg,7,68,live
462,A17D6BK59S31BM:3R5F3LQFV4RMLXVEUUQETWQ9XRHZOP,2283,132629.jpg,6,69,live
463,A17D6BK59S31BM:3R5F3LQFV4RMLXVEUUQETWQ9XRHZOP,2332,084296.jpg,8,70,live
464,A17D6BK59S31BM:3R5F3LQFV4RMLXVEUUQETWQ9XRHZOP,2292,100138.jpg,6,71,live
465,A17D6BK59S31BM:3R5F3LQFV4RMLXVEUUQETWQ9XRHZOP,2424,128002.jpg,8,72,live
466,A17D6BK59S31BM:3R5F3LQFV4RMLXVEUUQETWQ9XRHZOP,2551,035590.jpg,7,73,live
467,A17D6BK59S31BM:3R5F3LQFV4RMLXVEUUQETWQ9XRHZOP,2585,098484.jpg,1,74,live
468,A17D6BK59S31BM:3R5F3LQFV4RMLXVEUUQETWQ9XRHZOP,2544,050455.jpg,1,75,live
469,A17D6BK59S31BM:3R5F3LQFV4RMLXVEUUQETWQ9XRHZOP,6771,014755.jpg,6,76,live
470,A17D6BK59S31BM:3R5F3LQFV4RMLXVEUUQETWQ9XRHZOP,2750,035508.jpg,8,78,live
471,A17D6BK59S31BM:3R5F3LQFV4RMLXVEUUQETWQ9XRHZOP,2570,200021.jpg,7,79,live
472,A17D6BK59S31BM:3R5F3LQFV4RMLXVEUUQETWQ9XRHZOP,2679,000192.jpg,7,80,live
473,A17D6BK59S31BM:3R5F3LQFV4RMLXVEUUQETWQ9XRHZOP,2697,030000.jpg,1,81,live
474,A17D6BK59S31BM:3R5F3LQFV4RMLXVEUUQETWQ9XRHZOP,2358,111185.jpg,8,82,live
475,A17D6BK59S31BM:3R5F3LQFV4RMLXVEUUQETWQ9XRHZOP,2275,098484.jpg,1,83,live
476,A17D6BK59S31BM:3R5F3LQFV4RMLXVEUUQETWQ9XRHZOP,2230,075975.jpg,6,84,live
477,A17D6BK59S31BM:3R5F3LQFV4RMLXVEUUQETWQ9XRHZOP,3875,069359.jpg,1,85,live
478,A17D6BK59S31BM:3R5F3LQFV4RMLXVEUUQETWQ9XRHZOP,3198,118166.jpg,6,86,live
479,A17D6BK59S31BM:3R5F3LQFV4RMLXVEUUQETWQ9XRHZOP,2325,089364.jpg,1,87,live
480,A17D6BK59S31BM:3R5F3LQFV4RMLXVEUUQETWQ9XRHZOP,3647,160622.jpg,7,89,live
481,A17D6BK59S31BM:3R5F3LQFV4RMLXVEUUQETWQ9XRHZOP,2273,148453.jpg,3,90,live
482,A17D6BK59S31BM:3R5F3LQFV4RMLXVEUUQETWQ9XRHZOP,2308,111185.jpg,7,91,live
483,A17D6BK59S31BM:3R5F3LQFV4RMLXVEUUQETWQ9XRHZOP,2191,086966.jpg,7,92,live
484,A17D6BK59S31BM:3R5F3LQFV4RMLXVEUUQETWQ9XRHZOP,2650,084296.jpg,8,93,live
485,A17D6BK59S31BM:3R5F3LQFV4RMLXVEUUQETWQ9XRHZOP,3687,083021.jpg,2,94,live
486,A17D6BK59S31BM:3R5F3LQFV4RMLXVEUUQETWQ9XRHZOP,2563,163842.jpg,6,95,live
487,A17D6BK59S31BM:3R5F3LQFV4RMLXVEUUQETWQ9XRHZOP,3945,177368.jpg,2,96,live
488,A17D6BK59S31BM:3R5F3LQFV4RMLXVEUUQETWQ9XRHZOP,2873,121737.jpg,1,97,live
489,A17D6BK59S31BM:3R5F3LQFV4RMLXVEUUQETWQ9XRHZOP,2350,004868.jpg,1,98,live
490,A17D6BK59S31BM:3R5F3LQFV4RMLXVEUUQETWQ9XRHZOP,3736,117478.jpg,7,100,live
491,A17D6BK59S31BM:3R5F3LQFV4RMLXVEUUQETWQ9XRHZOP,4292,054267.jpg,3,101,live
492,A17D6BK59S31BM:3R5F3LQFV4RMLXVEUUQETWQ9XRHZOP,2391,096767.jpg,7,102,live
493,A17D6BK59S31BM:3R5F3LQFV4RMLXVEUUQETWQ9XRHZOP,2104,043287.jpg,6,103,live
494,A17D6BK59S31BM:3R5F3LQFV4RMLXVEUUQETWQ9XRHZOP,2693,100659.jpg,6,104,live
495,A17D6BK59S31BM:3R5F3LQFV4RMLXVEUUQETWQ9XRHZOP,2815,141059.jpg,1,105,live
496,A17D6BK59S31BM:3R5F3LQFV4RMLXVEUUQETWQ9XRHZOP,2337,057518.jpg,1,106,live
497,A17D6BK59S31BM:3R5F3LQFV4RMLXVEUUQETWQ9XRHZOP,2254,112278.jpg,1,107,live
498,A17D6BK59S31BM:3R5F3LQFV4RMLXVEUUQETWQ9XRHZOP,2458,031206.jpg,6,108,live
499,A17D6BK59S31BM:3R5F3LQFV4RMLXVEUUQETWQ9XRHZOP,2723,100138.jpg,6,109,live
500,A1IV1O890FN1QA:3PPTZCWALSRP698U97III1L9CSZZQX,19229,111185.jpg,9,1,live
501,A1IV1O890FN1QA:3PPTZCWALSRP698U97III1L9CSZZQX,2613,148453.jpg,7,2,live
502,A1IV1O890FN1QA:3PPTZCWALSRP698U97III1L9CSZZQX,2982,092268.jpg,8,3,live
503,A1IV1O890FN1QA:3PPTZCWALSRP698U97III1L9CSZZQX,2656,121737.jpg,7,4,live
504,A1IV1O890FN1QA:3PPTZCWALSRP698U97III1L9CSZZQX,3478,035508.jpg,9,5,live
505,A1IV1O890FN1QA:3PPTZCWALSRP698U97III1L9CSZZQX,3189,117478.jpg,9,6,live
506,A1IV1O890FN1QA:3PPTZCWALSRP698U97III1L9CSZZQX,5845,200021.jpg,8,7,live
507,A1IV1O890FN1QA:3PPTZCWALSRP698U97III1L9CSZZQX,3157,163887.jpg,8,8,live
508,A1IV1O890FN1QA:3PPTZCWALSRP698U97III1L9CSZZQX,2871,163842.jpg,8,9,live
509,A1IV1O890FN1QA:3PPTZCWALSRP698U97III1L9CSZZQX,8924,059217.jpg,9,10,live
510,A1IV1O890FN1QA:3PPTZCWALSRP698U97III1L9CSZZQX,2837,128631.jpg,7,12,live
511,A1IV1O890FN1QA:3PPTZCWALSRP698U97III1L9CSZZQX,1998,060174.jpg,8,13,live
512,A1IV1O890FN1QA:3PPTZCWALSRP698U97III1L9CSZZQX,2792,198632.jpg,9,14,live
513,A1IV1O890FN1QA:3PPTZCWALSRP698U97III1L9CSZZQX,1734,113099.jpg,9,15,live
514,A1IV1O890FN1QA:3PPTZCWALSRP698U97III1L9CSZZQX,3303,119380.jpg,9,16,live
515,A1IV1O890FN1QA:3PPTZCWALSRP698U97III1L9CSZZQX,2534,075975.jpg,8,17,live
516,A1IV1O890FN1QA:3PPTZCWALSRP698U97III1L9CSZZQX,2023,188240.jpg,9,18,live
517,A1IV1O890FN1QA:3PPTZCWALSRP698U97III1L9CSZZQX,2022,177368.jpg,8,19,live
518,A1IV1O890FN1QA:3PPTZCWALSRP698U97III1L9CSZZQX,2174,200278.jpg,8,20,live
519,A1IV1O890FN1QA:3PPTZCWALSRP698U97III1L9CSZZQX,3007,112278.jpg,7,21,live
520,A1IV1O890FN1QA:3PPTZCWALSRP698U97III1L9CSZZQX,2223,014755.jpg,8,23,live
521,A1IV1O890FN1QA:3PPTZCWALSRP698U97III1L9CSZZQX,1751,011510.jpg,9,24,live
522,A1IV1O890FN1QA:3PPTZCWALSRP698U97III1L9CSZZQX,1510,017238.jpg,8,25,live
523,A1IV1O890FN1QA:3PPTZCWALSRP698U97III1L9CSZZQX,1678,068906.jpg,9,26,live
524,A1IV1O890FN1QA:3PPTZCWALSRP698U97III1L9CSZZQX,1501,086966.jpg,8,27,live
525,A1IV1O890FN1QA:3PPTZCWALSRP698U97III1L9CSZZQX,1406,160622.jpg,8,28,live
526,A1IV1O890FN1QA:3PPTZCWALSRP698U97III1L9CSZZQX,1718,077912.jpg,9,29,live
527,A1IV1O890FN1QA:3PPTZCWALSRP698U97III1L9CSZZQX,2774,141059.jpg,7,30,live
528,A1IV1O890FN1QA:3PPTZCWALSRP698U97III1L9CSZZQX,1703,144010.jpg,9,31,live
529,A1IV1O890FN1QA:3PPTZCWALSRP698U97III1L9CSZZQX,3014,132629.jpg,9,32,live
530,A1IV1O890FN1QA:3PPTZCWALSRP698U97III1L9CSZZQX,2429,054267.jpg,8,34,live
531,A1IV1O890FN1QA:3PPTZCWALSRP698U97III1L9CSZZQX,2134,084296.jpg,9,35,live
532,A1IV1O890FN1QA:3PPTZCWALSRP698U97III1L9CSZZQX,2741,104401.jpg,8,36,live
533,A1IV1O890FN1QA:3PPTZCWALSRP698U97III1L9CSZZQX,1775,014755.jpg,8,37,live
534,A1IV1O890FN1QA:3PPTZCWALSRP698U97III1L9CSZZQX,1958,073829.jpg,9,38,live
535,A1IV1O890FN1QA:3PPTZCWALSRP698U97III1L9CSZZQX,1856,089364.jpg,8,39,live
536,A1IV1O890FN1QA:3PPTZCWALSRP698U97III1L9CSZZQX,1853,035590.jpg,9,40,live
537,A1IV1O890FN1QA:3PPTZCWALSRP698U97III1L9CSZZQX,1813,054808.jpg,8,41,live
538,A1IV1O890FN1QA:3PPTZCWALSRP698U97III1L9CSZZQX,2949,098484.jpg,7,42,live
539,A1IV1O890FN1QA:3PPTZCWALSRP698U97III1L9CSZZQX,1750,050455.jpg,8,43,live
540,A1IV1O890FN1QA:3PPTZCWALSRP698U97III1L9CSZZQX,5161,047217.jpg,7,45,live
541,A1IV1O890FN1QA:3PPTZCWALSRP698U97III1L9CSZZQX,2655,118166.jpg,8,46,live
542,A1IV1O890FN1QA:3PPTZCWALSRP698U97III1L9CSZZQX,1710,160622.jpg,9,47,live
543,A1IV1O890FN1QA:3PPTZCWALSRP698U97III1L9CSZZQX,1806,059217.jpg,8,48,live
544,A1IV1O890FN1QA:3PPTZCWALSRP698U97III1L9CSZZQX,1982,082102.jpg,8,49,live
545,A1IV1O890FN1QA:3PPTZCWALSRP698U97III1L9CSZZQX,3183,119535.jpg,7,50,live
546,A1IV1O890FN1QA:3PPTZCWALSRP698U97III1L9CSZZQX,2150,096767.jpg,8,51,live
547,A1IV1O890FN1QA:3PPTZCWALSRP698U97III1L9CSZZQX,2022,180966.jpg,9,52,live
548,A1IV1O890FN1QA:3PPTZCWALSRP698U97III1L9CSZZQX,3039,122364.jpg,9,53,live
549,A1IV1O890FN1QA:3PPTZCWALSRP698U97III1L9CSZZQX,1614,000192.jpg,8,54,live
550,A1IV1O890FN1QA:3PPTZCWALSRP698U97III1L9CSZZQX,1671,035590.jpg,8,56,live
551,A1IV1O890FN1QA:3PPTZCWALSRP698U97III1L9CSZZQX,1373,115789.jpg,9,57,live
552,A1IV1O890FN1QA:3PPTZCWALSRP698U97III1L9CSZZQX,3183,156121.jpg,7,58,live
553,A1IV1O890FN1QA:3PPTZCWALSRP698U97III1L9CSZZQX,2711,164278.jpg,7,59,live
554,A1IV1O890FN1QA:3PPTZCWALSRP698U97III1L9CSZZQX,1589,128002.jpg,9,60,live
555,A1IV1O890FN1QA:3PPTZCWALSRP698U97III1L9CSZZQX,1413,117478.jpg,8,61,live
556,A1IV1O890FN1QA:3PPTZCWALSRP698U97III1L9CSZZQX,1725,084296.jpg,9,62,live
557,A1IV1O890FN1QA:3PPTZCWALSRP698U97III1L9CSZZQX,1807,100138.jpg,8,63,live
558,A1IV1O890FN1QA:3PPTZCWALSRP698U97III1L9CSZZQX,2941,100138.jpg,8,64,live
559,A1IV1O890FN1QA:3PPTZCWALSRP698U97III1L9CSZZQX,1590,120726.jpg,8,65,live
560,A1IV1O890FN1QA:3PPTZCWALSRP698U97III1L9CSZZQX,1757,187879.jpg,8,67,live
561,A1IV1O890FN1QA:3PPTZCWALSRP698U97III1L9CSZZQX,2502,063392.jpg,7,68,live
562,A1IV1O890FN1QA:3PPTZCWALSRP698U97III1L9CSZZQX,3357,057518.jpg,7,69,live
563,A1IV1O890FN1QA:3PPTZCWALSRP698U97III1L9CSZZQX,2559,012925.jpg,7,70,live
564,A1IV1O890FN1QA:3PPTZCWALSRP698U97III1L9CSZZQX,2760,115851.jpg,9,71,live
565,A1IV1O890FN1QA:3PPTZCWALSRP698U97III1L9CSZZQX,2310,098484.jpg,7,72,live
566,A1IV1O890FN1QA:3PPTZCWALSRP698U97III1L9CSZZQX,3694,083021.jpg,7,73,live
567,A1IV1O890FN1QA:3PPTZCWALSRP698U97III1L9CSZZQX,1966,031206.jpg,8,74,live
568,A1IV1O890FN1QA:3PPTZCWALSRP698U97III1L9CSZZQX,2590,067792.jpg,9,75,live
569,A1IV1O890FN1QA:3PPTZCWALSRP698U97III1L9CSZZQX,3677,161526.jpg,7,76,live
570,A1IV1O890FN1QA:3PPTZCWALSRP698U97III1L9CSZZQX,2777,177368.jpg,7,78,live
571,A1IV1O890FN1QA:3PPTZCWALSRP698U97III1L9CSZZQX,2958,102224.jpg,7,79,live
572,A1IV1O890FN1QA:3PPTZCWALSRP698U97III1L9CSZZQX,2677,153098.jpg,9,80,live
573,A1IV1O890FN1QA:3PPTZCWALSRP698U97III1L9CSZZQX,2469,033997.jpg,9,81,live
574,A1IV1O890FN1QA:3PPTZCWALSRP698U97III1L9CSZZQX,3295,147371.jpg,9,82,live
575,A1IV1O890FN1QA:3PPTZCWALSRP698U97III1L9CSZZQX,3246,010645.jpg,9,83,live
576,A1IV1O890FN1QA:3PPTZCWALSRP698U97III1L9CSZZQX,2992,007128.jpg,8,84,live
577,A1IV1O890FN1QA:3PPTZCWALSRP698U97III1L9CSZZQX,2741,112278.jpg,7,85,live
578,A1IV1O890FN1QA:3PPTZCWALSRP698U97III1L9CSZZQX,2470,039990.jpg,7,86,live
579,A1IV1O890FN1QA:3PPTZCWALSRP698U97III1L9CSZZQX,3262,070844.jpg,8,87,live
580,A1IV1O890FN1QA:3PPTZCWALSRP698U97III1L9CSZZQX,2533,004868.jpg,7,89,live
581,A1IV1O890FN1QA:3PPTZCWALSRP698U97III1L9CSZZQX,2192,004868.jpg,7,90,live
582,A1IV1O890FN1QA:3PPTZCWALSRP698U97III1L9CSZZQX,2926,120726.jpg,8,91,live
583,A1IV1O890FN1QA:3PPTZCWALSRP698U97III1L9CSZZQX,2549,057518.jpg,7,92,live
584,A1IV1O890FN1QA:3PPTZCWALSRP698U97III1L9CSZZQX,1798,141075.jpg,8,93,live
585,A1IV1O890FN1QA:3PPTZCWALSRP698U97III1L9CSZZQX,1653,164278.jpg,9,94,live
586,A1IV1O890FN1QA:3PPTZCWALSRP698U97III1L9CSZZQX,2038,043287.jpg,8,95,live
587,A1IV1O890FN1QA:3PPTZCWALSRP698U97III1L9CSZZQX,2774,035508.jpg,9,96,live
588,A1IV1O890FN1QA:3PPTZCWALSRP698U97III1L9CSZZQX,3103,039990.jpg,7,97,live
589,A1IV1O890FN1QA:3PPTZCWALSRP698U97III1L9CSZZQX,3062,144346.jpg,9,98,live
590,A1IV1O890FN1QA:3PPTZCWALSRP698U97III1L9CSZZQX,2798,198128.jpg,6,100,live
591,A1IV1O890FN1QA:3PPTZCWALSRP698U97III1L9CSZZQX,4678,069359.jpg,7,101,live
592,A1IV1O890FN1QA:3PPTZCWALSRP698U97III1L9CSZZQX,2958,111185.jpg,9,102,live
593,A1IV1O890FN1QA:3PPTZCWALSRP698U97III1L9CSZZQX,1742,100659.jpg,9,103,live
594,A1IV1O890FN1QA:3PPTZCWALSRP698U97III1L9CSZZQX,2431,030000.jpg,7,104,live
595,A1IV1O890FN1QA:3PPTZCWALSRP698U97III1L9CSZZQX,1551,086966.jpg,9,105,live
596,A1IV1O890FN1QA:3PPTZCWALSRP698U97III1L9CSZZQX,1990,121110.jpg,8,106,live
597,A1IV1O890FN1QA:3PPTZCWALSRP698U97III1L9CSZZQX,1926,067760.jpg,9,107,live
598,A1IV1O890FN1QA:3PPTZCWALSRP698U97III1L9CSZZQX,3253,017238.jpg,8,108,live
599,A1IV1O890FN1QA:3PPTZCWALSRP698U97III1L9CSZZQX,2885,073829.jpg,8,109,live
600,AUIPOGXK5QGRX:3VA45EW49PUPQ1A6MJHM126XKC91O7,7590,073829.jpg,7,1,live
601,AUIPOGXK5QGRX:3VA45EW49PUPQ1A6MJHM126XKC91O7,2646,119535.jpg,4,2,live
602,AUIPOGXK5QGRX:3VA45EW49PUPQ1A6MJHM126XKC91O7,3560,148453.jpg,3,3,live
603,AUIPOGXK5QGRX:3VA45EW49PUPQ1A6MJHM126XKC91O7,3531,073829.jpg,7,4,live
604,AUIPOGXK5QGRX:3VA45EW49PUPQ1A6MJHM126XKC91O7,3070,115789.jpg,5,5,live
605,AUIPOGXK5QGRX:3VA45EW49PUPQ1A6MJHM126XKC91O7,2641,014755.jpg,4,6,live
606,AUIPOGXK5QGRX:3VA45EW49PUPQ1A6MJHM126XKC91O7,3963,161526.jpg,4,7,live
607,AUIPOGXK5QGRX:3VA45EW49PUPQ1A6MJHM126XKC91O7,4824,004868.jpg,5,8,live
608,AUIPOGXK5QGRX:3VA45EW49PUPQ1A6MJHM126XKC91O7,3268,111185.jpg,6,9,live
609,AUIPOGXK5QGRX:3VA45EW49PUPQ1A6MJHM126XKC91O7,2563,014755.jpg,4,10,live
610,AUIPOGXK5QGRX:3VA45EW49PUPQ1A6MJHM126XKC91O7,6974,198128.jpg,4,12,live
611,AUIPOGXK5QGRX:3VA45EW49PUPQ1A6MJHM126XKC91O7,3321,035590.jpg,6,13,live
612,AUIPOGXK5QGRX:3VA45EW49PUPQ1A6MJHM126XKC91O7,2904,100138.jpg,5,14,live
613,AUIPOGXK5QGRX:3VA45EW49PUPQ1A6MJHM126XKC91O7,25057,111185.jpg,6,15,live
614,AUIPOGXK5QGRX:3VA45EW49PUPQ1A6MJHM126XKC91O7,2859,039990.jpg,5,16,live
615,AUIPOGXK5QGRX:3VA45EW49PUPQ1A6MJHM126XKC91O7,2768,100138.jpg,5,17,live
616,AUIPOGXK5QGRX:3VA45EW49PUPQ1A6MJHM126XKC91O7,3375,119380.jpg,4,18,live
617,AUIPOGXK5QGRX:3VA45EW49PUPQ1A6MJHM126XKC91O7,3546,067760.jpg,5,19,live
618,AUIPOGXK5QGRX:3VA45EW49PUPQ1A6MJHM126XKC91O7,3762,033997.jpg,4,20,live
619,AUIPOGXK5QGRX:3VA45EW49PUPQ1A6MJHM126XKC91O7,5266,160622.jpg,5,21,live
620,AUIPOGXK5QGRX:3VA45EW49PUPQ1A6MJHM126XKC91O7,3855,060174.jpg,5,23,live
621,AUIPOGXK5QGRX:3VA45EW49PUPQ1A6MJHM126XKC91O7,4056,156121.jpg,5,24,live
622,AUIPOGXK5QGRX:3VA45EW49PUPQ1A6MJHM126XKC91O7,2992,113099.jpg,5,25,live
623,AUIPOGXK5QGRX:3VA45EW49PUPQ1A6MJHM126XKC91O7,2913,007128.jpg,4,26,live
624,AUIPOGXK5QGRX:3VA45EW49PUPQ1A6MJHM126XKC91O7,3066,147371.jpg,4,27,live
625,AUIPOGXK5QGRX:3VA45EW49PUPQ1A6MJHM126XKC91O7,3759,180966.jpg,4,28,live
626,AUIPOGXK5QGRX:3VA45EW49PUPQ1A6MJHM126XKC91O7,2834,000192.jpg,4,29,live
627,AUIPOGXK5QGRX:3VA45EW49PUPQ1A6MJHM126XKC91O7,2881,104401.jpg,4,30,live
628,AUIPOGXK5QGRX:3VA45EW49PUPQ1A6MJHM126XKC91O7,2805,200278.jpg,4,31,live
629,AUIPOGXK5QGRX:3VA45EW49PUPQ1A6MJHM126XKC91O7,2274,047217.jpg,4,32,live
630,AUIPOGXK5QGRX:3VA45EW49PUPQ1A6MJHM126XKC91O7,2902,067792.jpg,6,34,live
631,AUIPOGXK5QGRX:3VA45EW49PUPQ1A6MJHM126XKC91O7,1631,011510.jpg,5,35,live
632,AUIPOGXK5QGRX:3VA45EW49PUPQ1A6MJHM126XKC91O7,3426,141059.jpg,7,36,live
633,AUIPOGXK5QGRX:3VA45EW49PUPQ1A6MJHM126XKC91O7,2066,059217.jpg,6,37,live
634,AUIPOGXK5QGRX:3VA45EW49PUPQ1A6MJHM126XKC91O7,4583,102224.jpg,5,38,live
635,AUIPOGXK5QGRX:3VA45EW49PUPQ1A6MJHM126XKC91O7,2010,086966.jpg,5,39,live
636,AUIPOGXK5QGRX:3VA45EW49PUPQ1A6MJHM126XKC91O7,3171,082102.jpg,6,40,live
637,AUIPOGXK5QGRX:3VA45EW49PUPQ1A6MJHM126XKC91O7,2712,054267.jpg,5,41,live
638,AUIPOGXK5QGRX:3VA45EW49PUPQ1A6MJHM126XKC91O7,1914,128631.jpg,5,42,live
639,AUIPOGXK5QGRX:3VA45EW49PUPQ1A6MJHM126XKC91O7,2658,160622.jpg,6,43,live
640,AUIPOGXK5QGRX:3VA45EW49PUPQ1A6MJHM126XKC91O7,3331,035590.jpg,5,45,live
641,AUIPOGXK5QGRX:3VA45EW49PUPQ1A6MJHM126XKC91O7,2120,122364.jpg,6,46,live
642,AUIPOGXK5QGRX:3VA45EW49PUPQ1A6MJHM126XKC91O7,1778,089364.jpg,5,47,live
643,AUIPOGXK5QGRX:3VA45EW49PUPQ1A6MJHM126XKC91O7,1958,120726.jpg,4,48,live
644,AUIPOGXK5QGRX:3VA45EW49PUPQ1A6MJHM126XKC91O7,2833,117478.jpg,5,49,live
645,AUIPOGXK5QGRX:3VA45EW49PUPQ1A6MJHM126XKC91O7,2915,035508.jpg,5,50,live
646,AUIPOGXK5QGRX:3VA45EW49PUPQ1A6MJHM126XKC91O7,2239,084296.jpg,6,51,live
647,AUIPOGXK5QGRX:3VA45EW49PUPQ1A6MJHM126XKC91O7,2656,092268.jpg,7,52,live
648,AUIPOGXK5QGRX:3VA45EW49PUPQ1A6MJHM126XKC91O7,2402,059217.jpg,5,53,live
649,AUIPOGXK5QGRX:3VA45EW49PUPQ1A6MJHM126XKC91O7,2425,083021.jpg,5,54,live
650,AUIPOGXK5QGRX:3VA45EW49PUPQ1A6MJHM126XKC91O7,3216,070844.jpg,5,56,live
651,AUIPOGXK5QGRX:3VA45EW49PUPQ1A6MJHM126XKC91O7,1569,153098.jpg,4,57,live
652,AUIPOGXK5QGRX:3VA45EW49PUPQ1A6MJHM126XKC91O7,11126,132629.jpg,6,58,live
653,AUIPOGXK5QGRX:3VA45EW49PUPQ1A6MJHM126XKC91O7,5407,128002.jpg,8,59,live
654,AUIPOGXK5QGRX:3VA45EW49PUPQ1A6MJHM126XKC91O7,2754,063392.jpg,5,60,live
655,AUIPOGXK5QGRX:3VA45EW49PUPQ1A6MJHM126XKC91O7,2342,144346.jpg,6,61,live
656,AUIPOGXK5QGRX:3VA45EW49PUPQ1A6MJHM126XKC91O7,2450,069359.jpg,5,62,live
657,AUIPOGXK5QGRX:3VA45EW49PUPQ1A6MJHM126XKC91O7,2792,057518.jpg,4,63,live
658,AUIPOGXK5QGRX:3VA45EW49PUPQ1A6MJHM126XKC91O7,5656,163842.jpg,1,64,live
659,AUIPOGXK5QGRX:3VA45EW49PUPQ1A6MJHM126XKC91O7,3824,112278.jpg,3,65,live
660,AUIPOGXK5QGRX:3VA45EW49PUPQ1A6MJHM126XKC91O7,3261,187879.jpg,5,67,live
661,AUIPOGXK5QGRX:3VA45EW49PUPQ1A6MJHM126XKC91O7,3090,164278.jpg,4,68,live
662,AUIPOGXK5QGRX:3VA45EW49PUPQ1A6MJHM126XKC91O7,3482,188240.jpg,6,69,live
663,AUIPOGXK5QGRX:3VA45EW49PUPQ1A6MJHM126XKC91O7,2969,057518.jpg,4,70,live
664,AUIPOGXK5QGRX:3VA45EW49PUPQ1A6MJHM126XKC91O7,1993,120726.jpg,6,71,live
665,AUIPOGXK5QGRX:3VA45EW49PUPQ1A6MJHM126XKC91O7,2515,141075.jpg,5,72,live
666,AUIPOGXK5QGRX:3VA45EW49PUPQ1A6MJHM126XKC91O7,5302,012925.jpg,5,73,live
667,AUIPOGXK5QGRX:3VA45EW49PUPQ1A6MJHM126XKC91O7,3201,075975.jpg,3,74,live
668,AUIPOGXK5QGRX:3VA45EW49PUPQ1A6MJHM126XKC91O7,2769,054808.jpg,6,75,live
669,AUIPOGXK5QGRX:3VA45EW49PUPQ1A6MJHM126XKC91O7,3399,100659.jpg,5,76,live
670,AUIPOGXK5QGRX:3VA45EW49PUPQ1A6MJHM126XKC91O7,2991,084296.jpg,6,78,live
671,AUIPOGXK5QGRX:3VA45EW49PUPQ1A6MJHM126XKC91O7,2947,117478.jpg,5,79,live
672,AUIPOGXK5QGRX:3VA45EW49PUPQ1A6MJHM126XKC91O7,3374,017238.jpg,4,80,live
673,AUIPOGXK5QGRX:3VA45EW49PUPQ1A6MJHM126XKC91O7,3298,163887.jpg,5,81,live
674,AUIPOGXK5QGRX:3VA45EW49PUPQ1A6MJHM126XKC91O7,2761,098484.jpg,6,82,live
675,AUIPOGXK5QGRX:3VA45EW49PUPQ1A6MJHM126XKC91O7,3858,177368.jpg,5,83,live
676,AUIPOGXK5QGRX:3VA45EW49PUPQ1A6MJHM126XKC91O7,2506,200021.jpg,4,84,live
677,AUIPOGXK5QGRX:3VA45EW49PUPQ1A6MJHM126XKC91O7,4538,004868.jpg,5,85,live
678,AUIPOGXK5QGRX:3VA45EW49PUPQ1A6MJHM126XKC91O7,2161,121110.jpg,5,86,live
679,AUIPOGXK5QGRX:3VA45EW49PUPQ1A6MJHM126XKC91O7,7511,039990.jpg,4,87,live
680,AUIPOGXK5QGRX:3VA45EW49PUPQ1A6MJHM126XKC91O7,1887,177368.jpg,5,89,live
681,AUIPOGXK5QGRX:3VA45EW49PUPQ1A6MJHM126XKC91O7,4832,031206.jpg,5,90,live
682,AUIPOGXK5QGRX:3VA45EW49PUPQ1A6MJHM126XKC91O7,3738,030000.jpg,5,91,live
683,AUIPOGXK5QGRX:3VA45EW49PUPQ1A6MJHM126XKC91O7,3223,144010.jpg,5,92,live
684,AUIPOGXK5QGRX:3VA45EW49PUPQ1A6MJHM126XKC91O7,2657,010645.jpg,6,93,live
685,AUIPOGXK5QGRX:3VA45EW49PUPQ1A6MJHM126XKC91O7,4946,121737.jpg,5,94,live
686,AUIPOGXK5QGRX:3VA45EW49PUPQ1A6MJHM126XKC91O7,6909,035508.jpg,9,95,live
687,AUIPOGXK5QGRX:3VA45EW49PUPQ1A6MJHM126XKC91O7,3208,198632.jpg,7,96,live
688,AUIPOGXK5QGRX:3VA45EW49PUPQ1A6MJHM126XKC91O7,3927,068906.jpg,7,97,live
689,AUIPOGXK5QGRX:3VA45EW49PUPQ1A6MJHM126XKC91O7,3445,164278.jpg,5,98,live
690,AUIPOGXK5QGRX:3VA45EW49PUPQ1A6MJHM126XKC91O7,2291,043287.jpg,6,100,live
691,AUIPOGXK5QGRX:3VA45EW49PUPQ1A6MJHM126XKC91O7,5757,086966.jpg,5,101,live
692,AUIPOGXK5QGRX:3VA45EW49PUPQ1A6MJHM126XKC91O7,6994,115851.jpg,4,102,live
693,AUIPOGXK5QGRX:3VA45EW49PUPQ1A6MJHM126XKC91O7,4698,112278.jpg,4,103,live
694,AUIPOGXK5QGRX:3VA45EW49PUPQ1A6MJHM126XKC91O7,9065,118166.jpg,6,104,live
695,AUIPOGXK5QGRX:3VA45EW49PUPQ1A6MJHM126XKC91O7,4376,017238.jpg,4,105,live
696,AUIPOGXK5QGRX:3VA45EW49PUPQ1A6MJHM126XKC91O7,2516,096767.jpg,5,106,live
697,AUIPOGXK5QGRX:3VA45EW49PUPQ1A6MJHM126XKC91O7,2995,077912.jpg,5,107,live
698,AUIPOGXK5QGRX:3VA45EW49PUPQ1A6MJHM126XKC91O7,2880,050455.jpg,4,108,live
699,AUIPOGXK5QGRX:3VA45EW49PUPQ1A6MJHM126XKC91O7,2730,098484.jpg,4,109,live
700,A2RW5C2LH11418:3OJSZ2ATDU3HTDJQ6K2WT6XJ636757,21541,054267.jpg,8,1,live
701,A2RW5C2LH11418:3OJSZ2ATDU3HTDJQ6K2WT6XJ636757,6992,004868.jpg,5,2,live
702,A2RW5C2LH11418:3OJSZ2ATDU3HTDJQ6K2WT6XJ636757,2709,160622.jpg,8,3,live
703,A2RW5C2LH11418:3OJSZ2ATDU3HTDJQ6K2WT6XJ636757,3598,144346.jpg,9,4,live
704,A2RW5C2LH11418:3OJSZ2ATDU3HTDJQ6K2WT6XJ636757,3350,011510.jpg,6,5,live
705,A2RW5C2LH11418:3OJSZ2ATDU3HTDJQ6K2WT6XJ636757,3414,141075.jpg,9,6,live
706,A2RW5C2LH11418:3OJSZ2ATDU3HTDJQ6K2WT6XJ636757,4047,102224.jpg,5,7,live
707,A2RW5C2LH11418:3OJSZ2ATDU3HTDJQ6K2WT6XJ636757,3502,067760.jpg,9,8,live
708,A2RW5C2LH11418:3OJSZ2ATDU3HTDJQ6K2WT6XJ636757,6582,128631.jpg,5,9,live
709,A2RW5C2LH11418:3OJSZ2ATDU3HTDJQ6K2WT6XJ636757,3766,014755.jpg,8,10,live
710,A2RW5C2LH11418:3OJSZ2ATDU3HTDJQ6K2WT6XJ636757,2974,163887.jpg,9,12,live
711,A2RW5C2LH11418:3OJSZ2ATDU3HTDJQ6K2WT6XJ636757,3639,030000.jpg,6,13,live
712,A2RW5C2LH11418:3OJSZ2ATDU3HTDJQ6K2WT6XJ636757,4279,161526.jpg,6,14,live
713,A2RW5C2LH11418:3OJSZ2ATDU3HTDJQ6K2WT6XJ636757,4222,147371.jpg,9,15,live
714,A2RW5C2LH11418:3OJSZ2ATDU3HTDJQ6K2WT6XJ636757,4855,012925.jpg,5,16,live
715,A2RW5C2LH11418:3OJSZ2ATDU3HTDJQ6K2WT6XJ636757,3277,153098.jpg,9,17,live
716,A2RW5C2LH11418:3OJSZ2ATDU3HTDJQ6K2WT6XJ636757,2766,120726.jpg,9,18,live
717,A2RW5C2LH11418:3OJSZ2ATDU3HTDJQ6K2WT6XJ636757,5238,086966.jpg,8,19,live
718,A2RW5C2LH11418:3OJSZ2ATDU3HTDJQ6K2WT6XJ636757,5935,156121.jpg,9,20,live
719,A2RW5C2LH11418:3OJSZ2ATDU3HTDJQ6K2WT6XJ636757,4142,033997.jpg,9,21,live
720,A2RW5C2LH11418:3OJSZ2ATDU3HTDJQ6K2WT6XJ636757,4717,004868.jpg,5,23,live
721,A2RW5C2LH11418:3OJSZ2ATDU3HTDJQ6K2WT6XJ636757,4791,039990.jpg,6,24,live
722,A2RW5C2LH11418:3OJSZ2ATDU3HTDJQ6K2WT6XJ636757,4167,073829.jpg,9,25,live
723,A2RW5C2LH11418:3OJSZ2ATDU3HTDJQ6K2WT6XJ636757,3422,164278.jpg,6,26,live
724,A2RW5C2LH11418:3OJSZ2ATDU3HTDJQ6K2WT6XJ636757,2798,057518.jpg,5,27,live
725,A2RW5C2LH11418:3OJSZ2ATDU3HTDJQ6K2WT6XJ636757,5222,068906.jpg,8,28,live
726,A2RW5C2LH11418:3OJSZ2ATDU3HTDJQ6K2WT6XJ636757,3006,112278.jpg,5,29,live
727,A2RW5C2LH11418:3OJSZ2ATDU3HTDJQ6K2WT6XJ636757,3351,059217.jpg,9,30,live
728,A2RW5C2LH11418:3OJSZ2ATDU3HTDJQ6K2WT6XJ636757,2510,119380.jpg,9,31,live
729,A2RW5C2LH11418:3OJSZ2ATDU3HTDJQ6K2WT6XJ636757,7007,121737.jpg,5,32,live
730,A2RW5C2LH11418:3OJSZ2ATDU3HTDJQ6K2WT6XJ636757,5610,100659.jpg,8,34,live
731,A2RW5C2LH11418:3OJSZ2ATDU3HTDJQ6K2WT6XJ636757,4270,163842.jpg,8,35,live
732,A2RW5C2LH11418:3OJSZ2ATDU3HTDJQ6K2WT6XJ636757,4406,112278.jpg,5,36,live
733,A2RW5C2LH11418:3OJSZ2ATDU3HTDJQ6K2WT6XJ636757,4510,200021.jpg,8,37,live
734,A2RW5C2LH11418:3OJSZ2ATDU3HTDJQ6K2WT6XJ636757,2542,115851.jpg,9,38,live
735,A2RW5C2LH11418:3OJSZ2ATDU3HTDJQ6K2WT6XJ636757,5855,198632.jpg,9,39,live
736,A2RW5C2LH11418:3OJSZ2ATDU3HTDJQ6K2WT6XJ636757,4174,187879.jpg,9,40,live
737,A2RW5C2LH11418:3OJSZ2ATDU3HTDJQ6K2WT6XJ636757,3350,128002.jpg,9,41,live
738,A2RW5C2LH11418:3OJSZ2ATDU3HTDJQ6K2WT6XJ636757,3302,035590.jpg,8,42,live
739,A2RW5C2LH11418:3OJSZ2ATDU3HTDJQ6K2WT6XJ636757,3511,119535.jpg,9,43,live
740,A2RW5C2LH11418:3OJSZ2ATDU3HTDJQ6K2WT6XJ636757,3606,132629.jpg,9,45,live
741,A2RW5C2LH11418:3OJSZ2ATDU3HTDJQ6K2WT6XJ636757,6621,144010.jpg,6,46,live
742,A2RW5C2LH11418:3OJSZ2ATDU3HTDJQ6K2WT6XJ636757,3246,104401.jpg,9,47,live
743,A2RW5C2LH11418:3OJSZ2ATDU3HTDJQ6K2WT6XJ636757,3118,164278.jpg,7,48,live
744,A2RW5C2LH11418:3OJSZ2ATDU3HTDJQ6K2WT6XJ636757,3150,077912.jpg,5,49,live
745,A2RW5C2LH11418:3OJSZ2ATDU3HTDJQ6K2WT6XJ636757,6590,050455.jpg,5,50,live
746,A2RW5C2LH11418:3OJSZ2ATDU3HTDJQ6K2WT6XJ636757,2798,117478.jpg,9,51,live
747,A2RW5C2LH11418:3OJSZ2ATDU3HTDJQ6K2WT6XJ636757,7309,100138.jpg,7,52,live
748,A2RW5C2LH11418:3OJSZ2ATDU3HTDJQ6K2WT6XJ636757,3183,092268.jpg,9,53,live
749,A2RW5C2LH11418:3OJSZ2ATDU3HTDJQ6K2WT6XJ636757,5663,180966.jpg,8,54,live
750,A2RW5C2LH11418:3OJSZ2ATDU3HTDJQ6K2WT6XJ636757,2702,115789.jpg,9,56,live
751,A2RW5C2LH11418:3OJSZ2ATDU3HTDJQ6K2WT6XJ636757,2855,100138.jpg,7,57,live
752,A2RW5C2LH11418:3OJSZ2ATDU3HTDJQ6K2WT6XJ636757,2917,007128.jpg,8,58,live
753,A2RW5C2LH11418:3OJSZ2ATDU3HTDJQ6K2WT6XJ636757,3758,059217.jpg,9,59,live
754,A2RW5C2LH11418:3OJSZ2ATDU3HTDJQ6K2WT6XJ636757,2750,084296.jpg,9,60,live
755,A2RW5C2LH11418:3OJSZ2ATDU3HTDJQ6K2WT6XJ636757,24479,014755.jpg,7,61,live
756,A2RW5C2LH11418:3OJSZ2ATDU3HTDJQ6K2WT6XJ636757,40127,118166.jpg,8,62,live
757,A2RW5C2LH11418:3OJSZ2ATDU3HTDJQ6K2WT6XJ636757,28761,120726.jpg,9,63,live
758,A2RW5C2LH11418:3OJSZ2ATDU3HTDJQ6K2WT6XJ636757,3901,082102.jpg,9,64,live
759,A2RW5C2LH11418:3OJSZ2ATDU3HTDJQ6K2WT6XJ636757,4518,043287.jpg,7,65,live
760,A2RW5C2LH11418:3OJSZ2ATDU3HTDJQ6K2WT6XJ636757,3256,148453.jpg,6,67,live
761,A2RW5C2LH11418:3OJSZ2ATDU3HTDJQ6K2WT6XJ636757,6183,035508.jpg,9,68,live
762,A2RW5C2LH11418:3OJSZ2ATDU3HTDJQ6K2WT6XJ636757,10645,067792.jpg,9,69,live
763,A2RW5C2LH11418:3OJSZ2ATDU3HTDJQ6K2WT6XJ636757,44016,039990.jpg,7,70,live
764,A2RW5C2LH11418:3OJSZ2ATDU3HTDJQ6K2WT6XJ636757,4261,122364.jpg,9,71,live
765,A2RW5C2LH11418:3OJSZ2ATDU3HTDJQ6K2WT6XJ636757,3918,198128.jpg,5,72,live
766,A2RW5C2LH11418:3OJSZ2ATDU3HTDJQ6K2WT6XJ636757,3246,035590.jpg,9,73,live
767,A2RW5C2LH11418:3OJSZ2ATDU3HTDJQ6K2WT6XJ636757,5117,121110.jpg,9,74,live
768,A2RW5C2LH11418:3OJSZ2ATDU3HTDJQ6K2WT6XJ636757,4542,086966.jpg,9,75,live
769,A2RW5C2LH11418:3OJSZ2ATDU3HTDJQ6K2WT6XJ636757,3966,113099.jpg,9,76,live
770,A2RW5C2LH11418:3OJSZ2ATDU3HTDJQ6K2WT6XJ636757,3238,084296.jpg,9,78,live
771,A2RW5C2LH11418:3OJSZ2ATDU3HTDJQ6K2WT6XJ636757,30412,047217.jpg,7,79,live
772,A2RW5C2LH11418:3OJSZ2ATDU3HTDJQ6K2WT6XJ636757,4439,141059.jpg,6,80,live
773,A2RW5C2LH11418:3OJSZ2ATDU3HTDJQ6K2WT6XJ636757,3613,070844.jpg,8,81,live
774,A2RW5C2LH11418:3OJSZ2ATDU3HTDJQ6K2WT6XJ636757,3430,000192.jpg,9,82,live
775,A2RW5C2LH11418:3OJSZ2ATDU3HTDJQ6K2WT6XJ636757,2718,111185.jpg,9,83,live
776,A2RW5C2LH11418:3OJSZ2ATDU3HTDJQ6K2WT6XJ636757,4542,200278.jpg,5,84,live
777,A2RW5C2LH11418:3OJSZ2ATDU3HTDJQ6K2WT6XJ636757,9511,096767.jpg,7,85,live
778,A2RW5C2LH11418:3OJSZ2ATDU3HTDJQ6K2WT6XJ636757,7917,057518.jpg,5,86,live
779,A2RW5C2LH11418:3OJSZ2ATDU3HTDJQ6K2WT6XJ636757,4656,060174.jpg,9,87,live
780,A2RW5C2LH11418:3OJSZ2ATDU3HTDJQ6K2WT6XJ636757,3341,098484.jpg,5,89,live
781,A2RW5C2LH11418:3OJSZ2ATDU3HTDJQ6K2WT6XJ636757,3494,054808.jpg,9,90,live
782,A2RW5C2LH11418:3OJSZ2ATDU3HTDJQ6K2WT6XJ636757,3222,188240.jpg,9,91,live
783,A2RW5C2LH11418:3OJSZ2ATDU3HTDJQ6K2WT6XJ636757,3798,031206.jpg,8,92,live
784,A2RW5C2LH11418:3OJSZ2ATDU3HTDJQ6K2WT6XJ636757,4542,010645.jpg,9,93,live
785,A2RW5C2LH11418:3OJSZ2ATDU3HTDJQ6K2WT6XJ636757,54224,111185.jpg,9,94,live
786,A2RW5C2LH11418:3OJSZ2ATDU3HTDJQ6K2WT6XJ636757,4094,177368.jpg,5,95,live
787,A2RW5C2LH11418:3OJSZ2ATDU3HTDJQ6K2WT6XJ636757,5942,160622.jpg,8,96,live
788,A2RW5C2LH11418:3OJSZ2ATDU3HTDJQ6K2WT6XJ636757,3095,089364.jpg,5,97,live
789,A2RW5C2LH11418:3OJSZ2ATDU3HTDJQ6K2WT6XJ636757,3630,063392.jpg,7,98,live
790,A2RW5C2LH11418:3OJSZ2ATDU3HTDJQ6K2WT6XJ636757,3262,069359.jpg,5,100,live
791,A2RW5C2LH11418:3OJSZ2ATDU3HTDJQ6K2WT6XJ636757,4598,017238.jpg,8,101,live
792,A2RW5C2LH11418:3OJSZ2ATDU3HTDJQ6K2WT6XJ636757,3391,083021.jpg,6,102,live
793,A2RW5C2LH11418:3OJSZ2ATDU3HTDJQ6K2WT6XJ636757,3070,017238.jpg,8,103,live
794,A2RW5C2LH11418:3OJSZ2ATDU3HTDJQ6K2WT6XJ636757,3630,035508.jpg,9,104,live
795,A2RW5C2LH11418:3OJSZ2ATDU3HTDJQ6K2WT6XJ636757,4829,073829.jpg,9,105,live
796,A2RW5C2LH11418:3OJSZ2ATDU3HTDJQ6K2WT6XJ636757,3374,177368.jpg,6,106,live
797,A2RW5C2LH11418:3OJSZ2ATDU3HTDJQ6K2WT6XJ636757,5311,075975.jpg,8,107,live
798,A2RW5C2LH11418:3OJSZ2ATDU3HTDJQ6K2WT6XJ636757,4005,098484.jpg,6,108,live
799,A2RW5C2LH11418:3OJSZ2ATDU3HTDJQ6K2WT6XJ636757,3630,117478.jpg,8,109,live
800,A3CJBVOK16PA00:3CCZ6YKWR9QL7W7JLH0G72OP1TO59B,3082,035508.jpg,7,1,live
801,A3CJBVOK16PA00:3CCZ6YKWR9QL7W7JLH0G72OP1TO59B,4098,059217.jpg,5,2,live
802,A3CJBVOK16PA00:3CCZ6YKWR9QL7W7JLH0G72OP1TO59B,3250,132629.jpg,6,3,live
803,A3CJBVOK16PA00:3CCZ6YKWR9QL7W7JLH0G72OP1TO59B,4030,004868.jpg,5,4,live
804,A3CJBVOK16PA00:3CCZ6YKWR9QL7W7JLH0G72OP1TO59B,2311,086966.jpg,4,5,live
805,A3CJBVOK16PA00:3CCZ6YKWR9QL7W7JLH0G72OP1TO59B,2647,112278.jpg,4,6,live
806,A3CJBVOK16PA00:3CCZ6YKWR9QL7W7JLH0G72OP1TO59B,2681,057518.jpg,4,7,live
807,A3CJBVOK16PA00:3CCZ6YKWR9QL7W7JLH0G72OP1TO59B,2732,180966.jpg,5,8,live
808,A3CJBVOK16PA00:3CCZ6YKWR9QL7W7JLH0G72OP1TO59B,4091,121737.jpg,4,9,live
809,A3CJBVOK16PA00:3CCZ6YKWR9QL7W7JLH0G72OP1TO59B,2786,069359.jpg,5,10,live
810,A3CJBVOK16PA00:3CCZ6YKWR9QL7W7JLH0G72OP1TO59B,3986,070844.jpg,6,12,live
811,A3CJBVOK16PA00:3CCZ6YKWR9QL7W7JLH0G72OP1TO59B,2972,000192.jpg,6,13,live
812,A3CJBVOK16PA00:3CCZ6YKWR9QL7W7JLH0G72OP1TO59B,2042,112278.jpg,5,14,live
813,A3CJBVOK16PA00:3CCZ6YKWR9QL7W7JLH0G72OP1TO59B,3056,092268.jpg,4,15,live
814,A3CJBVOK16PA00:3CCZ6YKWR9QL7W7JLH0G72OP1TO59B,5723,111185.jpg,7,16,live
815,A3CJBVOK16PA00:3CCZ6YKWR9QL7W7JLH0G72OP1TO59B,4170,115789.jpg,7,17,live
816,A3CJBVOK16PA00:3CCZ6YKWR9QL7W7JLH0G72OP1TO59B,2880,033997.jpg,7,18,live
817,A3CJBVOK16PA00:3CCZ6YKWR9QL7W7JLH0G72OP1TO59B,2964,147371.jpg,7,19,live
818,A3CJBVOK16PA00:3CCZ6YKWR9QL7W7JLH0G72OP1TO59B,2986,144010.jpg,5,20,live
819,A3CJBVOK16PA00:3CCZ6YKWR9QL7W7JLH0G72OP1TO59B,2948,017238.jpg,4,21,live
820,A3CJBVOK16PA00:3CCZ6YKWR9QL7W7JLH0G72OP1TO59B,3762,118166.jpg,6,23,live
821,A3CJBVOK16PA00:3CCZ6YKWR9QL7W7JLH0G72OP1TO59B,2978,164278.jpg,4,24,live
822,A3CJBVOK16PA00:3CCZ6YKWR9QL7W7JLH0G72OP1TO59B,3860,177368.jpg,5,25,live
823,A3CJBVOK16PA00:3CCZ6YKWR9QL7W7JLH0G72OP1TO59B,2741,004868.jpg,5,26,live
824,A3CJBVOK16PA00:3CCZ6YKWR9QL7W7JLH0G72OP1TO59B,2348,120726.jpg,6,27,live
825,A3CJBVOK16PA00:3CCZ6YKWR9QL7W7JLH0G72OP1TO59B,2996,035590.jpg,6,28,live
826,A3CJBVOK16PA00:3CCZ6YKWR9QL7W7JLH0G72OP1TO59B,3331,141059.jpg,5,29,live
827,A3CJBVOK16PA00:3CCZ6YKWR9QL7W7JLH0G72OP1TO59B,2421,102224.jpg,5,30,live
828,A3CJBVOK16PA00:3CCZ6YKWR9QL7W7JLH0G72OP1TO59B,2699,104401.jpg,7,31,live
829,A3CJBVOK16PA00:3CCZ6YKWR9QL7W7JLH0G72OP1TO59B,2597,188240.jpg,6,32,live
830,A3CJBVOK16PA00:3CCZ6YKWR9QL7W7JLH0G72OP1TO59B,2120,017238.jpg,6,34,live
831,A3CJBVOK16PA00:3CCZ6YKWR9QL7W7JLH0G72OP1TO59B,2208,111185.jpg,7,35,live
832,A3CJBVOK16PA00:3CCZ6YKWR9QL7W7JLH0G72OP1TO59B,3043,050455.jpg,4,36,live
833,A3CJBVOK16PA00:3CCZ6YKWR9QL7W7JLH0G72OP1TO59B,2989,160622.jpg,6,37,live
834,A3CJBVOK16PA00:3CCZ6YKWR9QL7W7JLH0G72OP1TO59B,2172,187879.jpg,6,38,live
835,A3CJBVOK16PA00:3CCZ6YKWR9QL7W7JLH0G72OP1TO59B,2237,121110.jpg,7,39,live
836,A3CJBVOK16PA00:3CCZ6YKWR9QL7W7JLH0G72OP1TO59B,1804,012925.jpg,6,40,live
837,A3CJBVOK16PA00:3CCZ6YKWR9QL7W7JLH0G72OP1TO59B,3458,200021.jpg,7,41,live
838,A3CJBVOK16PA00:3CCZ6YKWR9QL7W7JLH0G72OP1TO59B,2635,119380.jpg,7,42,live
839,A3CJBVOK16PA00:3CCZ6YKWR9QL7W7JLH0G72OP1TO59B,2500,063392.jpg,6,43,live
840,A3CJBVOK16PA00:3CCZ6YKWR9QL7W7JLH0G72OP1TO59B,5166,031206.jpg,5,45,live
841,A3CJBVOK16PA00:3CCZ6YKWR9QL7W7JLH0G72OP1TO59B,2884,119535.jpg,5,46,live
842,A3CJBVOK16PA00:3CCZ6YKWR9QL7W7JLH0G72OP1TO59B,3124,163842.jpg,6,47,live
843,A3CJBVOK16PA00:3CCZ6YKWR9QL7W7JLH0G72OP1TO59B,2988,043287.jpg,6,48,live
844,A3CJBVOK16PA00:3CCZ6YKWR9QL7W7JLH0G72OP1TO59B,2151,115851.jpg,5,49,live
845,A3CJBVOK16PA00:3CCZ6YKWR9QL7W7JLH0G72OP1TO59B,2371,117478.jpg,6,50,live
846,A3CJBVOK16PA00:3CCZ6YKWR9QL7W7JLH0G72OP1TO59B,2174,014755.jpg,5,51,live
847,A3CJBVOK16PA00:3CCZ6YKWR9QL7W7JLH0G72OP1TO59B,2020,160622.jpg,6,52,live
848,A3CJBVOK16PA00:3CCZ6YKWR9QL7W7JLH0G72OP1TO59B,2860,077912.jpg,5,53,live
849,A3CJBVOK16PA00:3CCZ6YKWR9QL7W7JLH0G72OP1TO59B,3260,163887.jpg,4,54,live
850,A3CJBVOK16PA00:3CCZ6YKWR9QL7W7JLH0G72OP1TO59B,2835,141075.jpg,7,56,live
851,A3CJBVOK16PA00:3CCZ6YKWR9QL7W7JLH0G72OP1TO59B,2204,054267.jpg,6,57,live
852,A3CJBVOK16PA00:3CCZ6YKWR9QL7W7JLH0G72OP1TO59B,1933,198632.jpg,7,58,live
853,A3CJBVOK16PA00:3CCZ6YKWR9QL7W7JLH0G72OP1TO59B,2281,073829.jpg,6,59,live
854,A3CJBVOK16PA00:3CCZ6YKWR9QL7W7JLH0G72OP1TO59B,2223,113099.jpg,7,60,live
855,A3CJBVOK16PA00:3CCZ6YKWR9QL7W7JLH0G72OP1TO59B,2291,030000.jpg,6,61,live
856,A3CJBVOK16PA00:3CCZ6YKWR9QL7W7JLH0G72OP1TO59B,3467,059217.jpg,7,62,live
857,A3CJBVOK16PA00:3CCZ6YKWR9QL7W7JLH0G72OP1TO59B,2279,007128.jpg,6,63,live
858,A3CJBVOK16PA00:3CCZ6YKWR9QL7W7JLH0G72OP1TO59B,2475,067792.jpg,6,64,live
859,A3CJBVOK16PA00:3CCZ6YKWR9QL7W7JLH0G72OP1TO59B,2637,067760.jpg,7,65,live
860,A3CJBVOK16PA00:3CCZ6YKWR9QL7W7JLH0G72OP1TO59B,2411,177368.jpg,6,67,live
861,A3CJBVOK16PA00:3CCZ6YKWR9QL7W7JLH0G72OP1TO59B,3076,161526.jpg,4,68,live
862,A3CJBVOK16PA00:3CCZ6YKWR9QL7W7JLH0G72OP1TO59B,2182,084296.jpg,6,69,live
863,A3CJBVOK16PA00:3CCZ6YKWR9QL7W7JLH0G72OP1TO59B,2014,200278.jpg,7,70,live
864,A3CJBVOK16PA00:3CCZ6YKWR9QL7W7JLH0G72OP1TO59B,2534,100659.jpg,5,71,live
865,A3CJBVOK16PA00:3CCZ6YKWR9QL7W7JLH0G72OP1TO59B,2732,068906.jpg,6,72,live
866,A3CJBVOK16PA00:3CCZ6YKWR9QL7W7JLH0G72OP1TO59B,3307,082102.jpg,7,73,live
867,A3CJBVOK16PA00:3CCZ6YKWR9QL7W7JLH0G72OP1TO59B,3878,128002.jpg,7,74,live
868,A3CJBVOK16PA00:3CCZ6YKWR9QL7W7JLH0G72OP1TO59B,3163,060174.jpg,6,75,live
869,A3CJBVOK16PA00:3CCZ6YKWR9QL7W7JLH0G72OP1TO59B,2869,128631.jpg,5,76,live
870,A3CJBVOK16PA00:3CCZ6YKWR9QL7W7JLH0G72OP1TO59B,2530,144346.jpg,7,78,live
871,A3CJBVOK16PA00:3CCZ6YKWR9QL7W7JLH0G72OP1TO59B,3208,100138.jpg,4,79,live
872,A3CJBVOK16PA00:3CCZ6YKWR9QL7W7JLH0G72OP1TO59B,2389,039990.jpg,5,80,live
873,A3CJBVOK16PA00:3CCZ6YKWR9QL7W7JLH0G72OP1TO59B,3412,083021.jpg,4,81,live
874,A3CJBVOK16PA00:3CCZ6YKWR9QL7W7JLH0G72OP1TO59B,2250,010645.jpg,6,82,live
875,A3CJBVOK16PA00:3CCZ6YKWR9QL7W7JLH0G72OP1TO59B,3448,075975.jpg,6,83,live
876,A3CJBVOK16PA00:3CCZ6YKWR9QL7W7JLH0G72OP1TO59B,1956,122364.jpg,6,84,live
877,A3CJBVOK16PA00:3CCZ6YKWR9QL7W7JLH0G72OP1TO59B,3244,098484.jpg,4,85,live
878,A3CJBVOK16PA00:3CCZ6YKWR9QL7W7JLH0G72OP1TO59B,3341,117478.jpg,5,86,live
879,A3CJBVOK16PA00:3CCZ6YKWR9QL7W7JLH0G72OP1TO59B,2310,156121.jpg,6,87,live
880,A3CJBVOK16PA00:3CCZ6YKWR9QL7W7JLH0G72OP1TO59B,2057,035590.jpg,6,89,live
881,A3CJBVOK16PA00:3CCZ6YKWR9QL7W7JLH0G72OP1TO59B,2756,039990.jpg,5,90,live
882,A3CJBVOK16PA00:3CCZ6YKWR9QL7W7JLH0G72OP1TO59B,2540,057518.jpg,4,91,live
883,A3CJBVOK16PA00:3CCZ6YKWR9QL7W7JLH0G72OP1TO59B,2677,198128.jpg,4,92,live
884,A3CJBVOK16PA00:3CCZ6YKWR9QL7W7JLH0G72OP1TO59B,1788,054808.jpg,5,93,live
885,A3CJBVOK16PA00:3CCZ6YKWR9QL7W7JLH0G72OP1TO59B,2811,096767.jpg,6,94,live
886,A3CJBVOK16PA00:3CCZ6YKWR9QL7W7JLH0G72OP1TO59B,1803,084296.jpg,6,95,live
887,A3CJBVOK16PA00:3CCZ6YKWR9QL7W7JLH0G72OP1TO59B,2128,014755.jpg,7,96,live
888,A3CJBVOK16PA00:3CCZ6YKWR9QL7W7JLH0G72OP1TO59B,3284,098484.jpg,5,97,live
889,A3CJBVOK16PA00:3CCZ6YKWR9QL7W7JLH0G72OP1TO59B,2335,164278.jpg,5,98,live
890,A3CJBVOK16PA00:3CCZ6YKWR9QL7W7JLH0G72OP1TO59B,2234,120726.jpg,5,100,live
891,A3CJBVOK16PA00:3CCZ6YKWR9QL7W7JLH0G72OP1TO59B,2387,089364.jpg,4,101,live
892,A3CJBVOK16PA00:3CCZ6YKWR9QL7W7JLH0G72OP1TO59B,2619,073829.jpg,6,102,live
893,A3CJBVOK16PA00:3CCZ6YKWR9QL7W7JLH0G72OP1TO59B,2255,035508.jpg,7,103,live
894,A3CJBVOK16PA00:3CCZ6YKWR9QL7W7JLH0G72OP1TO59B,2312,086966.jpg,5,104,live
895,A3CJBVOK16PA00:3CCZ6YKWR9QL7W7JLH0G72OP1TO59B,3628,047217.jpg,4,105,live
896,A3CJBVOK16PA00:3CCZ6YKWR9QL7W7JLH0G72OP1TO59B,2164,153098.jpg,6,106,live
897,A3CJBVOK16PA00:3CCZ6YKWR9QL7W7JLH0G72OP1TO59B,3116,100138.jpg,6,107,live
898,A3CJBVOK16PA00:3CCZ6YKWR9QL7W7JLH0G72OP1TO59B,2572,148453.jpg,4,108,live
899,A3CJBVOK16PA00:3CCZ6YKWR9QL7W7JLH0G72OP1TO59B,2890,011510.jpg,4,109,live
900,A1FOF49RRN3ST7:3SITXWYCNXGDX86QP7X7QRAZIS0XBM,10186,161526.jpg,9,1,live
901,A1FOF49RRN3ST7:3SITXWYCNXGDX86QP7X7QRAZIS0XBM,10003,067792.jpg,9,2,live
902,A1FOF49RRN3ST7:3SITXWYCNXGDX86QP7X7QRAZIS0XBM,3363,141075.jpg,9,3,live
903,A1FOF49RRN3ST7:3SITXWYCNXGDX86QP7X7QRAZIS0XBM,4361,069359.jpg,9,4,live
904,A1FOF49RRN3ST7:3SITXWYCNXGDX86QP7X7QRAZIS0XBM,3717,083021.jpg,9,5,live
905,A1FOF49RRN3ST7:3SITXWYCNXGDX86QP7X7QRAZIS0XBM,4067,132629.jpg,8,6,live
906,A1FOF49RRN3ST7:3SITXWYCNXGDX86QP7X7QRAZIS0XBM,4163,112278.jpg,7,7,live
907,A1FOF49RRN3ST7:3SITXWYCNXGDX86QP7X7QRAZIS0XBM,2740,098484.jpg,7,8,live
908,A1FOF49RRN3ST7:3SITXWYCNXGDX86QP7X7QRAZIS0XBM,5540,198128.jpg,8,9,live
909,A1FOF49RRN3ST7:3SITXWYCNXGDX86QP7X7QRAZIS0XBM,3728,033997.jpg,8,10,live
910,A1FOF49RRN3ST7:3SITXWYCNXGDX86QP7X7QRAZIS0XBM,3812,120726.jpg,8,12,live
911,A1FOF49RRN3ST7:3SITXWYCNXGDX86QP7X7QRAZIS0XBM,4775,121737.jpg,7,13,live
912,A1FOF49RRN3ST7:3SITXWYCNXGDX86QP7X7QRAZIS0XBM,3461,035590.jpg,8,14,live
913,A1FOF49RRN3ST7:3SITXWYCNXGDX86QP7X7QRAZIS0XBM,2506,119380.jpg,8,15,live
914,A1FOF49RRN3ST7:3SITXWYCNXGDX86QP7X7QRAZIS0XBM,3959,119535.jpg,8,16,live
915,A1FOF49RRN3ST7:3SITXWYCNXGDX86QP7X7QRAZIS0XBM,3315,054808.jpg,8,17,live
916,A1FOF49RRN3ST7:3SITXWYCNXGDX86QP7X7QRAZIS0XBM,4566,177368.jpg,9,18,live
917,A1FOF49RRN3ST7:3SITXWYCNXGDX86QP7X7QRAZIS0XBM,3626,117478.jpg,9,19,live
918,A1FOF49RRN3ST7:3SITXWYCNXGDX86QP7X7QRAZIS0XBM,3075,075975.jpg,9,20,live
919,A1FOF49RRN3ST7:3SITXWYCNXGDX86QP7X7QRAZIS0XBM,2522,039990.jpg,6,21,live
920,A1FOF49RRN3ST7:3SITXWYCNXGDX86QP7X7QRAZIS0XBM,3616,030000.jpg,8,23,live
921,A1FOF49RRN3ST7:3SITXWYCNXGDX86QP7X7QRAZIS0XBM,3492,060174.jpg,7,24,live
922,A1FOF49RRN3ST7:3SITXWYCNXGDX86QP7X7QRAZIS0XBM,4722,147371.jpg,7,25,live
923,A1FOF49RRN3ST7:3SITXWYCNXGDX86QP7X7QRAZIS0XBM,3484,200021.jpg,7,26,live
924,A1FOF49RRN3ST7:3SITXWYCNXGDX86QP7X7QRAZIS0XBM,3429,187879.jpg,7,27,live
925,A1FOF49RRN3ST7:3SITXWYCNXGDX86QP7X7QRAZIS0XBM,6471,035508.jpg,7,28,live
926,A1FOF49RRN3ST7:3SITXWYCNXGDX86QP7X7QRAZIS0XBM,2795,047217.jpg,7,29,live
927,A1FOF49RRN3ST7:3SITXWYCNXGDX86QP7X7QRAZIS0XBM,3842,039990.jpg,8,30,live
928,A1FOF49RRN3ST7:3SITXWYCNXGDX86QP7X7QRAZIS0XBM,3789,148453.jpg,7,31,live
929,A1FOF49RRN3ST7:3SITXWYCNXGDX86QP7X7QRAZIS0XBM,3211,163887.jpg,7,32,live
930,A1FOF49RRN3ST7:3SITXWYCNXGDX86QP7X7QRAZIS0XBM,4329,112278.jpg,7,34,live
931,A1FOF49RRN3ST7:3SITXWYCNXGDX86QP7X7QRAZIS0XBM,2991,011510.jpg,7,35,live
932,A1FOF49RRN3ST7:3SITXWYCNXGDX86QP7X7QRAZIS0XBM,3010,012925.jpg,7,36,live
933,A1FOF49RRN3ST7:3SITXWYCNXGDX86QP7X7QRAZIS0XBM,4965,115789.jpg,8,37,live
934,A1FOF49RRN3ST7:3SITXWYCNXGDX86QP7X7QRAZIS0XBM,3882,017238.jpg,7,38,live
935,A1FOF49RRN3ST7:3SITXWYCNXGDX86QP7X7QRAZIS0XBM,2822,163842.jpg,7,39,live
936,A1FOF49RRN3ST7:3SITXWYCNXGDX86QP7X7QRAZIS0XBM,2299,073829.jpg,7,40,live
937,A1FOF49RRN3ST7:3SITXWYCNXGDX86QP7X7QRAZIS0XBM,4165,144010.jpg,7,41,live
938,A1FOF49RRN3ST7:3SITXWYCNXGDX86QP7X7QRAZIS0XBM,2068,070844.jpg,7,42,live
939,A1FOF49RRN3ST7:3SITXWYCNXGDX86QP7X7QRAZIS0XBM,2483,000192.jpg,8,43,live
940,A1FOF49RRN3ST7:3SITXWYCNXGDX86QP7X7QRAZIS0XBM,2568,198632.jpg,7,45,live
941,A1FOF49RRN3ST7:3SITXWYCNXGDX86QP7X7QRAZIS0XBM,2250,160622.jpg,7,46,live
942,A1FOF49RRN3ST7:3SITXWYCNXGDX86QP7X7QRAZIS0XBM,4222,007128.jpg,7,47,live
943,A1FOF49RRN3ST7:3SITXWYCNXGDX86QP7X7QRAZIS0XBM,4848,063392.jpg,7,48,live
944,A1FOF49RRN3ST7:3SITXWYCNXGDX86QP7X7QRAZIS0XBM,2550,111185.jpg,7,49,live
945,A1FOF49RRN3ST7:3SITXWYCNXGDX86QP7X7QRAZIS0XBM,2925,086966.jpg,7,50,live
946,A1FOF49RRN3ST7:3SITXWYCNXGDX86QP7X7QRAZIS0XBM,3508,014755.jpg,8,51,live
947,A1FOF49RRN3ST7:3SITXWYCNXGDX86QP7X7QRAZIS0XBM,2154,059217.jpg,8,52,live
948,A1FOF49RRN3ST7:3SITXWYCNXGDX86QP7X7QRAZIS0XBM,3539,128631.jpg,6,53,live
949,A1FOF49RRN3ST7:3SITXWYCNXGDX86QP7X7QRAZIS0XBM,2349,188240.jpg,7,54,live
950,A1FOF49RRN3ST7:3SITXWYCNXGDX86QP7X7QRAZIS0XBM,2657,111185.jpg,7,56,live
951,A1FOF49RRN3ST7:3SITXWYCNXGDX86QP7X7QRAZIS0XBM,2147,035590.jpg,7,57,live
952,A1FOF49RRN3ST7:3SITXWYCNXGDX86QP7X7QRAZIS0XBM,2419,100659.jpg,7,58,live
953,A1FOF49RRN3ST7:3SITXWYCNXGDX86QP7X7QRAZIS0XBM,2226,092268.jpg,7,59,live
954,A1FOF49RRN3ST7:3SITXWYCNXGDX86QP7X7QRAZIS0XBM,2813,050455.jpg,6,60,live
955,A1FOF49RRN3ST7:3SITXWYCNXGDX86QP7X7QRAZIS0XBM,2892,121110.jpg,7,61,live
956,A1FOF49RRN3ST7:3SITXWYCNXGDX86QP7X7QRAZIS0XBM,3083,089364.jpg,6,62,live
957,A1FOF49RRN3ST7:3SITXWYCNXGDX86QP7X7QRAZIS0XBM,2669,014755.jpg,6,63,live
958,A1FOF49RRN3ST7:3SITXWYCNXGDX86QP7X7QRAZIS0XBM,4450,084296.jpg,7,64,live
959,A1FOF49RRN3ST7:3SITXWYCNXGDX86QP7X7QRAZIS0XBM,3131,102224.jpg,6,65,live
960,A1FOF49RRN3ST7:3SITXWYCNXGDX86QP7X7QRAZIS0XBM,7399,141059.jpg,6,67,live
961,A1FOF49RRN3ST7:3SITXWYCNXGDX86QP7X7QRAZIS0XBM,2891,177368.jpg,6,68,live
962,A1FOF49RRN3ST7:3SITXWYCNXGDX86QP7X7QRAZIS0XBM,2867,118166.jpg,7,69,live
963,A1FOF49RRN3ST7:3SITXWYCNXGDX86QP7X7QRAZIS0XBM,2940,054267.jpg,6,70,live
964,A1FOF49RRN3ST7:3SITXWYCNXGDX86QP7X7QRAZIS0XBM,2972,067760.jpg,7,71,live
965,A1FOF49RRN3ST7:3SITXWYCNXGDX86QP7X7QRAZIS0XBM,3019,086966.jpg,6,72,live
966,A1FOF49RRN3ST7:3SITXWYCNXGDX86QP7X7QRAZIS0XBM,2875,017238.jpg,6,73,live
967,A1FOF49RRN3ST7:3SITXWYCNXGDX86QP7X7QRAZIS0XBM,3871,200278.jpg,6,74,live
968,A1FOF49RRN3ST7:3SITXWYCNXGDX86QP7X7QRAZIS0XBM,2739,117478.jpg,7,75,live
969,A1FOF49RRN3ST7:3SITXWYCNXGDX86QP7X7QRAZIS0XBM,4283,164278.jpg,5,76,live
970,A1FOF49RRN3ST7:3SITXWYCNXGDX86QP7X7QRAZIS0XBM,2588,100138.jpg,6,78,live
971,A1FOF49RRN3ST7:3SITXWYCNXGDX86QP7X7QRAZIS0XBM,6061,004868.jpg,6,79,live
972,A1FOF49RRN3ST7:3SITXWYCNXGDX86QP7X7QRAZIS0XBM,4603,035508.jpg,5,80,live
973,A1FOF49RRN3ST7:3SITXWYCNXGDX86QP7X7QRAZIS0XBM,2294,122364.jpg,5,81,live
974,A1FOF49RRN3ST7:3SITXWYCNXGDX86QP7X7QRAZIS0XBM,4193,128002.jpg,7,82,live
975,A1FOF49RRN3ST7:3SITXWYCNXGDX86QP7X7QRAZIS0XBM,3693,077912.jpg,6,83,live
976,A1FOF49RRN3ST7:3SITXWYCNXGDX86QP7X7QRAZIS0XBM,2347,043287.jpg,7,84,live
977,A1FOF49RRN3ST7:3SITXWYCNXGDX86QP7X7QRAZIS0XBM,2124,084296.jpg,6,85,live
978,A1FOF49RRN3ST7:3SITXWYCNXGDX86QP7X7QRAZIS0XBM,2227,010645.jpg,6,86,live
979,A1FOF49RRN3ST7:3SITXWYCNXGDX86QP7X7QRAZIS0XBM,2738,057518.jpg,5,87,live
980,A1FOF49RRN3ST7:3SITXWYCNXGDX86QP7X7QRAZIS0XBM,2070,156121.jpg,6,89,live
981,A1FOF49RRN3ST7:3SITXWYCNXGDX86QP7X7QRAZIS0XBM,2477,059217.jpg,6,90,live
982,A1FOF49RRN3ST7:3SITXWYCNXGDX86QP7X7QRAZIS0XBM,2355,164278.jpg,6,91,live
983,A1FOF49RRN3ST7:3SITXWYCNXGDX86QP7X7QRAZIS0XBM,2102,180966.jpg,6,92,live
984,A1FOF49RRN3ST7:3SITXWYCNXGDX86QP7X7QRAZIS0XBM,2141,082102.jpg,6,93,live
985,A1FOF49RRN3ST7:3SITXWYCNXGDX86QP7X7QRAZIS0XBM,2969,113099.jpg,6,94,live
986,A1FOF49RRN3ST7:3SITXWYCNXGDX86QP7X7QRAZIS0XBM,1797,160622.jpg,6,95,live
987,A1FOF49RRN3ST7:3SITXWYCNXGDX86QP7X7QRAZIS0XBM,3615,004868.jpg,5,96,live
988,A1FOF49RRN3ST7:3SITXWYCNXGDX86QP7X7QRAZIS0XBM,3011,057518.jpg,5,97,live
989,A1FOF49RRN3ST7:3SITXWYCNXGDX86QP7X7QRAZIS0XBM,2802,100138.jpg,5,98,live
990,A1FOF49RRN3ST7:3SITXWYCNXGDX86QP7X7QRAZIS0XBM,3627,153098.jpg,8,100,live
991,A1FOF49RRN3ST7:3SITXWYCNXGDX86QP7X7QRAZIS0XBM,5156,068906.jpg,8,101,live
992,A1FOF49RRN3ST7:3SITXWYCNXGDX86QP7X7QRAZIS0XBM,2018,096767.jpg,7,102,live
993,A1FOF49RRN3ST7:3SITXWYCNXGDX86QP7X7QRAZIS0XBM,2012,104401.jpg,7,103,live
994,A1FOF49RRN3ST7:3SITXWYCNXGDX86QP7X7QRAZIS0XBM,1826,115851.jpg,7,104,live
995,A1FOF49RRN3ST7:3SITXWYCNXGDX86QP7X7QRAZIS0XBM,2211,073829.jpg,7,105,live
996,A1FOF49RRN3ST7:3SITXWYCNXGDX86QP7X7QRAZIS0XBM,2450,144346.jpg,7,106,live
997,A1FOF49RRN3ST7:3SITXWYCNXGDX86QP7X7QRAZIS0XBM,3057,031206.jpg,6,107,live
998,A1FOF49RRN3ST7:3SITXWYCNXGDX86QP7X7QRAZIS0XBM,2454,120726.jpg,6,108,live
999,A1FOF49RRN3ST7:3SITXWYCNXGDX86QP7X7QRAZIS0XBM,2108,098484.jpg,6,109,live
1000,A13KG877JUKJZO:33C7UALJVN5M59NQF2SQ4GGX57A81G,2436,200021.jpg,7,1,live
1001,A13KG877JUKJZO:33C7UALJVN5M59NQF2SQ4GGX57A81G,1283,148453.jpg,8,2,live
1002,A13KG877JUKJZO:33C7UALJVN5M59NQF2SQ4GGX57A81G,1238,156121.jpg,8,3,live
1003,A13KG877JUKJZO:33C7UALJVN5M59NQF2SQ4GGX57A81G,1494,096767.jpg,8,4,live
1004,A13KG877JUKJZO:33C7UALJVN5M59NQF2SQ4GGX57A81G,1618,073829.jpg,9,5,live
1005,A13KG877JUKJZO:33C7UALJVN5M59NQF2SQ4GGX57A81G,2814,017238.jpg,7,6,live
1006,A13KG877JUKJZO:33C7UALJVN5M59NQF2SQ4GGX57A81G,3317,067792.jpg,8,7,live
1007,A13KG877JUKJZO:33C7UALJVN5M59NQF2SQ4GGX57A81G,2901,111185.jpg,8,8,live
1008,A13KG877JUKJZO:33C7UALJVN5M59NQF2SQ4GGX57A81G,4653,100659.jpg,8,9,live
1009,A13KG877JUKJZO:33C7UALJVN5M59NQF2SQ4GGX57A81G,2288,153098.jpg,8,10,live
1010,A13KG877JUKJZO:33C7UALJVN5M59NQF2SQ4GGX57A81G,33133,118166.jpg,8,12,live
1011,A13KG877JUKJZO:33C7UALJVN5M59NQF2SQ4GGX57A81G,1686,163887.jpg,8,13,live
1012,A13KG877JUKJZO:33C7UALJVN5M59NQF2SQ4GGX57A81G,1420,177368.jpg,7,14,live
1013,A13KG877JUKJZO:33C7UALJVN5M59NQF2SQ4GGX57A81G,1605,187879.jpg,8,15,live
1014,A13KG877JUKJZO:33C7UALJVN5M59NQF2SQ4GGX57A81G,1348,069359.jpg,8,16,live
1015,A13KG877JUKJZO:33C7UALJVN5M59NQF2SQ4GGX57A81G,1373,115851.jpg,7,17,live
1016,A13KG877JUKJZO:33C7UALJVN5M59NQF2SQ4GGX57A81G,1561,031206.jpg,8,18,live
1017,A13KG877JUKJZO:33C7UALJVN5M59NQF2SQ4GGX57A81G,2046,017238.jpg,9,19,live
1018,A13KG877JUKJZO:33C7UALJVN5M59NQF2SQ4GGX57A81G,1476,098484.jpg,7,20,live
1019,A13KG877JUKJZO:33C7UALJVN5M59NQF2SQ4GGX57A81G,1558,160622.jpg,8,21,live
1020,A13KG877JUKJZO:33C7UALJVN5M59NQF2SQ4GGX57A81G,4176,039990.jpg,7,23,live
1021,A13KG877JUKJZO:33C7UALJVN5M59NQF2SQ4GGX57A81G,2908,198632.jpg,8,24,live
1022,A13KG877JUKJZO:33C7UALJVN5M59NQF2SQ4GGX57A81G,1445,059217.jpg,7,25,live
1023,A13KG877JUKJZO:33C7UALJVN5M59NQF2SQ4GGX57A81G,1285,117478.jpg,8,26,live
1024,A13KG877JUKJZO:33C7UALJVN5M59NQF2SQ4GGX57A81G,2404,122364.jpg,7,27,live
1025,A13KG877JUKJZO:33C7UALJVN5M59NQF2SQ4GGX57A81G,3277,068906.jpg,8,28,live
1026,A13KG877JUKJZO:33C7UALJVN5M59NQF2SQ4GGX57A81G,1341,100138.jpg,8,29,live
1027,A13KG877JUKJZO:33C7UALJVN5M59NQF2SQ4GGX57A81G,1140,100138.jpg,7,30,live
1028,A13KG877JUKJZO:33C7UALJVN5M59NQF2SQ4GGX57A81G,1958,188240.jpg,9,31,live
1029,A13KG877JUKJZO:33C7UALJVN5M59NQF2SQ4GGX57A81G,1492,119535.jpg,7,32,live
1030,A13KG877JUKJZO:33C7UALJVN5M59NQF2SQ4GGX57A81G,3820,112278.jpg,8,34,live
1031,A13KG877JUKJZO:33C7UALJVN5M59NQF2SQ4GGX57A81G,1478,035508.jpg,7,35,live
1032,A13KG877JUKJZO:33C7UALJVN5M59NQF2SQ4GGX57A81G,1526,164278.jpg,8,36,live
1033,A13KG877JUKJZO:33C7UALJVN5M59NQF2SQ4GGX57A81G,2269,030000.jpg,7,37,live
1034,A13KG877JUKJZO:33C7UALJVN5M59NQF2SQ4GGX57A81G,1382,128631.jpg,8,38,live
1035,A13KG877JUKJZO:33C7UALJVN5M59NQF2SQ4GGX57A81G,2413,144346.jpg,7,39,live
1036,A13KG877JUKJZO:33C7UALJVN5M59NQF2SQ4GGX57A81G,1500,128002.jpg,6,40,live
1037,A13KG877JUKJZO:33C7UALJVN5M59NQF2SQ4GGX57A81G,1677,111185.jpg,8,41,live
1038,A13KG877JUKJZO:33C7UALJVN5M59NQF2SQ4GGX57A81G,2140,000192.jpg,6,42,live
1039,A13KG877JUKJZO:33C7UALJVN5M59NQF2SQ4GGX57A81G,1621,054267.jpg,8,43,live
1040,A13KG877JUKJZO:33C7UALJVN5M59NQF2SQ4GGX57A81G,4199,014755.jpg,8,45,live
1041,A13KG877JUKJZO:33C7UALJVN5M59NQF2SQ4GGX57A81G,1517,073829.jpg,7,46,live
1042,A13KG877JUKJZO:33C7UALJVN5M59NQF2SQ4GGX57A81G,2822,177368.jpg,8,47,live
1043,A13KG877JUKJZO:33C7UALJVN5M59NQF2SQ4GGX57A81G,2734,035590.jpg,7,48,live
1044,A13KG877JUKJZO:33C7UALJVN5M59NQF2SQ4GGX57A81G,1478,104401.jpg,8,49,live
1045,A13KG877JUKJZO:33C7UALJVN5M59NQF2SQ4GGX57A81G,1412,144010.jpg,7,50,live
1046,A13KG877JUKJZO:33C7UALJVN5M59NQF2SQ4GGX57A81G,1494,113099.jpg,8,51,live
1047,A13KG877JUKJZO:33C7UALJVN5M59NQF2SQ4GGX57A81G,1589,089364.jpg,8,52,live
1048,A13KG877JUKJZO:33C7UALJVN5M59NQF2SQ4GGX57A81G,1407,200278.jpg,8,53,live
1049,A13KG877JUKJZO:33C7UALJVN5M59NQF2SQ4GGX57A81G,10102,120726.jpg,7,54,live
1050,A13KG877JUKJZO:33C7UALJVN5M59NQF2SQ4GGX57A81G,5902,054808.jpg,7,56,live
1051,A13KG877JUKJZO:33C7UALJVN5M59NQF2SQ4GGX57A81G,5438,059217.jpg,7,57,live
1052,A13KG877JUKJZO:33C7UALJVN5M59NQF2SQ4GGX57A81G,2605,161526.jpg,7,58,live
1053,A13KG877JUKJZO:33C7UALJVN5M59NQF2SQ4GGX57A81G,1460,120726.jpg,8,59,live
1054,A13KG877JUKJZO:33C7UALJVN5M59NQF2SQ4GGX57A81G,1589,121737.jpg,7,60,live
1055,A13KG877JUKJZO:33C7UALJVN5M59NQF2SQ4GGX57A81G,1988,039990.jpg,8,61,live
1056,A13KG877JUKJZO:33C7UALJVN5M59NQF2SQ4GGX57A81G,2622,083021.jpg,7,62,live
1057,A13KG877JUKJZO:33C7UALJVN5M59NQF2SQ4GGX57A81G,24444,067760.jpg,7,63,live
1058,A13KG877JUKJZO:33C7UALJVN5M59NQF2SQ4GGX57A81G,1438,011510.jpg,8,64,live
1059,A13KG877JUKJZO:33C7UALJVN5M59NQF2SQ4GGX57A81G,1413,084296.jpg,7,65,live
1060,A13KG877JUKJZO:33C7UALJVN5M59NQF2SQ4GGX57A81G,7507,077912.jpg,7,67,live
1061,A13KG877JUKJZO:33C7UALJVN5M59NQF2SQ4GGX57A81G,3348,035508.jpg,8,68,live
1062,A13KG877JUKJZO:33C7UALJVN5M59NQF2SQ4GGX57A81G,7038,119380.jpg,8,69,live
1063,A13KG877JUKJZO:33C7UALJVN5M59NQF2SQ4GGX57A81G,1501,163842.jpg,7,70,live
1064,A13KG877JUKJZO:33C7UALJVN5M59NQF2SQ4GGX57A81G,2166,075975.jpg,8,71,live
1065,A13KG877JUKJZO:33C7UALJVN5M59NQF2SQ4GGX57A81G,1381,132629.jpg,8,72,live
1066,A13KG877JUKJZO:33C7UALJVN5M59NQF2SQ4GGX57A81G,2101,098484.jpg,7,73,live
1067,A13KG877JUKJZO:33C7UALJVN5M59NQF2SQ4GGX57A81G,1566,198128.jpg,8,74,live
1068,A13KG877JUKJZO:33C7UALJVN5M59NQF2SQ4GGX57A81G,2835,164278.jpg,7,75,live
1069,A13KG877JUKJZO:33C7UALJVN5M59NQF2SQ4GGX57A81G,30484,014755.jpg,7,76,live
1070,A13KG877JUKJZO:33C7UALJVN5M59NQF2SQ4GGX57A81G,68551,057518.jpg,6,78,live
1071,A13KG877JUKJZO:33C7UALJVN5M59NQF2SQ4GGX57A81G,1451,117478.jpg,7,79,live
1072,A13KG877JUKJZO:33C7UALJVN5M59NQF2SQ4GGX57A81G,1462,102224.jpg,6,80,live
1073,A13KG877JUKJZO:33C7UALJVN5M59NQF2SQ4GGX57A81G,1213,033997.jpg,7,81,live
1074,A13KG877JUKJZO:33C7UALJVN5M59NQF2SQ4GGX57A81G,1213,004868.jpg,8,82,live
1075,A13KG877JUKJZO:33C7UALJVN5M59NQF2SQ4GGX57A81G,1332,141075.jpg,7,83,live
1076,A13KG877JUKJZO:33C7UALJVN5M59NQF2SQ4GGX57A81G,1373,035590.jpg,7,84,live
1077,A13KG877JUKJZO:33C7UALJVN5M59NQF2SQ4GGX57A81G,1197,007128.jpg,6,85,live
1078,A13KG877JUKJZO:33C7UALJVN5M59NQF2SQ4GGX57A81G,1812,084296.jpg,7,86,live
1079,A13KG877JUKJZO:33C7UALJVN5M59NQF2SQ4GGX57A81G,1302,043287.jpg,8,87,live
1080,A13KG877JUKJZO:33C7UALJVN5M59NQF2SQ4GGX57A81G,2309,004868.jpg,8,89,live
1081,A13KG877JUKJZO:33C7UALJVN5M59NQF2SQ4GGX57A81G,1380,121110.jpg,7,90,live
1082,A13KG877JUKJZO:33C7UALJVN5M59NQF2SQ4GGX57A81G,3868,112278.jpg,6,91,live
1083,A13KG877JUKJZO:33C7UALJVN5M59NQF2SQ4GGX57A81G,1380,050455.jpg,7,92,live
1084,A13KG877JUKJZO:33C7UALJVN5M59NQF2SQ4GGX57A81G,1485,115789.jpg,8,93,live
1085,A13KG877JUKJZO:33C7UALJVN5M59NQF2SQ4GGX57A81G,1351,141059.jpg,6,94,live
1086,A13KG877JUKJZO:33C7UALJVN5M59NQF2SQ4GGX57A81G,1413,180966.jpg,7,95,live
1087,A13KG877JUKJZO:33C7UALJVN5M59NQF2SQ4GGX57A81G,1292,147371.jpg,8,96,live
1088,A13KG877JUKJZO:33C7UALJVN5M59NQF2SQ4GGX57A81G,1238,060174.jpg,8,97,live
1089,A13KG877JUKJZO:33C7UALJVN5M59NQF2SQ4GGX57A81G,1045,012925.jpg,7,98,live
1090,A13KG877JUKJZO:33C7UALJVN5M59NQF2SQ4GGX57A81G,2312,010645.jpg,7,100,live
1091,A13KG877JUKJZO:33C7UALJVN5M59NQF2SQ4GGX57A81G,3293,070844.jpg,8,101,live
1092,A13KG877JUKJZO:33C7UALJVN5M59NQF2SQ4GGX57A81G,1525,047217.jpg,7,102,live
1093,A13KG877JUKJZO:33C7UALJVN5M59NQF2SQ4GGX57A81G,1205,063392.jpg,6,103,live
1094,A13KG877JUKJZO:33C7UALJVN5M59NQF2SQ4GGX57A81G,1948,086966.jpg,7,104,live
1095,A13KG877JUKJZO:33C7UALJVN5M59NQF2SQ4GGX57A81G,1689,082102.jpg,6,105,live
1096,A13KG877JUKJZO:33C7UALJVN5M59NQF2SQ4GGX57A81G,1596,092268.jpg,8,106,live
1097,A13KG877JUKJZO:33C7UALJVN5M59NQF2SQ4GGX57A81G,1405,057518.jpg,7,107,live
1098,A13KG877JUKJZO:33C7UALJVN5M59NQF2SQ4GGX57A81G,1356,160622.jpg,6,108,live
1099,A13KG877JUKJZO:33C7UALJVN5M59NQF2SQ4GGX57A81G,1559,086966.jpg,8,109,live
1100,A1KGCOR8OXYR72:30X31N5D65X0IHFZPJROW891LVDSAE,3374,119380.jpg,9,1,live
1101,A1KGCOR8OXYR72:30X31N5D65X0IHFZPJROW891LVDSAE,2307,096767.jpg,9,2,live
1102,A1KGCOR8OXYR72:30X31N5D65X0IHFZPJROW891LVDSAE,3477,030000.jpg,3,3,live
1103,A1KGCOR8OXYR72:30X31N5D65X0IHFZPJROW891LVDSAE,4649,121737.jpg,3,4,live
1104,A1KGCOR8OXYR72:30X31N5D65X0IHFZPJROW891LVDSAE,4142,054808.jpg,9,5,live
1105,A1KGCOR8OXYR72:30X31N5D65X0IHFZPJROW891LVDSAE,3414,100138.jpg,7,6,live
1106,A1KGCOR8OXYR72:30X31N5D65X0IHFZPJROW891LVDSAE,2645,059217.jpg,9,7,live
1107,A1KGCOR8OXYR72:30X31N5D65X0IHFZPJROW891LVDSAE,6803,017238.jpg,8,8,live
1108,A1KGCOR8OXYR72:30X31N5D65X0IHFZPJROW891LVDSAE,3295,033997.jpg,7,9,live
1109,A1KGCOR8OXYR72:30X31N5D65X0IHFZPJROW891LVDSAE,2425,035590.jpg,7,10,live
1110,A1KGCOR8OXYR72:30X31N5D65X0IHFZPJROW891LVDSAE,4217,120726.jpg,4,12,live
1111,A1KGCOR8OXYR72:30X31N5D65X0IHFZPJROW891LVDSAE,2500,141059.jpg,3,13,live
1112,A1KGCOR8OXYR72:30X31N5D65X0IHFZPJROW891LVDSAE,2487,073829.jpg,9,14,live
1113,A1KGCOR8OXYR72:30X31N5D65X0IHFZPJROW891LVDSAE,2668,160622.jpg,6,15,live
1114,A1KGCOR8OXYR72:30X31N5D65X0IHFZPJROW891LVDSAE,3050,086966.jpg,6,16,live
1115,A1KGCOR8OXYR72:30X31N5D65X0IHFZPJROW891LVDSAE,3427,164278.jpg,6,17,live
1116,A1KGCOR8OXYR72:30X31N5D65X0IHFZPJROW891LVDSAE,2426,092268.jpg,9,18,live
1117,A1KGCOR8OXYR72:30X31N5D65X0IHFZPJROW891LVDSAE,2776,004868.jpg,1,19,live
1118,A1KGCOR8OXYR72:30X31N5D65X0IHFZPJROW891LVDSAE,4078,011510.jpg,4,20,live
1119,A1KGCOR8OXYR72:30X31N5D65X0IHFZPJROW891LVDSAE,2730,014755.jpg,8,21,live
1120,A1KGCOR8OXYR72:30X31N5D65X0IHFZPJROW891LVDSAE,5573,120726.jpg,4,23,live
1121,A1KGCOR8OXYR72:30X31N5D65X0IHFZPJROW891LVDSAE,3507,047217.jpg,2,24,live
1122,A1KGCOR8OXYR72:30X31N5D65X0IHFZPJROW891LVDSAE,2337,017238.jpg,9,25,live
1123,A1KGCOR8OXYR72:30X31N5D65X0IHFZPJROW891LVDSAE,2799,160622.jpg,6,26,live
1124,A1KGCOR8OXYR72:30X31N5D65X0IHFZPJROW891LVDSAE,2958,043287.jpg,6,27,live
1125,A1KGCOR8OXYR72:30X31N5D65X0IHFZPJROW891LVDSAE,2854,098484.jpg,2,28,live
1126,A1KGCOR8OXYR72:30X31N5D65X0IHFZPJROW891LVDSAE,2448,098484.jpg,2,29,live
1127,A1KGCOR8OXYR72:30X31N5D65X0IHFZPJROW891LVDSAE,2656,035590.jpg,9,30,live
1128,A1KGCOR8OXYR72:30X31N5D65X0IHFZPJROW891LVDSAE,3085,077912.jpg,4,31,live
1129,A1KGCOR8OXYR72:30X31N5D65X0IHFZPJROW891LVDSAE,2482,111185.jpg,9,32,live
1130,A1KGCOR8OXYR72:30X31N5D65X0IHFZPJROW891LVDSAE,2135,115789.jpg,9,34,live
1131,A1KGCOR8OXYR72:30X31N5D65X0IHFZPJROW891LVDSAE,3542,070844.jpg,8,35,live
1132,A1KGCOR8OXYR72:30X31N5D65X0IHFZPJROW891LVDSAE,2565,117478.jpg,9,36,live
1133,A1KGCOR8OXYR72:30X31N5D65X0IHFZPJROW891LVDSAE,2162,039990.jpg,2,37,live
1134,A1KGCOR8OXYR72:30X31N5D65X0IHFZPJROW891LVDSAE,2179,163887.jpg,8,38,live
1135,A1KGCOR8OXYR72:30X31N5D65X0IHFZPJROW891LVDSAE,2057,073829.jpg,9,39,live
1136,A1KGCOR8OXYR72:30X31N5D65X0IHFZPJROW891LVDSAE,2532,014755.jpg,8,40,live
1137,A1KGCOR8OXYR72:30X31N5D65X0IHFZPJROW891LVDSAE,2036,031206.jpg,7,41,live
1138,A1KGCOR8OXYR72:30X31N5D65X0IHFZPJROW891LVDSAE,3469,069359.jpg,3,42,live
1139,A1KGCOR8OXYR72:30X31N5D65X0IHFZPJROW891LVDSAE,4614,163842.jpg,7,43,live
1140,A1KGCOR8OXYR72:30X31N5D65X0IHFZPJROW891LVDSAE,3745,007128.jpg,6,45,live
1141,A1KGCOR8OXYR72:30X31N5D65X0IHFZPJROW891LVDSAE,2734,147371.jpg,5,46,live
1142,A1KGCOR8OXYR72:30X31N5D65X0IHFZPJROW891LVDSAE,2639,067792.jpg,8,47,live
1143,A1KGCOR8OXYR72:30X31N5D65X0IHFZPJROW891LVDSAE,2370,161526.jpg,3,48,live
1144,A1KGCOR8OXYR72:30X31N5D65X0IHFZPJROW891LVDSAE,4503,180966.jpg,7,49,live
1145,A1KGCOR8OXYR72:30X31N5D65X0IHFZPJROW891LVDSAE,3531,144346.jpg,9,50,live
1146,A1KGCOR8OXYR72:30X31N5D65X0IHFZPJROW891LVDSAE,1853,117478.jpg,9,51,live
1147,A1KGCOR8OXYR72:30X31N5D65X0IHFZPJROW891LVDSAE,3275,128002.jpg,9,52,live
1148,A1KGCOR8OXYR72:30X31N5D65X0IHFZPJROW891LVDSAE,3461,100138.jpg,7,53,live
1149,A1KGCOR8OXYR72:30X31N5D65X0IHFZPJROW891LVDSAE,2496,057518.jpg,1,54,live
1150,A1KGCOR8OXYR72:30X31N5D65X0IHFZPJROW891LVDSAE,2333,112278.jpg,1,56,live
1151,A1KGCOR8OXYR72:30X31N5D65X0IHFZPJROW891LVDSAE,3720,177368.jpg,3,57,live
1152,A1KGCOR8OXYR72:30X31N5D65X0IHFZPJROW891LVDSAE,2810,118166.jpg,9,58,live
1153,A1KGCOR8OXYR72:30X31N5D65X0IHFZPJROW891LVDSAE,2458,082102.jpg,8,59,live
1154,A1KGCOR8OXYR72:30X31N5D65X0IHFZPJROW891LVDSAE,2337,075975.jpg,8,60,live
1155,A1KGCOR8OXYR72:30X31N5D65X0IHFZPJROW891LVDSAE,3929,153098.jpg,9,61,live
1156,A1KGCOR8OXYR72:30X31N5D65X0IHFZPJROW891LVDSAE,2353,200278.jpg,2,62,live
1157,A1KGCOR8OXYR72:30X31N5D65X0IHFZPJROW891LVDSAE,3128,039990.jpg,2,63,live
1158,A1KGCOR8OXYR72:30X31N5D65X0IHFZPJROW891LVDSAE,2171,054267.jpg,5,64,live
1159,A1KGCOR8OXYR72:30X31N5D65X0IHFZPJROW891LVDSAE,4112,035508.jpg,8,65,live
1160,A1KGCOR8OXYR72:30X31N5D65X0IHFZPJROW891LVDSAE,2070,112278.jpg,1,67,live
1161,A1KGCOR8OXYR72:30X31N5D65X0IHFZPJROW891LVDSAE,2781,067760.jpg,9,68,live
1162,A1KGCOR8OXYR72:30X31N5D65X0IHFZPJROW891LVDSAE,2639,111185.jpg,9,69,live
1163,A1KGCOR8OXYR72:30X31N5D65X0IHFZPJROW891LVDSAE,3556,086966.jpg,6,70,live
1164,A1KGCOR8OXYR72:30X31N5D65X0IHFZPJROW891LVDSAE,2467,200021.jpg,9,71,live
1165,A1KGCOR8OXYR72:30X31N5D65X0IHFZPJROW891LVDSAE,4004,083021.jpg,5,72,live
1166,A1KGCOR8OXYR72:30X31N5D65X0IHFZPJROW891LVDSAE,2698,122364.jpg,9,73,live
1167,A1KGCOR8OXYR72:30X31N5D65X0IHFZPJROW891LVDSAE,1812,059217.jpg,9,74,live
1168,A1KGCOR8OXYR72:30X31N5D65X0IHFZPJROW891LVDSAE,2497,102224.jpg,1,75,live
1169,A1KGCOR8OXYR72:30X31N5D65X0IHFZPJROW891LVDSAE,2781,164278.jpg,6,76,live
1170,A1KGCOR8OXYR72:30X31N5D65X0IHFZPJROW891LVDSAE,2471,198128.jpg,1,78,live
1171,A1KGCOR8OXYR72:30X31N5D65X0IHFZPJROW891LVDSAE,2299,132629.jpg,9,79,live
1172,A1KGCOR8OXYR72:30X31N5D65X0IHFZPJROW891LVDSAE,2885,156121.jpg,8,80,live
1173,A1KGCOR8OXYR72:30X31N5D65X0IHFZPJROW891LVDSAE,2985,057518.jpg,1,81,live
1174,A1KGCOR8OXYR72:30X31N5D65X0IHFZPJROW891LVDSAE,2094,084296.jpg,8,82,live
1175,A1KGCOR8OXYR72:30X31N5D65X0IHFZPJROW891LVDSAE,2618,060174.jpg,9,83,live
1176,A1KGCOR8OXYR72:30X31N5D65X0IHFZPJROW891LVDSAE,1960,187879.jpg,9,84,live
1177,A1KGCOR8OXYR72:30X31N5D65X0IHFZPJROW891LVDSAE,2567,119535.jpg,7,85,live
1178,A1KGCOR8OXYR72:30X31N5D65X0IHFZPJROW891LVDSAE,3958,148453.jpg,4,86,live
1179,A1KGCOR8OXYR72:30X31N5D65X0IHFZPJROW891LVDSAE,1808,035508.jpg,9,87,live
1180,A1KGCOR8OXYR72:30X31N5D65X0IHFZPJROW891LVDSAE,2732,177368.jpg,3,89,live
1181,A1KGCOR8OXYR72:30X31N5D65X0IHFZPJROW891LVDSAE,4025,063392.jpg,2,90,live
1182,A1KGCOR8OXYR72:30X31N5D65X0IHFZPJROW891LVDSAE,2449,012925.jpg,1,91,live
1183,A1KGCOR8OXYR72:30X31N5D65X0IHFZPJROW891LVDSAE,2460,113099.jpg,9,92,live
1184,A1KGCOR8OXYR72:30X31N5D65X0IHFZPJROW891LVDSAE,2485,188240.jpg,9,93,live
1185,A1KGCOR8OXYR72:30X31N5D65X0IHFZPJROW891LVDSAE,2416,121110.jpg,8,94,live
1186,A1KGCOR8OXYR72:30X31N5D65X0IHFZPJROW891LVDSAE,2955,100659.jpg,9,95,live
1187,A1KGCOR8OXYR72:30X31N5D65X0IHFZPJROW891LVDSAE,2364,141075.jpg,9,96,live
1188,A1KGCOR8OXYR72:30X31N5D65X0IHFZPJROW891LVDSAE,2071,084296.jpg,9,97,live
1189,A1KGCOR8OXYR72:30X31N5D65X0IHFZPJROW891LVDSAE,2873,115851.jpg,6,98,live
1190,A1KGCOR8OXYR72:30X31N5D65X0IHFZPJROW891LVDSAE,2386,010645.jpg,9,100,live
1191,A1KGCOR8OXYR72:30X31N5D65X0IHFZPJROW891LVDSAE,5305,144010.jpg,2,101,live
1192,A1KGCOR8OXYR72:30X31N5D65X0IHFZPJROW891LVDSAE,6615,068906.jpg,8,102,live
1193,A1KGCOR8OXYR72:30X31N5D65X0IHFZPJROW891LVDSAE,2707,128631.jpg,1,103,live
1194,A1KGCOR8OXYR72:30X31N5D65X0IHFZPJROW891LVDSAE,2005,004868.jpg,1,104,live
1195,A1KGCOR8OXYR72:30X31N5D65X0IHFZPJROW891LVDSAE,2589,198632.jpg,9,105,live
1196,A1KGCOR8OXYR72:30X31N5D65X0IHFZPJROW891LVDSAE,2706,089364.jpg,1,106,live
1197,A1KGCOR8OXYR72:30X31N5D65X0IHFZPJROW891LVDSAE,1890,000192.jpg,8,107,live
1198,A1KGCOR8OXYR72:30X31N5D65X0IHFZPJROW891LVDSAE,2556,104401.jpg,6,108,live
1199,A1KGCOR8OXYR72:30X31N5D65X0IHFZPJROW891LVDSAE,2855,050455.jpg,3,109,live
1200,A3JAJIWXVELPTK:35LDD5557CB3WZBGHD8REDDRYI3KMN,5604,163887.jpg,6,1,live
1201,A3JAJIWXVELPTK:35LDD5557CB3WZBGHD8REDDRYI3KMN,3082,054808.jpg,7,2,live
1202,A3JAJIWXVELPTK:35LDD5557CB3WZBGHD8REDDRYI3KMN,3263,035590.jpg,8,3,live
1203,A3JAJIWXVELPTK:35LDD5557CB3WZBGHD8REDDRYI3KMN,3605,098484.jpg,7,4,live
1204,A3JAJIWXVELPTK:35LDD5557CB3WZBGHD8REDDRYI3KMN,3085,198128.jpg,4,5,live
1205,A3JAJIWXVELPTK:35LDD5557CB3WZBGHD8REDDRYI3KMN,3197,086966.jpg,7,6,live
1206,A3JAJIWXVELPTK:35LDD5557CB3WZBGHD8REDDRYI3KMN,2965,180966.jpg,7,7,live
1207,A3JAJIWXVELPTK:35LDD5557CB3WZBGHD8REDDRYI3KMN,2773,200021.jpg,7,8,live
1208,A3JAJIWXVELPTK:35LDD5557CB3WZBGHD8REDDRYI3KMN,2908,160622.jpg,8,9,live
1209,A3JAJIWXVELPTK:35LDD5557CB3WZBGHD8REDDRYI3KMN,2886,073829.jpg,7,10,live
1210,A3JAJIWXVELPTK:35LDD5557CB3WZBGHD8REDDRYI3KMN,3096,004868.jpg,8,12,live
1211,A3JAJIWXVELPTK:35LDD5557CB3WZBGHD8REDDRYI3KMN,2814,163842.jpg,8,13,live
1212,A3JAJIWXVELPTK:35LDD5557CB3WZBGHD8REDDRYI3KMN,2378,004868.jpg,5,14,live
1213,A3JAJIWXVELPTK:35LDD5557CB3WZBGHD8REDDRYI3KMN,2941,073829.jpg,8,15,live
1214,A3JAJIWXVELPTK:35LDD5557CB3WZBGHD8REDDRYI3KMN,2285,148453.jpg,9,16,live
1215,A3JAJIWXVELPTK:35LDD5557CB3WZBGHD8REDDRYI3KMN,2214,200278.jpg,7,17,live
1216,A3JAJIWXVELPTK:35LDD5557CB3WZBGHD8REDDRYI3KMN,2810,164278.jpg,7,18,live
1217,A3JAJIWXVELPTK:35LDD5557CB3WZBGHD8REDDRYI3KMN,2742,067760.jpg,8,19,live
1218,A3JAJIWXVELPTK:35LDD5557CB3WZBGHD8REDDRYI3KMN,2203,075975.jpg,7,20,live
1219,A3JAJIWXVELPTK:35LDD5557CB3WZBGHD8REDDRYI3KMN,3378,115851.jpg,8,21,live
1220,A3JAJIWXVELPTK:35LDD5557CB3WZBGHD8REDDRYI3KMN,2298,084296.jpg,7,23,live
1221,A3JAJIWXVELPTK:35LDD5557CB3WZBGHD8REDDRYI3KMN,2311,007128.jpg,8,24,live
1222,A3JAJIWXVELPTK:35LDD5557CB3WZBGHD8REDDRYI3KMN,2298,098484.jpg,6,25,live
1223,A3JAJIWXVELPTK:35LDD5557CB3WZBGHD8REDDRYI3KMN,3047,115789.jpg,8,26,live
1224,A3JAJIWXVELPTK:35LDD5557CB3WZBGHD8REDDRYI3KMN,2946,117478.jpg,7,27,live
1225,A3JAJIWXVELPTK:35LDD5557CB3WZBGHD8REDDRYI3KMN,2293,102224.jpg,8,28,live
1226,A3JAJIWXVELPTK:35LDD5557CB3WZBGHD8REDDRYI3KMN,1893,117478.jpg,8,29,live
1227,A3JAJIWXVELPTK:35LDD5557CB3WZBGHD8REDDRYI3KMN,2726,084296.jpg,7,30,live
1228,A3JAJIWXVELPTK:35LDD5557CB3WZBGHD8REDDRYI3KMN,3724,011510.jpg,8,31,live
1229,A3JAJIWXVELPTK:35LDD5557CB3WZBGHD8REDDRYI3KMN,2093,161526.jpg,8,32,live
1230,A3JAJIWXVELPTK:35LDD5557CB3WZBGHD8REDDRYI3KMN,1978,067792.jpg,8,34,live
1231,A3JAJIWXVELPTK:35LDD5557CB3WZBGHD8REDDRYI3KMN,2344,160622.jpg,8,35,live
1232,A3JAJIWXVELPTK:35LDD5557CB3WZBGHD8REDDRYI3KMN,2729,100138.jpg,8,36,live
1233,A3JAJIWXVELPTK:35LDD5557CB3WZBGHD8REDDRYI3KMN,2141,144346.jpg,6,37,live
1234,A3JAJIWXVELPTK:35LDD5557CB3WZBGHD8REDDRYI3KMN,3701,092268.jpg,8,38,live
1235,A3JAJIWXVELPTK:35LDD5557CB3WZBGHD8REDDRYI3KMN,2773,100659.jpg,8,39,live
1236,A3JAJIWXVELPTK:35LDD5557CB3WZBGHD8REDDRYI3KMN,2062,111185.jpg,7,40,live
1237,A3JAJIWXVELPTK:35LDD5557CB3WZBGHD8REDDRYI3KMN,4510,177368.jpg,7,41,live
1238,A3JAJIWXVELPTK:35LDD5557CB3WZBGHD8REDDRYI3KMN,2565,141059.jpg,8,42,live
1239,A3JAJIWXVELPTK:35LDD5557CB3WZBGHD8REDDRYI3KMN,2730,083021.jpg,9,43,live
1240,A3JAJIWXVELPTK:35LDD5557CB3WZBGHD8REDDRYI3KMN,1958,177368.jpg,8,45,live
1241,A3JAJIWXVELPTK:35LDD5557CB3WZBGHD8REDDRYI3KMN,2293,128002.jpg,8,46,live
1242,A3JAJIWXVELPTK:35LDD5557CB3WZBGHD8REDDRYI3KMN,1957,059217.jpg,7,47,live
1243,A3JAJIWXVELPTK:35LDD5557CB3WZBGHD8REDDRYI3KMN,2157,122364.jpg,8,48,live
1244,A3JAJIWXVELPTK:35LDD5557CB3WZBGHD8REDDRYI3KMN,2349,077912.jpg,7,49,live
1245,A3JAJIWXVELPTK:35LDD5557CB3WZBGHD8REDDRYI3KMN,1909,111185.jpg,8,50,live
1246,A3JAJIWXVELPTK:35LDD5557CB3WZBGHD8REDDRYI3KMN,2757,147371.jpg,8,51,live
1247,A3JAJIWXVELPTK:35LDD5557CB3WZBGHD8REDDRYI3KMN,2228,035508.jpg,9,52,live
1248,A3JAJIWXVELPTK:35LDD5557CB3WZBGHD8REDDRYI3KMN,1685,100138.jpg,7,53,live
1249,A3JAJIWXVELPTK:35LDD5557CB3WZBGHD8REDDRYI3KMN,3213,057518.jpg,8,54,live
1250,A3JAJIWXVELPTK:35LDD5557CB3WZBGHD8REDDRYI3KMN,1825,153098.jpg,7,56,live
1251,A3JAJIWXVELPTK:35LDD5557CB3WZBGHD8REDDRYI3KMN,1637,119535.jpg,8,57,live
1252,A3JAJIWXVELPTK:35LDD5557CB3WZBGHD8REDDRYI3KMN,1873,031206.jpg,8,58,live
1253,A3JAJIWXVELPTK:35LDD5557CB3WZBGHD8REDDRYI3KMN,1985,120726.jpg,7,59,live
1254,A3JAJIWXVELPTK:35LDD5557CB3WZBGHD8REDDRYI3KMN,2014,030000.jpg,8,60,live
1255,A3JAJIWXVELPTK:35LDD5557CB3WZBGHD8REDDRYI3KMN,2102,118166.jpg,8,61,live
1256,A3JAJIWXVELPTK:35LDD5557CB3WZBGHD8REDDRYI3KMN,1900,144010.jpg,8,62,live
1257,A3JAJIWXVELPTK:35LDD5557CB3WZBGHD8REDDRYI3KMN,3054,120726.jpg,8,63,live
1258,A3JAJIWXVELPTK:35LDD5557CB3WZBGHD8REDDRYI3KMN,1822,057518.jpg,8,64,live
1259,A3JAJIWXVELPTK:35LDD5557CB3WZBGHD8REDDRYI3KMN,2364,164278.jpg,9,65,live
1260,A3JAJIWXVELPTK:35LDD5557CB3WZBGHD8REDDRYI3KMN,2410,121737.jpg,8,67,live
1261,A3JAJIWXVELPTK:35LDD5557CB3WZBGHD8REDDRYI3KMN,2052,059217.jpg,9,68,live
1262,A3JAJIWXVELPTK:35LDD5557CB3WZBGHD8REDDRYI3KMN,2311,141075.jpg,8,69,live
1263,A3JAJIWXVELPTK:35LDD5557CB3WZBGHD8REDDRYI3KMN,2852,060174.jpg,7,70,live
1264,A3JAJIWXVELPTK:35LDD5557CB3WZBGHD8REDDRYI3KMN,2748,104401.jpg,8,71,live
1265,A3JAJIWXVELPTK:35LDD5557CB3WZBGHD8REDDRYI3KMN,2236,112278.jpg,8,72,live
1266,A3JAJIWXVELPTK:35LDD5557CB3WZBGHD8REDDRYI3KMN,3085,054267.jpg,7,73,live
1267,A3JAJIWXVELPTK:35LDD5557CB3WZBGHD8REDDRYI3KMN,2021,014755.jpg,8,74,live
1268,A3JAJIWXVELPTK:35LDD5557CB3WZBGHD8REDDRYI3KMN,2446,039990.jpg,8,75,live
1269,A3JAJIWXVELPTK:35LDD5557CB3WZBGHD8REDDRYI3KMN,2023,012925.jpg,9,76,live
1270,A3JAJIWXVELPTK:35LDD5557CB3WZBGHD8REDDRYI3KMN,1708,198632.jpg,7,78,live
1271,A3JAJIWXVELPTK:35LDD5557CB3WZBGHD8REDDRYI3KMN,1741,156121.jpg,8,79,live
1272,A3JAJIWXVELPTK:35LDD5557CB3WZBGHD8REDDRYI3KMN,1773,035508.jpg,7,80,live
1273,A3JAJIWXVELPTK:35LDD5557CB3WZBGHD8REDDRYI3KMN,1965,017238.jpg,8,81,live
1274,A3JAJIWXVELPTK:35LDD5557CB3WZBGHD8REDDRYI3KMN,1483,050455.jpg,7,82,live
1275,A3JAJIWXVELPTK:35LDD5557CB3WZBGHD8REDDRYI3KMN,2470,035590.jpg,8,83,live
1276,A3JAJIWXVELPTK:35LDD5557CB3WZBGHD8REDDRYI3KMN,1869,069359.jpg,8,84,live
1277,A3JAJIWXVELPTK:35LDD5557CB3WZBGHD8REDDRYI3KMN,2164,121110.jpg,8,85,live
1278,A3JAJIWXVELPTK:35LDD5557CB3WZBGHD8REDDRYI3KMN,2773,043287.jpg,8,86,live
1279,A3JAJIWXVELPTK:35LDD5557CB3WZBGHD8REDDRYI3KMN,2878,014755.jpg,8,87,live
1280,A3JAJIWXVELPTK:35LDD5557CB3WZBGHD8REDDRYI3KMN,1991,113099.jpg,7,89,live
1281,A3JAJIWXVELPTK:35LDD5557CB3WZBGHD8REDDRYI3KMN,1644,063392.jpg,8,90,live
1282,A3JAJIWXVELPTK:35LDD5557CB3WZBGHD8REDDRYI3KMN,1933,047217.jpg,8,91,live
1283,A3JAJIWXVELPTK:35LDD5557CB3WZBGHD8REDDRYI3KMN,1638,188240.jpg,7,92,live
1284,A3JAJIWXVELPTK:35LDD5557CB3WZBGHD8REDDRYI3KMN,2036,068906.jpg,8,93,live
1285,A3JAJIWXVELPTK:35LDD5557CB3WZBGHD8REDDRYI3KMN,1886,089364.jpg,7,94,live
1286,A3JAJIWXVELPTK:35LDD5557CB3WZBGHD8REDDRYI3KMN,2091,119380.jpg,8,95,live
1287,A3JAJIWXVELPTK:35LDD5557CB3WZBGHD8REDDRYI3KMN,2406,017238.jpg,7,96,live
1288,A3JAJIWXVELPTK:35LDD5557CB3WZBGHD8REDDRYI3KMN,1956,000192.jpg,8,97,live
1289,A3JAJIWXVELPTK:35LDD5557CB3WZBGHD8REDDRYI3KMN,2429,112278.jpg,7,98,live
1290,A3JAJIWXVELPTK:35LDD5557CB3WZBGHD8REDDRYI3KMN,1873,187879.jpg,8,100,live
1291,A3JAJIWXVELPTK:35LDD5557CB3WZBGHD8REDDRYI3KMN,2879,039990.jpg,8,101,live
1292,A3JAJIWXVELPTK:35LDD5557CB3WZBGHD8REDDRYI3KMN,2078,082102.jpg,8,102,live
1293,A3JAJIWXVELPTK:35LDD5557CB3WZBGHD8REDDRYI3KMN,1972,070844.jpg,8,103,live
1294,A3JAJIWXVELPTK:35LDD5557CB3WZBGHD8REDDRYI3KMN,2782,086966.jpg,7,104,live
1295,A3JAJIWXVELPTK:35LDD5557CB3WZBGHD8REDDRYI3KMN,1917,010645.jpg,8,105,live
1296,A3JAJIWXVELPTK:35LDD5557CB3WZBGHD8REDDRYI3KMN,2008,033997.jpg,8,106,live
1297,A3JAJIWXVELPTK:35LDD5557CB3WZBGHD8REDDRYI3KMN,2008,096767.jpg,8,107,live
1298,A3JAJIWXVELPTK:35LDD5557CB3WZBGHD8REDDRYI3KMN,3499,128631.jpg,7,108,live
1299,A3JAJIWXVELPTK:35LDD5557CB3WZBGHD8REDDRYI3KMN,2665,132629.jpg,7,109,live
1300,A223UBAD8S1SIB:3OB0CAO74JWCOQZMUVT5VGK6FB8YHI,3036,153098.jpg,5,1,live
1301,A223UBAD8S1SIB:3OB0CAO74JWCOQZMUVT5VGK6FB8YHI,1516,012925.jpg,4,2,live
1302,A223UBAD8S1SIB:3OB0CAO74JWCOQZMUVT5VGK6FB8YHI,1885,050455.jpg,6,3,live
1303,A223UBAD8S1SIB:3OB0CAO74JWCOQZMUVT5VGK6FB8YHI,2398,113099.jpg,4,4,live
1304,A223UBAD8S1SIB:3OB0CAO74JWCOQZMUVT5VGK6FB8YHI,1860,117478.jpg,3,5,live
1305,A223UBAD8S1SIB:3OB0CAO74JWCOQZMUVT5VGK6FB8YHI,1398,083021.jpg,5,6,live
1306,A223UBAD8S1SIB:3OB0CAO74JWCOQZMUVT5VGK6FB8YHI,1820,163887.jpg,4,7,live
1307,A223UBAD8S1SIB:3OB0CAO74JWCOQZMUVT5VGK6FB8YHI,1301,120726.jpg,5,8,live
1308,A223UBAD8S1SIB:3OB0CAO74JWCOQZMUVT5VGK6FB8YHI,2448,117478.jpg,4,9,live
1309,A223UBAD8S1SIB:3OB0CAO74JWCOQZMUVT5VGK6FB8YHI,1590,010645.jpg,6,10,live
1310,A223UBAD8S1SIB:3OB0CAO74JWCOQZMUVT5VGK6FB8YHI,2201,035508.jpg,5,12,live
1311,A223UBAD8S1SIB:3OB0CAO74JWCOQZMUVT5VGK6FB8YHI,1269,014755.jpg,6,13,live
1312,A223UBAD8S1SIB:3OB0CAO74JWCOQZMUVT5VGK6FB8YHI,2429,161526.jpg,4,14,live
