debugGEQMFL:debugSY4EBY,0,1547796015242,"{""rt"": 75735, ""trial_type"": ""instructions"", ""view_history"": ""[{\""page_index\"":0,\""viewing_time\"":36202},{\""page_index\"":1,\""viewing_time\"":9322},{\""page_index\"":2,\""viewing_time\"":30210}]"", ""task_type"": ""instruction"", ""task_payment"": 1, ""task_version"": 1, ""time_elapsed"": 75737, ""internal_node_id"": ""0.0-0.0"", ""debug_mode"": ""debug"", ""task_name"": ""attractive-gt"", ""task_unique_trial"": 10, ""trial_index"": 0}"
debugGEQMFL:debugSY4EBY,1,1547796070368,"{""rt"": 55124, ""trial_type"": ""face-likert-amanda"", ""imgName"": ""/static/images/celeba_gt_crop/attractive/177368.jpg"", ""isRepeat"": 0, ""task_payment"": 1, ""task_version"": 1, ""task_name"": ""attractive-gt"", ""time_elapsed"": 130863, ""internal_node_id"": ""0.0-1.0-0.0-0.0"", ""debug_mode"": ""debug"", ""questions"": ""[{\""prompt\"":\""<p>How attractive does this person look to you? Rate from 1-9</p>\"",\""labels\"":[\""1 <br/>Not attractive at all\"",\""2\"",\""3\"",\""4\"",\""5\"",\""6\"",\""7\"",\""8\"",\""9  <br/>Extremely attractive\""],\""required\"":true}]"", ""task_unique_trial"": 10, ""task_type"": ""face trials"", ""trial_index"": 1, ""responses"": ""{\""Q0\"":2}""}"
debugGEQMFL:debugSY4EBY,2,1547796074058,"{""rt"": 3688, ""trial_type"": ""face-likert-amanda"", ""imgName"": ""/static/images/celeba_gt_crop/attractive/067792.jpg"", ""isRepeat"": 0, ""task_payment"": 1, ""task_version"": 1, ""task_name"": ""attractive-gt"", ""time_elapsed"": 134553, ""internal_node_id"": ""0.0-1.0-0.0-1.0"", ""debug_mode"": ""debug"", ""questions"": ""[{\""prompt\"":\""<p>How attractive does this person look to you? Rate from 1-9</p>\"",\""labels\"":[\""1 <br/>Not attractive at all\"",\""2\"",\""3\"",\""4\"",\""5\"",\""6\"",\""7\"",\""8\"",\""9  <br/>Extremely attractive\""],\""required\"":true}]"", ""task_unique_trial"": 10, ""task_type"": ""face trials"", ""trial_index"": 2, ""responses"": ""{\""Q0\"":6}""}"
debugGEQMFL:debugSY4EBY,3,1547796077351,"{""rt"": 3291, ""trial_type"": ""face-likert-amanda"", ""imgName"": ""/static/images/celeba_gt_crop/attractive/180966.jpg"", ""isRepeat"": 0, ""task_payment"": 1, ""task_version"": 1, ""task_name"": ""attractive-gt"", ""time_elapsed"": 137846, ""internal_node_id"": ""0.0-1.0-0.0-2.0"", ""debug_mode"": ""debug"", ""questions"": ""[{\""prompt\"":\""<p>How attractive does this person look to you? Rate from 1-9</p>\"",\""labels\"":[\""1 <br/>Not attractive at all\"",\""2\"",\""3\"",\""4\"",\""5\"",\""6\"",\""7\"",\""8\"",\""9  <br/>Extremely attractive\""],\""required\"":true}]"", ""task_unique_trial"": 10, ""task_type"": ""face trials"", ""trial_index"": 3, ""responses"": ""{\""Q0\"":4}""}"
debugGEQMFL:debugSY4EBY,4,1547796079549,"{""rt"": 2195, ""trial_type"": ""face-likert-amanda"", ""imgName"": ""/static/images/celeba_gt_crop/attractive/017238.jpg"", ""isRepeat"": 0, ""task_payment"": 1, ""task_version"": 1, ""task_name"": ""attractive-gt"", ""time_elapsed"": 140043, ""internal_node_id"": ""0.0-1.0-0.0-3.0"", ""debug_mode"": ""debug"", ""questions"": ""[{\""prompt\"":\""<p>How attractive does this person look to you? Rate from 1-9</p>\"",\""labels\"":[\""1 <br/>Not attractive at all\"",\""2\"",\""3\"",\""4\"",\""5\"",\""6\"",\""7\"",\""8\"",\""9  <br/>Extremely attractive\""],\""required\"":true}]"", ""task_unique_trial"": 10, ""task_type"": ""face trials"", ""trial_index"": 4, ""responses"": ""{\""Q0\"":4}""}"
debugGEQMFL:debugSY4EBY,5,1547796082315,"{""rt"": 2766, ""trial_type"": ""face-likert-amanda"", ""imgName"": ""/static/images/celeba_gt_crop/attractive/119535.jpg"", ""isRepeat"": 0, ""task_payment"": 1, ""task_version"": 1, ""task_name"": ""attractive-gt"", ""time_elapsed"": 142810, ""internal_node_id"": ""0.0-1.0-0.0-4.0"", ""debug_mode"": ""debug"", ""questions"": ""[{\""prompt\"":\""<p>How attractive does this person look to you? Rate from 1-9</p>\"",\""labels\"":[\""1 <br/>Not attractive at all\"",\""2\"",\""3\"",\""4\"",\""5\"",\""6\"",\""7\"",\""8\"",\""9  <br/>Extremely attractive\""],\""required\"":true}]"", ""task_unique_trial"": 10, ""task_type"": ""face trials"", ""trial_index"": 5, ""responses"": ""{\""Q0\"":2}""}"
debugGEQMFL:debugSY4EBY,6,1547796084888,"{""rt"": 2570, ""trial_type"": ""face-likert-amanda"", ""imgName"": ""/static/images/celeba_gt_crop/attractive/100138.jpg"", ""isRepeat"": 0, ""task_payment"": 1, ""task_version"": 1, ""task_name"": ""attractive-gt"", ""time_elapsed"": 145383, ""internal_node_id"": ""0.0-1.0-0.0-5.0"", ""debug_mode"": ""debug"", ""questions"": ""[{\""prompt\"":\""<p>How attractive does this person look to you? Rate from 1-9</p>\"",\""labels\"":[\""1 <br/>Not attractive at all\"",\""2\"",\""3\"",\""4\"",\""5\"",\""6\"",\""7\"",\""8\"",\""9  <br/>Extremely attractive\""],\""required\"":true}]"", ""task_unique_trial"": 10, ""task_type"": ""face trials"", ""trial_index"": 6, ""responses"": ""{\""Q0\"":5}""}"
debugGEQMFL:debugSY4EBY,7,1547796088128,"{""rt"": 3239, ""trial_type"": ""face-likert-amanda"", ""imgName"": ""/static/images/celeba_gt_crop/attractive/082102.jpg"", ""isRepeat"": 0, ""task_payment"": 1, ""task_version"": 1, ""task_name"": ""attractive-gt"", ""time_elapsed"": 148623, ""internal_node_id"": ""0.0-1.0-0.0-6.0"", ""debug_mode"": ""debug"", ""questions"": ""[{\""prompt\"":\""<p>How attractive does this person look to you? Rate from 1-9</p>\"",\""labels\"":[\""1 <br/>Not attractive at all\"",\""2\"",\""3\"",\""4\"",\""5\"",\""6\"",\""7\"",\""8\"",\""9  <br/>Extremely attractive\""],\""required\"":true}]"", ""task_unique_trial"": 10, ""task_type"": ""face trials"", ""trial_index"": 7, ""responses"": ""{\""Q0\"":6}""}"
debugGEQMFL:debugSY4EBY,8,1547796091008,"{""rt"": 2879, ""trial_type"": ""face-likert-amanda"", ""imgName"": ""/static/images/celeba_gt_crop/attractive/030000.jpg"", ""isRepeat"": 0, ""task_payment"": 1, ""task_version"": 1, ""task_name"": ""attractive-gt"", ""time_elapsed"": 151503, ""internal_node_id"": ""0.0-1.0-0.0-7.0"", ""debug_mode"": ""debug"", ""questions"": ""[{\""prompt\"":\""<p>How attractive does this person look to you? Rate from 1-9</p>\"",\""labels\"":[\""1 <br/>Not attractive at all\"",\""2\"",\""3\"",\""4\"",\""5\"",\""6\"",\""7\"",\""8\"",\""9  <br/>Extremely attractive\""],\""required\"":true}]"", ""task_unique_trial"": 10, ""task_type"": ""face trials"", ""trial_index"": 8, ""responses"": ""{\""Q0\"":3}""}"
debugGEQMFL:debugSY4EBY,9,1547796093513,"{""rt"": 2504, ""trial_type"": ""face-likert-amanda"", ""imgName"": ""/static/images/celeba_gt_crop/attractive/050455.jpg"", ""isRepeat"": 0, ""task_payment"": 1, ""task_version"": 1, ""task_name"": ""attractive-gt"", ""time_elapsed"": 154008, ""internal_node_id"": ""0.0-1.0-0.0-8.0"", ""debug_mode"": ""debug"", ""questions"": ""[{\""prompt\"":\""<p>How attractive does this person look to you? Rate from 1-9</p>\"",\""labels\"":[\""1 <br/>Not attractive at all\"",\""2\"",\""3\"",\""4\"",\""5\"",\""6\"",\""7\"",\""8\"",\""9  <br/>Extremely attractive\""],\""required\"":true}]"", ""task_unique_trial"": 10, ""task_type"": ""face trials"", ""trial_index"": 9, ""responses"": ""{\""Q0\"":1}""}"
debugGEQMFL:debugSY4EBY,10,1547796095674,"{""rt"": 2159, ""trial_type"": ""face-likert-amanda"", ""imgName"": ""/static/images/celeba_gt_crop/attractive/115789.jpg"", ""isRepeat"": 0, ""task_payment"": 1, ""task_version"": 1, ""task_name"": ""attractive-gt"", ""time_elapsed"": 156169, ""internal_node_id"": ""0.0-1.0-0.0-9.0"", ""debug_mode"": ""debug"", ""questions"": ""[{\""prompt\"":\""<p>How attractive does this person look to you? Rate from 1-9</p>\"",\""labels\"":[\""1 <br/>Not attractive at all\"",\""2\"",\""3\"",\""4\"",\""5\"",\""6\"",\""7\"",\""8\"",\""9  <br/>Extremely attractive\""],\""required\"":true}]"", ""task_unique_trial"": 10, ""task_type"": ""face trials"", ""trial_index"": 10, ""responses"": ""{\""Q0\"":6}""}"
debugGEQMFL:debugSY4EBY,11,1547796097177,"{""rt"": null, ""trial_type"": ""html-keyboard-response"", ""task_unique_trial"": 10, ""stimulus"": ""<p>Good job!</p>"", ""task_version"": 1, ""time_elapsed"": 157672, ""task_payment"": 1, ""internal_node_id"": ""0.0-1.0-1.0"", ""debug_mode"": ""debug"", ""key_press"": null, ""task_name"": ""attractive-gt"", ""trial_index"": 11}"
debugGEQMFL:debugSY4EBY,12,1547796102183,"{""rt"": null, ""trial_type"": ""html-keyboard-response"", ""task_unique_trial"": 10, ""stimulus"": ""<p>Rest for 5 seconds! :)</p>"", ""task_version"": 1, ""time_elapsed"": 162678, ""task_payment"": 1, ""internal_node_id"": ""0.0-2.0"", ""debug_mode"": ""debug"", ""key_press"": null, ""task_name"": ""attractive-gt"", ""trial_index"": 12}"
debugGEQMFL:debugSY4EBY,13,1547796105370,"{""rt"": 3186, ""trial_type"": ""face-likert-amanda"", ""imgName"": ""/static/images/celeba_gt_crop/attractive/100138.jpg"", ""isRepeat"": 1, ""task_payment"": 1, ""task_version"": 1, ""task_name"": ""attractive-gt"", ""time_elapsed"": 165865, ""internal_node_id"": ""0.0-3.0-0.0-0.0"", ""debug_mode"": ""debug"", ""questions"": ""[{\""prompt\"":\""<p>How attractive does this person look to you? Rate from 1-9</p>\"",\""labels\"":[\""1 <br/>Not attractive at all\"",\""2\"",\""3\"",\""4\"",\""5\"",\""6\"",\""7\"",\""8\"",\""9  <br/>Extremely attractive\""],\""required\"":true}]"", ""task_unique_trial"": 10, ""task_type"": ""face trials"", ""trial_index"": 13, ""responses"": ""{\""Q0\"":5}""}"
debugGEQMFL:debugSY4EBY,14,1547796109451,"{""rt"": 4079, ""trial_type"": ""face-likert-amanda"", ""imgName"": ""/static/images/celeba_gt_crop/attractive/180966.jpg"", ""isRepeat"": 1, ""task_payment"": 1, ""task_version"": 1, ""task_name"": ""attractive-gt"", ""time_elapsed"": 169946, ""internal_node_id"": ""0.0-3.0-0.0-1.0"", ""debug_mode"": ""debug"", ""questions"": ""[{\""prompt\"":\""<p>How attractive does this person look to you? Rate from 1-9</p>\"",\""labels\"":[\""1 <br/>Not attractive at all\"",\""2\"",\""3\"",\""4\"",\""5\"",\""6\"",\""7\"",\""8\"",\""9  <br/>Extremely attractive\""],\""required\"":true}]"", ""task_unique_trial"": 10, ""task_type"": ""face trials"", ""trial_index"": 14, ""responses"": ""{\""Q0\"":4}""}"
debugGEQMFL:debugSY4EBY,15,1547796111851,"{""rt"": 2399, ""trial_type"": ""face-likert-amanda"", ""imgName"": ""/static/images/celeba_gt_crop/attractive/030000.jpg"", ""isRepeat"": 1, ""task_payment"": 1, ""task_version"": 1, ""task_name"": ""attractive-gt"", ""time_elapsed"": 172346, ""internal_node_id"": ""0.0-3.0-0.0-2.0"", ""debug_mode"": ""debug"", ""questions"": ""[{\""prompt\"":\""<p>How attractive does this person look to you? Rate from 1-9</p>\"",\""labels\"":[\""1 <br/>Not attractive at all\"",\""2\"",\""3\"",\""4\"",\""5\"",\""6\"",\""7\"",\""8\"",\""9  <br/>Extremely attractive\""],\""required\"":true}]"", ""task_unique_trial"": 10, ""task_type"": ""face trials"", ""trial_index"": 15, ""responses"": ""{\""Q0\"":2}""}"
debugGEQMFL:debugSY4EBY,16,1547796114004,"{""rt"": 2152, ""trial_type"": ""face-likert-amanda"", ""imgName"": ""/static/images/celeba_gt_crop/attractive/115789.jpg"", ""isRepeat"": 1, ""task_payment"": 1, ""task_version"": 1, ""task_name"": ""attractive-gt"", ""time_elapsed"": 174499, ""internal_node_id"": ""0.0-3.0-0.0-3.0"", ""debug_mode"": ""debug"", ""questions"": ""[{\""prompt\"":\""<p>How attractive does this person look to you? Rate from 1-9</p>\"",\""labels\"":[\""1 <br/>Not attractive at all\"",\""2\"",\""3\"",\""4\"",\""5\"",\""6\"",\""7\"",\""8\"",\""9  <br/>Extremely attractive\""],\""required\"":true}]"", ""task_unique_trial"": 10, ""task_type"": ""face trials"", ""trial_index"": 16, ""responses"": ""{\""Q0\"":6}""}"
debugGEQMFL:debugSY4EBY,17,1547796116321,"{""rt"": 2317, ""trial_type"": ""face-likert-amanda"", ""imgName"": ""/static/images/celeba_gt_crop/attractive/017238.jpg"", ""isRepeat"": 1, ""task_payment"": 1, ""task_version"": 1, ""task_name"": ""attractive-gt"", ""time_elapsed"": 176816, ""internal_node_id"": ""0.0-3.0-0.0-4.0"", ""debug_mode"": ""debug"", ""questions"": ""[{\""prompt\"":\""<p>How attractive does this person look to you? Rate from 1-9</p>\"",\""labels\"":[\""1 <br/>Not attractive at all\"",\""2\"",\""3\"",\""4\"",\""5\"",\""6\"",\""7\"",\""8\"",\""9  <br/>Extremely attractive\""],\""required\"":true}]"", ""task_unique_trial"": 10, ""task_type"": ""face trials"", ""trial_index"": 17, ""responses"": ""{\""Q0\"":5}""}"
debugGEQMFL:debugSY4EBY,18,1547796121398,"{""rt"": 5076, ""trial_type"": ""face-likert-amanda"", ""imgName"": ""/static/images/celeba_gt_crop/attractive/177368.jpg"", ""isRepeat"": 1, ""task_payment"": 1, ""task_version"": 1, ""task_name"": ""attractive-gt"", ""time_elapsed"": 181893, ""internal_node_id"": ""0.0-3.0-0.0-5.0"", ""debug_mode"": ""debug"", ""questions"": ""[{\""prompt\"":\""<p>How attractive does this person look to you? Rate from 1-9</p>\"",\""labels\"":[\""1 <br/>Not attractive at all\"",\""2\"",\""3\"",\""4\"",\""5\"",\""6\"",\""7\"",\""8\"",\""9  <br/>Extremely attractive\""],\""required\"":true}]"", ""task_unique_trial"": 10, ""task_type"": ""face trials"", ""trial_index"": 18, ""responses"": ""{\""Q0\"":5}""}"
debugGEQMFL:debugSY4EBY,19,1547796123454,"{""rt"": 2053, ""trial_type"": ""face-likert-amanda"", ""imgName"": ""/static/images/celeba_gt_crop/attractive/050455.jpg"", ""isRepeat"": 1, ""task_payment"": 1, ""task_version"": 1, ""task_name"": ""attractive-gt"", ""time_elapsed"": 183949, ""internal_node_id"": ""0.0-3.0-0.0-6.0"", ""debug_mode"": ""debug"", ""questions"": ""[{\""prompt\"":\""<p>How attractive does this person look to you? Rate from 1-9</p>\"",\""labels\"":[\""1 <br/>Not attractive at all\"",\""2\"",\""3\"",\""4\"",\""5\"",\""6\"",\""7\"",\""8\"",\""9  <br/>Extremely attractive\""],\""required\"":true}]"", ""task_unique_trial"": 10, ""task_type"": ""face trials"", ""trial_index"": 19, ""responses"": ""{\""Q0\"":3}""}"
debugGEQMFL:debugSY4EBY,20,1547796126460,"{""rt"": 3005, ""trial_type"": ""face-likert-amanda"", ""imgName"": ""/static/images/celeba_gt_crop/attractive/082102.jpg"", ""isRepeat"": 1, ""task_payment"": 1, ""task_version"": 1, ""task_name"": ""attractive-gt"", ""time_elapsed"": 186955, ""internal_node_id"": ""0.0-3.0-0.0-7.0"", ""debug_mode"": ""debug"", ""questions"": ""[{\""prompt\"":\""<p>How attractive does this person look to you? Rate from 1-9</p>\"",\""labels\"":[\""1 <br/>Not attractive at all\"",\""2\"",\""3\"",\""4\"",\""5\"",\""6\"",\""7\"",\""8\"",\""9  <br/>Extremely attractive\""],\""required\"":true}]"", ""task_unique_trial"": 10, ""task_type"": ""face trials"", ""trial_index"": 20, ""responses"": ""{\""Q0\"":6}""}"
debugGEQMFL:debugSY4EBY,21,1547796129588,"{""rt"": 3126, ""trial_type"": ""face-likert-amanda"", ""imgName"": ""/static/images/celeba_gt_crop/attractive/119535.jpg"", ""isRepeat"": 1, ""task_payment"": 1, ""task_version"": 1, ""task_name"": ""attractive-gt"", ""time_elapsed"": 190083, ""internal_node_id"": ""0.0-3.0-0.0-8.0"", ""debug_mode"": ""debug"", ""questions"": ""[{\""prompt\"":\""<p>How attractive does this person look to you? Rate from 1-9</p>\"",\""labels\"":[\""1 <br/>Not attractive at all\"",\""2\"",\""3\"",\""4\"",\""5\"",\""6\"",\""7\"",\""8\"",\""9  <br/>Extremely attractive\""],\""required\"":true}]"", ""task_unique_trial"": 10, ""task_type"": ""face trials"", ""trial_index"": 21, ""responses"": ""{\""Q0\"":2}""}"
debugGEQMFL:debugSY4EBY,22,1547796132430,"{""rt"": 2840, ""trial_type"": ""face-likert-amanda"", ""imgName"": ""/static/images/celeba_gt_crop/attractive/067792.jpg"", ""isRepeat"": 1, ""task_payment"": 1, ""task_version"": 1, ""task_name"": ""attractive-gt"", ""time_elapsed"": 192925, ""internal_node_id"": ""0.0-3.0-0.0-9.0"", ""debug_mode"": ""debug"", ""questions"": ""[{\""prompt\"":\""<p>How attractive does this person look to you? Rate from 1-9</p>\"",\""labels\"":[\""1 <br/>Not attractive at all\"",\""2\"",\""3\"",\""4\"",\""5\"",\""6\"",\""7\"",\""8\"",\""9  <br/>Extremely attractive\""],\""required\"":true}]"", ""task_unique_trial"": 10, ""task_type"": ""face trials"", ""trial_index"": 22, ""responses"": ""{\""Q0\"":6}""}"
debugGEQMFL:debugSY4EBY,23,1547796134434,"{""rt"": null, ""trial_type"": ""html-keyboard-response"", ""task_unique_trial"": 10, ""stimulus"": ""<p>Good job!</p>"", ""task_version"": 1, ""time_elapsed"": 194929, ""task_payment"": 1, ""internal_node_id"": ""0.0-3.0-1.0"", ""debug_mode"": ""debug"", ""key_press"": null, ""task_name"": ""attractive-gt"", ""trial_index"": 23}"
debugGEQMFL:debugSY4EBY,24,1547796185118,"{""rt"": 48568, ""trial_type"": ""survey-multi-choice"", ""task_type"": ""demographic-multichoice"", ""responses"": ""{\""Q0\"":\""36-45\"",\""Q1\"":\""Male\"",\""Q2\"":\""\"",\""Q3\"":\""1\"",\""Q4\"":\""Black or African-American\"",\""Q5\"":\""Associate degree (e.g. AA, AS)\"",\""Q6\"":\""Less than $20,000\""}"", ""task_payment"": 1, ""task_version"": 1, ""random_num"": 3, ""sanity_check_1_continue"": false, ""time_elapsed"": 243507, ""internal_node_id"": ""0.0-4.0-0.0"", ""debug_mode"": ""debug"", ""questions"": ""[{\""prompt\"":\""What is your age?\"",\""options\"":[\""Under 18\"",\""18-25\"",\""26-35\"",\""36-45\"",\""46-55\"",\""56+\""],\""required\"":false},{\""prompt\"":\""What is your gender?\"",\""options\"":[\""Male\"",\""Female\"",\""Other/Prefer not to say\""],\""required\"":false},{\""prompt\"":\""Are you of Hispanic, Latino, or Spanish origin?\"",\""options\"":[\""Yes\"",\""No\""],\""required\"":false},{\""prompt\"":\""Please choose the option that match the number here: 3\"",\""options\"":[\""1\"",\""2\"",\""3\"",\""4\""],\""required\"":true},{\""prompt\"":\""How would you describe yourself?\"",\""options\"":[\""American Indian or Alaskan Native\"",\""Asian\"",\""Black or African-American\"",\""Native Hawaiian or Other Pacific Islander\"",\""White\""],\""required\"":false},{\""prompt\"":\""What is the highest degree or level of school you have completed? (If you&#8217;re currently enrolled in school, please indicate the highest degree you have received)\"",\""options\"":[\""Less than a high school diploma\"",\""High school degree or equivalent (e.g. GED)\"",\""Some college, no degree\"",\""Associate degree (e.g. AA, AS)\"",\""Bachelor&#8217;s degree (e.g. BA, BS)\"",\""Professional or post-baccalauriate degree\""],\""required\"":false},{\""prompt\"":\""What is the total income of all members of your household?\"",\""options\"":[\""Less than $20,000\"",\""$20,000 - $34,999\"",\""$35,000 - $49,999\"",\""$50,000 - $74,999\"",\""$75,000 - $99,999\"",\""Over $100,000\""],\""required\"":false}]"", ""task_unique_trial"": 10, ""task_name"": ""attractive-gt"", ""trial_index"": 24}"
debugGEQMFL:debugSY4EBY,25,1547796191186,"{""rt"": 6058, ""trial_type"": ""survey-multi-choice"", ""task_type"": ""demographic-multichoice"", ""responses"": ""{\""Q0\"":\""\"",\""Q1\"":\""\"",\""Q2\"":\""\"",\""Q3\"":\""3\"",\""Q4\"":\""\"",\""Q5\"":\""\"",\""Q6\"":\""$20,000 - $34,999\""}"", ""task_payment"": 1, ""task_version"": 1, ""random_num"": 3, ""sanity_check_1_continue"": true, ""time_elapsed"": 251681, ""internal_node_id"": ""0.0-4.1-0.1"", ""debug_mode"": ""debug"", ""questions"": ""[{\""prompt\"":\""What is your age?\"",\""options\"":[\""Under 18\"",\""18-25\"",\""26-35\"",\""36-45\"",\""46-55\"",\""56+\""],\""required\"":false},{\""prompt\"":\""What is your gender?\"",\""options\"":[\""Male\"",\""Female\"",\""Other/Prefer not to say\""],\""required\"":false},{\""prompt\"":\""Are you of Hispanic, Latino, or Spanish origin?\"",\""options\"":[\""Yes\"",\""No\""],\""required\"":false},{\""prompt\"":\""Please choose the option that match the number here: 3\"",\""options\"":[\""1\"",\""2\"",\""3\"",\""4\""],\""required\"":true},{\""prompt\"":\""How would you describe yourself?\"",\""options\"":[\""American Indian or Alaskan Native\"",\""Asian\"",\""Black or African-American\"",\""Native Hawaiian or Other Pacific Islander\"",\""White\""],\""required\"":false},{\""prompt\"":\""What is the highest degree or level of school you have completed? (If you&#8217;re currently enrolled in school, please indicate the highest degree you have received)\"",\""options\"":[\""Less than a high school diploma\"",\""High school degree or equivalent (e.g. GED)\"",\""Some college, no degree\"",\""Associate degree (e.g. AA, AS)\"",\""Bachelor&#8217;s degree (e.g. BA, BS)\"",\""Professional or post-baccalauriate degree\""],\""required\"":false},{\""prompt\"":\""What is the total income of all members of your household?\"",\""options\"":[\""Less than $20,000\"",\""$20,000 - $34,999\"",\""$35,000 - $49,999\"",\""$50,000 - $74,999\"",\""$75,000 - $99,999\"",\""Over $100,000\""],\""required\"":false}]"", ""task_unique_trial"": 10, ""task_name"": ""attractive-gt"", ""trial_index"": 25}"
debugGEQMFL:debugSY4EBY,26,1547796193571,"{""rt"": 2380, ""trial_type"": ""survey-text-req"", ""task_type"": ""demographics_location"", ""responses"": ""{\""Q0\"":\""\"",\""Q1\"":\""\"",\""Q2\"":\""\""}"", ""task_payment"": 1, ""task_version"": 1, ""time_elapsed"": 254066, ""internal_node_id"": ""0.0-5.0"", ""debug_mode"": ""debug"", ""task_name"": ""attractive-gt"", ""task_unique_trial"": 10, ""trial_index"": 26}"
debugGEQMFL:debugSY4EBY,27,1547796505745,"{""rt"": 67372, ""trial_type"": ""instructions"", ""view_history"": ""[{\""page_index\"":0,\""viewing_time\"":9742},{\""page_index\"":1,\""viewing_time\"":47654},{\""page_index\"":2,\""viewing_time\"":3526},{\""page_index\"":1,\""viewing_time\"":973},{\""page_index\"":0,\""viewing_time\"":3647},{\""page_index\"":1,\""viewing_time\"":713},{\""page_index\"":2,\""viewing_time\"":1116}]"", ""task_type"": ""instruction"", ""task_payment"": 1, ""task_version"": 1, ""internal_node_id"": ""0.0-0.0"", ""time_elapsed"": 67374, ""debug_mode"": ""debug"", ""task_name"": ""attractive-gt"", ""task_unique_trial"": 100, ""trial_index"": 0}"
debugGEQMFL:debugSY4EBY,28,1547796509991,"{""rt"": 4244, ""trial_type"": ""face-likert-amanda"", ""debug_mode"": ""debug"", ""task_type"": ""face trials"", ""responses"": ""{\""Q0\"":6}"", ""task_payment"": 1, ""task_version"": 1, ""internal_node_id"": ""0.0-1.0-0.0-0.0"", ""time_elapsed"": 71620, ""imgName"": ""/static/images/celeba_gt_crop/attractive/128631.jpg"", ""questions"": ""[{\""prompt\"":\""<p>How attractive does this person look? Rate from 1-9</p>\"",\""labels\"":[\""1 <br/>Not attractive at all\"",\""2\"",\""3\"",\""4\"",\""5\"",\""6\"",\""7\"",\""8\"",\""9  <br/>Extremely attractive\""],\""required\"":true}]"", ""task_unique_trial"": 100, ""task_name"": ""attractive-gt"", ""trial_index"": 1, ""isRepeat"": 0}"
debugGEQMFL:debugSY4EBY,29,1547796512263,"{""rt"": 2271, ""trial_type"": ""face-likert-amanda"", ""debug_mode"": ""debug"", ""task_type"": ""face trials"", ""responses"": ""{\""Q0\"":5}"", ""task_payment"": 1, ""task_version"": 1, ""internal_node_id"": ""0.0-1.0-0.0-1.0"", ""time_elapsed"": 73892, ""imgName"": ""/static/images/celeba_gt_crop/attractive/067760.jpg"", ""questions"": ""[{\""prompt\"":\""<p>How attractive does this person look? Rate from 1-9</p>\"",\""labels\"":[\""1 <br/>Not attractive at all\"",\""2\"",\""3\"",\""4\"",\""5\"",\""6\"",\""7\"",\""8\"",\""9  <br/>Extremely attractive\""],\""required\"":true}]"", ""task_unique_trial"": 100, ""task_name"": ""attractive-gt"", ""trial_index"": 2, ""isRepeat"": 0}"
debugGEQMFL:debugSY4EBY,30,1547796515841,"{""rt"": 3575, ""trial_type"": ""face-likert-amanda"", ""debug_mode"": ""debug"", ""task_type"": ""face trials"", ""responses"": ""{\""Q0\"":4}"", ""task_payment"": 1, ""task_version"": 1, ""internal_node_id"": ""0.0-1.0-0.0-2.0"", ""time_elapsed"": 77470, ""imgName"": ""/static/images/celeba_gt_crop/attractive/054267.jpg"", ""questions"": ""[{\""prompt\"":\""<p>How attractive does this person look? Rate from 1-9</p>\"",\""labels\"":[\""1 <br/>Not attractive at all\"",\""2\"",\""3\"",\""4\"",\""5\"",\""6\"",\""7\"",\""8\"",\""9  <br/>Extremely attractive\""],\""required\"":true}]"", ""task_unique_trial"": 100, ""task_name"": ""attractive-gt"", ""trial_index"": 3, ""isRepeat"": 0}"
debugGEQMFL:debugSY4EBY,31,1547796518443,"{""rt"": 2601, ""trial_type"": ""face-likert-amanda"", ""debug_mode"": ""debug"", ""task_type"": ""face trials"", ""responses"": ""{\""Q0\"":1}"", ""task_payment"": 1, ""task_version"": 1, ""internal_node_id"": ""0.0-1.0-0.0-3.0"", ""time_elapsed"": 80072, ""imgName"": ""/static/images/celeba_gt_crop/attractive/148453.jpg"", ""questions"": ""[{\""prompt\"":\""<p>How attractive does this person look? Rate from 1-9</p>\"",\""labels\"":[\""1 <br/>Not attractive at all\"",\""2\"",\""3\"",\""4\"",\""5\"",\""6\"",\""7\"",\""8\"",\""9  <br/>Extremely attractive\""],\""required\"":true}]"", ""task_unique_trial"": 100, ""task_name"": ""attractive-gt"", ""trial_index"": 4, ""isRepeat"": 0}"
debugGEQMFL:debugSY4EBY,32,1547796520528,"{""rt"": 2083, ""trial_type"": ""face-likert-amanda"", ""debug_mode"": ""debug"", ""task_type"": ""face trials"", ""responses"": ""{\""Q0\"":5}"", ""task_payment"": 1, ""task_version"": 1, ""internal_node_id"": ""0.0-1.0-0.0-4.0"", ""time_elapsed"": 82157, ""imgName"": ""/static/images/celeba_gt_crop/attractive/118166.jpg"", ""questions"": ""[{\""prompt\"":\""<p>How attractive does this person look? Rate from 1-9</p>\"",\""labels\"":[\""1 <br/>Not attractive at all\"",\""2\"",\""3\"",\""4\"",\""5\"",\""6\"",\""7\"",\""8\"",\""9  <br/>Extremely attractive\""],\""required\"":true}]"", ""task_unique_trial"": 100, ""task_name"": ""attractive-gt"", ""trial_index"": 5, ""isRepeat"": 0}"
debugGEQMFL:debugSY4EBY,33,1547796523063,"{""rt"": 2534, ""trial_type"": ""face-likert-amanda"", ""debug_mode"": ""debug"", ""task_type"": ""face trials"", ""responses"": ""{\""Q0\"":2}"", ""task_payment"": 1, ""task_version"": 1, ""internal_node_id"": ""0.0-1.0-0.0-5.0"", ""time_elapsed"": 84692, ""imgName"": ""/static/images/celeba_gt_crop/attractive/063392.jpg"", ""questions"": ""[{\""prompt\"":\""<p>How attractive does this person look? Rate from 1-9</p>\"",\""labels\"":[\""1 <br/>Not attractive at all\"",\""2\"",\""3\"",\""4\"",\""5\"",\""6\"",\""7\"",\""8\"",\""9  <br/>Extremely attractive\""],\""required\"":true}]"", ""task_unique_trial"": 100, ""task_name"": ""attractive-gt"", ""trial_index"": 6, ""isRepeat"": 0}"
debugGEQMFL:debugSY4EBY,34,1547796525425,"{""rt"": 2361, ""trial_type"": ""face-likert-amanda"", ""debug_mode"": ""debug"", ""task_type"": ""face trials"", ""responses"": ""{\""Q0\"":5}"", ""task_payment"": 1, ""task_version"": 1, ""internal_node_id"": ""0.0-1.0-0.0-6.0"", ""time_elapsed"": 87054, ""imgName"": ""/static/images/celeba_gt_crop/attractive/132629.jpg"", ""questions"": ""[{\""prompt\"":\""<p>How attractive does this person look? Rate from 1-9</p>\"",\""labels\"":[\""1 <br/>Not attractive at all\"",\""2\"",\""3\"",\""4\"",\""5\"",\""6\"",\""7\"",\""8\"",\""9  <br/>Extremely attractive\""],\""required\"":true}]"", ""task_unique_trial"": 100, ""task_name"": ""attractive-gt"", ""trial_index"": 7, ""isRepeat"": 0}"
debugGEQMFL:debugSY4EBY,35,1547796527421,"{""rt"": 1992, ""trial_type"": ""face-likert-amanda"", ""debug_mode"": ""debug"", ""task_type"": ""face trials"", ""responses"": ""{\""Q0\"":6}"", ""task_payment"": 1, ""task_version"": 1, ""internal_node_id"": ""0.0-1.0-0.0-7.0"", ""time_elapsed"": 89050, ""imgName"": ""/static/images/celeba_gt_crop/attractive/060174.jpg"", ""questions"": ""[{\""prompt\"":\""<p>How attractive does this person look? Rate from 1-9</p>\"",\""labels\"":[\""1 <br/>Not attractive at all\"",\""2\"",\""3\"",\""4\"",\""5\"",\""6\"",\""7\"",\""8\"",\""9  <br/>Extremely attractive\""],\""required\"":true}]"", ""task_unique_trial"": 100, ""task_name"": ""attractive-gt"", ""trial_index"": 8, ""isRepeat"": 0}"
debugGEQMFL:debugSY4EBY,36,1547796530172,"{""rt"": 2751, ""trial_type"": ""face-likert-amanda"", ""debug_mode"": ""debug"", ""task_type"": ""face trials"", ""responses"": ""{\""Q0\"":7}"", ""task_payment"": 1, ""task_version"": 1, ""internal_node_id"": ""0.0-1.0-0.0-8.0"", ""time_elapsed"": 91801, ""imgName"": ""/static/images/celeba_gt_crop/attractive/000192.jpg"", ""questions"": ""[{\""prompt\"":\""<p>How attractive does this person look? Rate from 1-9</p>\"",\""labels\"":[\""1 <br/>Not attractive at all\"",\""2\"",\""3\"",\""4\"",\""5\"",\""6\"",\""7\"",\""8\"",\""9  <br/>Extremely attractive\""],\""required\"":true}]"", ""task_unique_trial"": 100, ""task_name"": ""attractive-gt"", ""trial_index"": 9, ""isRepeat"": 0}"
debugGEQMFL:debugSY4EBY,37,1547796534927,"{""rt"": 4753, ""trial_type"": ""face-likert-amanda"", ""debug_mode"": ""debug"", ""task_type"": ""face trials"", ""responses"": ""{\""Q0\"":4}"", ""task_payment"": 1, ""task_version"": 1, ""internal_node_id"": ""0.0-1.0-0.0-9.0"", ""time_elapsed"": 96556, ""imgName"": ""/static/images/celeba_gt_crop/attractive/141059.jpg"", ""questions"": ""[{\""prompt\"":\""<p>How attractive does this person look? Rate from 1-9</p>\"",\""labels\"":[\""1 <br/>Not attractive at all\"",\""2\"",\""3\"",\""4\"",\""5\"",\""6\"",\""7\"",\""8\"",\""9  <br/>Extremely attractive\""],\""required\"":true}]"", ""task_unique_trial"": 100, ""task_name"": ""attractive-gt"", ""trial_index"": 10, ""isRepeat"": 0}"
debugGEQMFL:debugSY4EBY,38,1547796536435,"{""rt"": null, ""trial_type"": ""html-keyboard-response"", ""task_unique_trial"": 100, ""stimulus"": ""<p>Good job!</p>"", ""task_version"": 1, ""internal_node_id"": ""0.0-1.0-1.0"", ""task_payment"": 1, ""time_elapsed"": 98064, ""debug_mode"": ""debug"", ""key_press"": null, ""task_name"": ""attractive-gt"", ""trial_index"": 11}"
debugGEQMFL:debugSY4EBY,39,1547796543297,"{""rt"": 6861, ""trial_type"": ""face-likert-amanda"", ""debug_mode"": ""debug"", ""task_type"": ""face trials"", ""responses"": ""{\""Q0\"":8}"", ""task_payment"": 1, ""task_version"": 1, ""internal_node_id"": ""0.0-2.0-0.0-0.0"", ""time_elapsed"": 104926, ""imgName"": ""/static/images/celeba_gt_crop/attractive/054808.jpg"", ""questions"": ""[{\""prompt\"":\""<p>How attractive does this person look? Rate from 1-9</p>\"",\""labels\"":[\""1 <br/>Not attractive at all\"",\""2\"",\""3\"",\""4\"",\""5\"",\""6\"",\""7\"",\""8\"",\""9  <br/>Extremely attractive\""],\""required\"":true}]"", ""task_unique_trial"": 100, ""task_name"": ""attractive-gt"", ""trial_index"": 12, ""isRepeat"": 0}"
debugGEQMFL:debugSY4EBY,40,1547796546395,"{""rt"": 3095, ""trial_type"": ""face-likert-amanda"", ""debug_mode"": ""debug"", ""task_type"": ""face trials"", ""responses"": ""{\""Q0\"":6}"", ""task_payment"": 1, ""task_version"": 1, ""internal_node_id"": ""0.0-2.0-0.0-1.0"", ""time_elapsed"": 108024, ""imgName"": ""/static/images/celeba_gt_crop/attractive/163887.jpg"", ""questions"": ""[{\""prompt\"":\""<p>How attractive does this person look? Rate from 1-9</p>\"",\""labels\"":[\""1 <br/>Not attractive at all\"",\""2\"",\""3\"",\""4\"",\""5\"",\""6\"",\""7\"",\""8\"",\""9  <br/>Extremely attractive\""],\""required\"":true}]"", ""task_unique_trial"": 100, ""task_name"": ""attractive-gt"", ""trial_index"": 13, ""isRepeat"": 0}"
debugGEQMFL:debugSY4EBY,41,1547796548683,"{""rt"": 2286, ""trial_type"": ""face-likert-amanda"", ""debug_mode"": ""debug"", ""task_type"": ""face trials"", ""responses"": ""{\""Q0\"":5}"", ""task_payment"": 1, ""task_version"": 1, ""internal_node_id"": ""0.0-2.0-0.0-2.0"", ""time_elapsed"": 110312, ""imgName"": ""/static/images/celeba_gt_crop/attractive/017238.jpg"", ""questions"": ""[{\""prompt\"":\""<p>How attractive does this person look? Rate from 1-9</p>\"",\""labels\"":[\""1 <br/>Not attractive at all\"",\""2\"",\""3\"",\""4\"",\""5\"",\""6\"",\""7\"",\""8\"",\""9  <br/>Extremely attractive\""],\""required\"":true}]"", ""task_unique_trial"": 100, ""task_name"": ""attractive-gt"", ""trial_index"": 14, ""isRepeat"": 0}"
debugGEQMFL:debugSY4EBY,42,1547796551354,"{""rt"": 2668, ""trial_type"": ""face-likert-amanda"", ""debug_mode"": ""debug"", ""task_type"": ""face trials"", ""responses"": ""{\""Q0\"":1}"", ""task_payment"": 1, ""task_version"": 1, ""internal_node_id"": ""0.0-2.0-0.0-3.0"", ""time_elapsed"": 112983, ""imgName"": ""/static/images/celeba_gt_crop/attractive/112278.jpg"", ""questions"": ""[{\""prompt\"":\""<p>How attractive does this person look? Rate from 1-9</p>\"",\""labels\"":[\""1 <br/>Not attractive at all\"",\""2\"",\""3\"",\""4\"",\""5\"",\""6\"",\""7\"",\""8\"",\""9  <br/>Extremely attractive\""],\""required\"":true}]"", ""task_unique_trial"": 100, ""task_name"": ""attractive-gt"", ""trial_index"": 15, ""isRepeat"": 0}"
debugGEQMFL:debugSY4EBY,43,1547796556371,"{""rt"": 5016, ""trial_type"": ""face-likert-amanda"", ""debug_mode"": ""debug"", ""task_type"": ""face trials"", ""responses"": ""{\""Q0\"":7}"", ""task_payment"": 1, ""task_version"": 1, ""internal_node_id"": ""0.0-2.0-0.0-4.0"", ""time_elapsed"": 118000, ""imgName"": ""/static/images/celeba_gt_crop/attractive/100659.jpg"", ""questions"": ""[{\""prompt\"":\""<p>How attractive does this person look? Rate from 1-9</p>\"",\""labels\"":[\""1 <br/>Not attractive at all\"",\""2\"",\""3\"",\""4\"",\""5\"",\""6\"",\""7\"",\""8\"",\""9  <br/>Extremely attractive\""],\""required\"":true}]"", ""task_unique_trial"": 100, ""task_name"": ""attractive-gt"", ""trial_index"": 16, ""isRepeat"": 0}"
debugGEQMFL:debugSY4EBY,44,1547796558403,"{""rt"": 2030, ""trial_type"": ""face-likert-amanda"", ""debug_mode"": ""debug"", ""task_type"": ""face trials"", ""responses"": ""{\""Q0\"":5}"", ""task_payment"": 1, ""task_version"": 1, ""internal_node_id"": ""0.0-2.0-0.0-5.0"", ""time_elapsed"": 120032, ""imgName"": ""/static/images/celeba_gt_crop/attractive/141075.jpg"", ""questions"": ""[{\""prompt\"":\""<p>How attractive does this person look? Rate from 1-9</p>\"",\""labels\"":[\""1 <br/>Not attractive at all\"",\""2\"",\""3\"",\""4\"",\""5\"",\""6\"",\""7\"",\""8\"",\""9  <br/>Extremely attractive\""],\""required\"":true}]"", ""task_unique_trial"": 100, ""task_name"": ""attractive-gt"", ""trial_index"": 17, ""isRepeat"": 0}"
debugGEQMFL:debugSY4EBY,45,1547796561613,"{""rt"": 3209, ""trial_type"": ""face-likert-amanda"", ""debug_mode"": ""debug"", ""task_type"": ""face trials"", ""responses"": ""{\""Q0\"":6}"", ""task_payment"": 1, ""task_version"": 1, ""internal_node_id"": ""0.0-2.0-0.0-6.0"", ""time_elapsed"": 123242, ""imgName"": ""/static/images/celeba_gt_crop/attractive/096767.jpg"", ""questions"": ""[{\""prompt\"":\""<p>How attractive does this person look? Rate from 1-9</p>\"",\""labels\"":[\""1 <br/>Not attractive at all\"",\""2\"",\""3\"",\""4\"",\""5\"",\""6\"",\""7\"",\""8\"",\""9  <br/>Extremely attractive\""],\""required\"":true}]"", ""task_unique_trial"": 100, ""task_name"": ""attractive-gt"", ""trial_index"": 18, ""isRepeat"": 0}"
debugGEQMFL:debugSY4EBY,46,1547796566007,"{""rt"": 4392, ""trial_type"": ""face-likert-amanda"", ""debug_mode"": ""debug"", ""task_type"": ""face trials"", ""responses"": ""{\""Q0\"":6}"", ""task_payment"": 1, ""task_version"": 1, ""internal_node_id"": ""0.0-2.0-0.0-7.0"", ""time_elapsed"": 127636, ""imgName"": ""/static/images/celeba_gt_crop/attractive/120726.jpg"", ""questions"": ""[{\""prompt\"":\""<p>How attractive does this person look? Rate from 1-9</p>\"",\""labels\"":[\""1 <br/>Not attractive at all\"",\""2\"",\""3\"",\""4\"",\""5\"",\""6\"",\""7\"",\""8\"",\""9  <br/>Extremely attractive\""],\""required\"":true}]"", ""task_unique_trial"": 100, ""task_name"": ""attractive-gt"", ""trial_index"": 19, ""isRepeat"": 0}"
debugGEQMFL:debugSY4EBY,47,1547796569420,"{""rt"": 3411, ""trial_type"": ""face-likert-amanda"", ""debug_mode"": ""debug"", ""task_type"": ""face trials"", ""responses"": ""{\""Q0\"":6}"", ""task_payment"": 1, ""task_version"": 1, ""internal_node_id"": ""0.0-2.0-0.0-8.0"", ""time_elapsed"": 131049, ""imgName"": ""/static/images/celeba_gt_crop/attractive/113099.jpg"", ""questions"": ""[{\""prompt\"":\""<p>How attractive does this person look? Rate from 1-9</p>\"",\""labels\"":[\""1 <br/>Not attractive at all\"",\""2\"",\""3\"",\""4\"",\""5\"",\""6\"",\""7\"",\""8\"",\""9  <br/>Extremely attractive\""],\""required\"":true}]"", ""task_unique_trial"": 100, ""task_name"": ""attractive-gt"", ""trial_index"": 20, ""isRepeat"": 0}"
debugGEQMFL:debugSY4EBY,48,1547796572082,"{""rt"": 2661, ""trial_type"": ""face-likert-amanda"", ""debug_mode"": ""debug"", ""task_type"": ""face trials"", ""responses"": ""{\""Q0\"":4}"", ""task_payment"": 1, ""task_version"": 1, ""internal_node_id"": ""0.0-2.0-0.0-9.0"", ""time_elapsed"": 133711, ""imgName"": ""/static/images/celeba_gt_crop/attractive/007128.jpg"", ""questions"": ""[{\""prompt\"":\""<p>How attractive does this person look? Rate from 1-9</p>\"",\""labels\"":[\""1 <br/>Not attractive at all\"",\""2\"",\""3\"",\""4\"",\""5\"",\""6\"",\""7\"",\""8\"",\""9  <br/>Extremely attractive\""],\""required\"":true}]"", ""task_unique_trial"": 100, ""task_name"": ""attractive-gt"", ""trial_index"": 21, ""isRepeat"": 0}"
debugGEQMFL:debugSY4EBY,49,1547796573090,"{""rt"": null, ""trial_type"": ""html-keyboard-response"", ""task_unique_trial"": 100, ""stimulus"": ""<p>Good job!</p>"", ""task_version"": 1, ""internal_node_id"": ""0.0-2.0-1.0"", ""task_payment"": 1, ""time_elapsed"": 134719, ""debug_mode"": ""debug"", ""key_press"": null, ""task_name"": ""attractive-gt"", ""trial_index"": 22}"
debugGEQMFL:debugSY4EBY,50,1547796575082,"{""rt"": 1991, ""trial_type"": ""face-likert-amanda"", ""debug_mode"": ""debug"", ""task_type"": ""face trials"", ""responses"": ""{\""Q0\"":5}"", ""task_payment"": 1, ""task_version"": 1, ""internal_node_id"": ""0.0-3.0-0.0-0.0"", ""time_elapsed"": 136711, ""imgName"": ""/static/images/celeba_gt_crop/attractive/030000.jpg"", ""questions"": ""[{\""prompt\"":\""<p>How attractive does this person look? Rate from 1-9</p>\"",\""labels\"":[\""1 <br/>Not attractive at all\"",\""2\"",\""3\"",\""4\"",\""5\"",\""6\"",\""7\"",\""8\"",\""9  <br/>Extremely attractive\""],\""required\"":true}]"", ""task_unique_trial"": 100, ""task_name"": ""attractive-gt"", ""trial_index"": 23, ""isRepeat"": 0}"
debugGEQMFL:debugSY4EBY,51,1547796577048,"{""rt"": 1964, ""trial_type"": ""face-likert-amanda"", ""debug_mode"": ""debug"", ""task_type"": ""face trials"", ""responses"": ""{\""Q0\"":6}"", ""task_payment"": 1, ""task_version"": 1, ""internal_node_id"": ""0.0-3.0-0.0-1.0"", ""time_elapsed"": 138676, ""imgName"": ""/static/images/celeba_gt_crop/attractive/084296.jpg"", ""questions"": ""[{\""prompt\"":\""<p>How attractive does this person look? Rate from 1-9</p>\"",\""labels\"":[\""1 <br/>Not attractive at all\"",\""2\"",\""3\"",\""4\"",\""5\"",\""6\"",\""7\"",\""8\"",\""9  <br/>Extremely attractive\""],\""required\"":true}]"", ""task_unique_trial"": 100, ""task_name"": ""attractive-gt"", ""trial_index"": 24, ""isRepeat"": 0}"
debugGEQMFL:debugSY4EBY,52,1547796580828,"{""rt"": 3780, ""trial_type"": ""face-likert-amanda"", ""debug_mode"": ""debug"", ""task_type"": ""face trials"", ""responses"": ""{\""Q0\"":6}"", ""task_payment"": 1, ""task_version"": 1, ""internal_node_id"": ""0.0-3.0-0.0-2.0"", ""time_elapsed"": 142457, ""imgName"": ""/static/images/celeba_gt_crop/attractive/200021.jpg"", ""questions"": ""[{\""prompt\"":\""<p>How attractive does this person look? Rate from 1-9</p>\"",\""labels\"":[\""1 <br/>Not attractive at all\"",\""2\"",\""3\"",\""4\"",\""5\"",\""6\"",\""7\"",\""8\"",\""9  <br/>Extremely attractive\""],\""required\"":true}]"", ""task_unique_trial"": 100, ""task_name"": ""attractive-gt"", ""trial_index"": 25, ""isRepeat"": 0}"
debugGEQMFL:debugSY4EBY,53,1547796583266,"{""rt"": 2436, ""trial_type"": ""face-likert-amanda"", ""debug_mode"": ""debug"", ""task_type"": ""face trials"", ""responses"": ""{\""Q0\"":7}"", ""task_payment"": 1, ""task_version"": 1, ""internal_node_id"": ""0.0-3.0-0.0-3.0"", ""time_elapsed"": 144895, ""imgName"": ""/static/images/celeba_gt_crop/attractive/092268.jpg"", ""questions"": ""[{\""prompt\"":\""<p>How attractive does this person look? Rate from 1-9</p>\"",\""labels\"":[\""1 <br/>Not attractive at all\"",\""2\"",\""3\"",\""4\"",\""5\"",\""6\"",\""7\"",\""8\"",\""9  <br/>Extremely attractive\""],\""required\"":true}]"", ""task_unique_trial"": 100, ""task_name"": ""attractive-gt"", ""trial_index"": 26, ""isRepeat"": 0}"
debugGEQMFL:debugSY4EBY,54,1547796585620,"{""rt"": 2352, ""trial_type"": ""face-likert-amanda"", ""debug_mode"": ""debug"", ""task_type"": ""face trials"", ""responses"": ""{\""Q0\"":3}"", ""task_payment"": 1, ""task_version"": 1, ""internal_node_id"": ""0.0-3.0-0.0-4.0"", ""time_elapsed"": 147249, ""imgName"": ""/static/images/celeba_gt_crop/attractive/115851.jpg"", ""questions"": ""[{\""prompt\"":\""<p>How attractive does this person look? Rate from 1-9</p>\"",\""labels\"":[\""1 <br/>Not attractive at all\"",\""2\"",\""3\"",\""4\"",\""5\"",\""6\"",\""7\"",\""8\"",\""9  <br/>Extremely attractive\""],\""required\"":true}]"", ""task_unique_trial"": 100, ""task_name"": ""attractive-gt"", ""trial_index"": 27, ""isRepeat"": 0}"
debugGEQMFL:debugSY4EBY,55,1547796588755,"{""rt"": 3134, ""trial_type"": ""face-likert-amanda"", ""debug_mode"": ""debug"", ""task_type"": ""face trials"", ""responses"": ""{\""Q0\"":5}"", ""task_payment"": 1, ""task_version"": 1, ""internal_node_id"": ""0.0-3.0-0.0-5.0"", ""time_elapsed"": 150384, ""imgName"": ""/static/images/celeba_gt_crop/attractive/035590.jpg"", ""questions"": ""[{\""prompt\"":\""<p>How attractive does this person look? Rate from 1-9</p>\"",\""labels\"":[\""1 <br/>Not attractive at all\"",\""2\"",\""3\"",\""4\"",\""5\"",\""6\"",\""7\"",\""8\"",\""9  <br/>Extremely attractive\""],\""required\"":true}]"", ""task_unique_trial"": 100, ""task_name"": ""attractive-gt"", ""trial_index"": 28, ""isRepeat"": 0}"
debugGEQMFL:debugSY4EBY,56,1547796592303,"{""rt"": 3546, ""trial_type"": ""face-likert-amanda"", ""debug_mode"": ""debug"", ""task_type"": ""face trials"", ""responses"": ""{\""Q0\"":2}"", ""task_payment"": 1, ""task_version"": 1, ""internal_node_id"": ""0.0-3.0-0.0-6.0"", ""time_elapsed"": 153932, ""imgName"": ""/static/images/celeba_gt_crop/attractive/050455.jpg"", ""questions"": ""[{\""prompt\"":\""<p>How attractive does this person look? Rate from 1-9</p>\"",\""labels\"":[\""1 <br/>Not attractive at all\"",\""2\"",\""3\"",\""4\"",\""5\"",\""6\"",\""7\"",\""8\"",\""9  <br/>Extremely attractive\""],\""required\"":true}]"", ""task_unique_trial"": 100, ""task_name"": ""attractive-gt"", ""trial_index"": 29, ""isRepeat"": 0}"
debugGEQMFL:debugSY4EBY,57,1547796594659,"{""rt"": 2354, ""trial_type"": ""face-likert-amanda"", ""debug_mode"": ""debug"", ""task_type"": ""face trials"", ""responses"": ""{\""Q0\"":1}"", ""task_payment"": 1, ""task_version"": 1, ""internal_node_id"": ""0.0-3.0-0.0-7.0"", ""time_elapsed"": 156288, ""imgName"": ""/static/images/celeba_gt_crop/attractive/102224.jpg"", ""questions"": ""[{\""prompt\"":\""<p>How attractive does this person look? Rate from 1-9</p>\"",\""labels\"":[\""1 <br/>Not attractive at all\"",\""2\"",\""3\"",\""4\"",\""5\"",\""6\"",\""7\"",\""8\"",\""9  <br/>Extremely attractive\""],\""required\"":true}]"", ""task_unique_trial"": 100, ""task_name"": ""attractive-gt"", ""trial_index"": 30, ""isRepeat"": 0}"
debugGEQMFL:debugSY4EBY,58,1547796597140,"{""rt"": 2481, ""trial_type"": ""face-likert-amanda"", ""debug_mode"": ""debug"", ""task_type"": ""face trials"", ""responses"": ""{\""Q0\"":0}"", ""task_payment"": 1, ""task_version"": 1, ""internal_node_id"": ""0.0-3.0-0.0-8.0"", ""time_elapsed"": 158769, ""imgName"": ""/static/images/celeba_gt_crop/attractive/119535.jpg"", ""questions"": ""[{\""prompt\"":\""<p>How attractive does this person look? Rate from 1-9</p>\"",\""labels\"":[\""1 <br/>Not attractive at all\"",\""2\"",\""3\"",\""4\"",\""5\"",\""6\"",\""7\"",\""8\"",\""9  <br/>Extremely attractive\""],\""required\"":true}]"", ""task_unique_trial"": 100, ""task_name"": ""attractive-gt"", ""trial_index"": 31, ""isRepeat"": 0}"
debugGEQMFL:debugSY4EBY,59,1547796599533,"{""rt"": 2390, ""trial_type"": ""face-likert-amanda"", ""debug_mode"": ""debug"", ""task_type"": ""face trials"", ""responses"": ""{\""Q0\"":7}"", ""task_payment"": 1, ""task_version"": 1, ""internal_node_id"": ""0.0-3.0-0.0-9.0"", ""time_elapsed"": 161162, ""imgName"": ""/static/images/celeba_gt_crop/attractive/160622.jpg"", ""questions"": ""[{\""prompt\"":\""<p>How attractive does this person look? Rate from 1-9</p>\"",\""labels\"":[\""1 <br/>Not attractive at all\"",\""2\"",\""3\"",\""4\"",\""5\"",\""6\"",\""7\"",\""8\"",\""9  <br/>Extremely attractive\""],\""required\"":true}]"", ""task_unique_trial"": 100, ""task_name"": ""attractive-gt"", ""trial_index"": 32, ""isRepeat"": 0}"
debugGEQMFL:debugSY4EBY,60,1547796601036,"{""rt"": null, ""trial_type"": ""html-keyboard-response"", ""task_unique_trial"": 100, ""stimulus"": ""<p>Good job!</p>"", ""task_version"": 1, ""internal_node_id"": ""0.0-3.0-1.0"", ""task_payment"": 1, ""time_elapsed"": 162664, ""debug_mode"": ""debug"", ""key_press"": null, ""task_name"": ""attractive-gt"", ""trial_index"": 33}"
debugGEQMFL:debugSY4EBY,61,1547796603133,"{""rt"": 2097, ""trial_type"": ""face-likert-amanda"", ""debug_mode"": ""debug"", ""task_type"": ""face trials"", ""responses"": ""{\""Q0\"":6}"", ""task_payment"": 1, ""task_version"": 1, ""internal_node_id"": ""0.0-4.0-0.0-0.0"", ""time_elapsed"": 164762, ""imgName"": ""/static/images/celeba_gt_crop/attractive/092268.jpg"", ""questions"": ""[{\""prompt\"":\""<p>How attractive does this person look? Rate from 1-9</p>\"",\""labels\"":[\""1 <br/>Not attractive at all\"",\""2\"",\""3\"",\""4\"",\""5\"",\""6\"",\""7\"",\""8\"",\""9  <br/>Extremely attractive\""],\""required\"":true}]"", ""task_unique_trial"": 100, ""task_name"": ""attractive-gt"", ""trial_index"": 34, ""isRepeat"": 0}"
debugGEQMFL:debugSY4EBY,62,1547796606824,"{""rt"": 3688, ""trial_type"": ""face-likert-amanda"", ""debug_mode"": ""debug"", ""task_type"": ""face trials"", ""responses"": ""{\""Q0\"":7}"", ""task_payment"": 1, ""task_version"": 1, ""internal_node_id"": ""0.0-4.0-0.0-1.0"", ""time_elapsed"": 168452, ""imgName"": ""/static/images/celeba_gt_crop/attractive/119380.jpg"", ""questions"": ""[{\""prompt\"":\""<p>How attractive does this person look? Rate from 1-9</p>\"",\""labels\"":[\""1 <br/>Not attractive at all\"",\""2\"",\""3\"",\""4\"",\""5\"",\""6\"",\""7\"",\""8\"",\""9  <br/>Extremely attractive\""],\""required\"":true}]"", ""task_unique_trial"": 100, ""task_name"": ""attractive-gt"", ""trial_index"": 35, ""isRepeat"": 0}"
debugGEQMFL:debugSY4EBY,63,1547796611968,"{""rt"": 5144, ""trial_type"": ""face-likert-amanda"", ""debug_mode"": ""debug"", ""task_type"": ""face trials"", ""responses"": ""{\""Q0\"":0}"", ""task_payment"": 1, ""task_version"": 1, ""internal_node_id"": ""0.0-4.0-0.0-2.0"", ""time_elapsed"": 173597, ""imgName"": ""/static/images/celeba_gt_crop/attractive/161526.jpg"", ""questions"": ""[{\""prompt\"":\""<p>How attractive does this person look? Rate from 1-9</p>\"",\""labels\"":[\""1 <br/>Not attractive at all\"",\""2\"",\""3\"",\""4\"",\""5\"",\""6\"",\""7\"",\""8\"",\""9  <br/>Extremely attractive\""],\""required\"":true}]"", ""task_unique_trial"": 100, ""task_name"": ""attractive-gt"", ""trial_index"": 36, ""isRepeat"": 0}"
debugGEQMFL:debugSY4EBY,64,1547796615284,"{""rt"": 3314, ""trial_type"": ""face-likert-amanda"", ""debug_mode"": ""debug"", ""task_type"": ""face trials"", ""responses"": ""{\""Q0\"":5}"", ""task_payment"": 1, ""task_version"": 1, ""internal_node_id"": ""0.0-4.0-0.0-3.0"", ""time_elapsed"": 176913, ""imgName"": ""/static/images/celeba_gt_crop/attractive/086966.jpg"", ""questions"": ""[{\""prompt\"":\""<p>How attractive does this person look? Rate from 1-9</p>\"",\""labels\"":[\""1 <br/>Not attractive at all\"",\""2\"",\""3\"",\""4\"",\""5\"",\""6\"",\""7\"",\""8\"",\""9  <br/>Extremely attractive\""],\""required\"":true}]"", ""task_unique_trial"": 100, ""task_name"": ""attractive-gt"", ""trial_index"": 37, ""isRepeat"": 0}"
debugGEQMFL:debugSY4EBY,65,1547796618335,"{""rt"": 3051, ""trial_type"": ""face-likert-amanda"", ""debug_mode"": ""debug"", ""task_type"": ""face trials"", ""responses"": ""{\""Q0\"":3}"", ""task_payment"": 1, ""task_version"": 1, ""internal_node_id"": ""0.0-4.0-0.0-4.0"", ""time_elapsed"": 179964, ""imgName"": ""/static/images/celeba_gt_crop/attractive/012925.jpg"", ""questions"": ""[{\""prompt\"":\""<p>How attractive does this person look? Rate from 1-9</p>\"",\""labels\"":[\""1 <br/>Not attractive at all\"",\""2\"",\""3\"",\""4\"",\""5\"",\""6\"",\""7\"",\""8\"",\""9  <br/>Extremely attractive\""],\""required\"":true}]"", ""task_unique_trial"": 100, ""task_name"": ""attractive-gt"", ""trial_index"": 38, ""isRepeat"": 0}"
debugGEQMFL:debugSY4EBY,66,1547796621021,"{""rt"": 2684, ""trial_type"": ""face-likert-amanda"", ""debug_mode"": ""debug"", ""task_type"": ""face trials"", ""responses"": ""{\""Q0\"":6}"", ""task_payment"": 1, ""task_version"": 1, ""internal_node_id"": ""0.0-4.0-0.0-5.0"", ""time_elapsed"": 182650, ""imgName"": ""/static/images/celeba_gt_crop/attractive/163842.jpg"", ""questions"": ""[{\""prompt\"":\""<p>How attractive does this person look? Rate from 1-9</p>\"",\""labels\"":[\""1 <br/>Not attractive at all\"",\""2\"",\""3\"",\""4\"",\""5\"",\""6\"",\""7\"",\""8\"",\""9  <br/>Extremely attractive\""],\""required\"":true}]"", ""task_unique_trial"": 100, ""task_name"": ""attractive-gt"", ""trial_index"": 39, ""isRepeat"": 0}"
debugGEQMFL:debugSY4EBY,67,1547796623210,"{""rt"": 2188, ""trial_type"": ""face-likert-amanda"", ""debug_mode"": ""debug"", ""task_type"": ""face trials"", ""responses"": ""{\""Q0\"":7}"", ""task_payment"": 1, ""task_version"": 1, ""internal_node_id"": ""0.0-4.0-0.0-6.0"", ""time_elapsed"": 184839, ""imgName"": ""/static/images/celeba_gt_crop/attractive/067760.jpg"", ""questions"": ""[{\""prompt\"":\""<p>How attractive does this person look? Rate from 1-9</p>\"",\""labels\"":[\""1 <br/>Not attractive at all\"",\""2\"",\""3\"",\""4\"",\""5\"",\""6\"",\""7\"",\""8\"",\""9  <br/>Extremely attractive\""],\""required\"":true}]"", ""task_unique_trial"": 100, ""task_name"": ""attractive-gt"", ""trial_index"": 40, ""isRepeat"": 0}"
debugGEQMFL:debugSY4EBY,68,1547796625558,"{""rt"": 2347, ""trial_type"": ""face-likert-amanda"", ""debug_mode"": ""debug"", ""task_type"": ""face trials"", ""responses"": ""{\""Q0\"":7}"", ""task_payment"": 1, ""task_version"": 1, ""internal_node_id"": ""0.0-4.0-0.0-7.0"", ""time_elapsed"": 187187, ""imgName"": ""/static/images/celeba_gt_crop/attractive/115789.jpg"", ""questions"": ""[{\""prompt\"":\""<p>How attractive does this person look? Rate from 1-9</p>\"",\""labels\"":[\""1 <br/>Not attractive at all\"",\""2\"",\""3\"",\""4\"",\""5\"",\""6\"",\""7\"",\""8\"",\""9  <br/>Extremely attractive\""],\""required\"":true}]"", ""task_unique_trial"": 100, ""task_name"": ""attractive-gt"", ""trial_index"": 41, ""isRepeat"": 0}"
debugGEQMFL:debugSY4EBY,69,1547796630335,"{""rt"": 4776, ""trial_type"": ""face-likert-amanda"", ""debug_mode"": ""debug"", ""task_type"": ""face trials"", ""responses"": ""{\""Q0\"":8}"", ""task_payment"": 1, ""task_version"": 1, ""internal_node_id"": ""0.0-4.0-0.0-8.0"", ""time_elapsed"": 191964, ""imgName"": ""/static/images/celeba_gt_crop/attractive/082102.jpg"", ""questions"": ""[{\""prompt\"":\""<p>How attractive does this person look? Rate from 1-9</p>\"",\""labels\"":[\""1 <br/>Not attractive at all\"",\""2\"",\""3\"",\""4\"",\""5\"",\""6\"",\""7\"",\""8\"",\""9  <br/>Extremely attractive\""],\""required\"":true}]"", ""task_unique_trial"": 100, ""task_name"": ""attractive-gt"", ""trial_index"": 42, ""isRepeat"": 0}"
debugGEQMFL:debugSY4EBY,70,1547796632840,"{""rt"": 2503, ""trial_type"": ""face-likert-amanda"", ""debug_mode"": ""debug"", ""task_type"": ""face trials"", ""responses"": ""{\""Q0\"":5}"", ""task_payment"": 1, ""task_version"": 1, ""internal_node_id"": ""0.0-4.0-0.0-9.0"", ""time_elapsed"": 194469, ""imgName"": ""/static/images/celeba_gt_crop/attractive/039990.jpg"", ""questions"": ""[{\""prompt\"":\""<p>How attractive does this person look? Rate from 1-9</p>\"",\""labels\"":[\""1 <br/>Not attractive at all\"",\""2\"",\""3\"",\""4\"",\""5\"",\""6\"",\""7\"",\""8\"",\""9  <br/>Extremely attractive\""],\""required\"":true}]"", ""task_unique_trial"": 100, ""task_name"": ""attractive-gt"", ""trial_index"": 43, ""isRepeat"": 0}"
debugGEQMFL:debugSY4EBY,71,1547796634847,"{""rt"": null, ""trial_type"": ""html-keyboard-response"", ""task_unique_trial"": 100, ""stimulus"": ""<p>Good job!</p>"", ""task_version"": 1, ""internal_node_id"": ""0.0-4.0-1.0"", ""task_payment"": 1, ""time_elapsed"": 196476, ""debug_mode"": ""debug"", ""key_press"": null, ""task_name"": ""attractive-gt"", ""trial_index"": 44}"
debugGEQMFL:debugSY4EBY,72,1547796636958,"{""rt"": 2109, ""trial_type"": ""face-likert-amanda"", ""debug_mode"": ""debug"", ""task_type"": ""face trials"", ""responses"": ""{\""Q0\"":5}"", ""task_payment"": 1, ""task_version"": 1, ""internal_node_id"": ""0.0-5.0-0.0-0.0"", ""time_elapsed"": 198587, ""imgName"": ""/static/images/celeba_gt_crop/attractive/011510.jpg"", ""questions"": ""[{\""prompt\"":\""<p>How attractive does this person look? Rate from 1-9</p>\"",\""labels\"":[\""1 <br/>Not attractive at all\"",\""2\"",\""3\"",\""4\"",\""5\"",\""6\"",\""7\"",\""8\"",\""9  <br/>Extremely attractive\""],\""required\"":true}]"", ""task_unique_trial"": 100, ""task_name"": ""attractive-gt"", ""trial_index"": 45, ""isRepeat"": 0}"
debugGEQMFL:debugSY4EBY,73,1547796639291,"{""rt"": 2331, ""trial_type"": ""face-likert-amanda"", ""debug_mode"": ""debug"", ""task_type"": ""face trials"", ""responses"": ""{\""Q0\"":7}"", ""task_payment"": 1, ""task_version"": 1, ""internal_node_id"": ""0.0-5.0-0.0-1.0"", ""time_elapsed"": 200920, ""imgName"": ""/static/images/celeba_gt_crop/attractive/073829.jpg"", ""questions"": ""[{\""prompt\"":\""<p>How attractive does this person look? Rate from 1-9</p>\"",\""labels\"":[\""1 <br/>Not attractive at all\"",\""2\"",\""3\"",\""4\"",\""5\"",\""6\"",\""7\"",\""8\"",\""9  <br/>Extremely attractive\""],\""required\"":true}]"", ""task_unique_trial"": 100, ""task_name"": ""attractive-gt"", ""trial_index"": 46, ""isRepeat"": 0}"
debugGEQMFL:debugSY4EBY,74,1547796641615,"{""rt"": 2323, ""trial_type"": ""face-likert-amanda"", ""debug_mode"": ""debug"", ""task_type"": ""face trials"", ""responses"": ""{\""Q0\"":6}"", ""task_payment"": 1, ""task_version"": 1, ""internal_node_id"": ""0.0-5.0-0.0-2.0"", ""time_elapsed"": 203244, ""imgName"": ""/static/images/celeba_gt_crop/attractive/030000.jpg"", ""questions"": ""[{\""prompt\"":\""<p>How attractive does this person look? Rate from 1-9</p>\"",\""labels\"":[\""1 <br/>Not attractive at all\"",\""2\"",\""3\"",\""4\"",\""5\"",\""6\"",\""7\"",\""8\"",\""9  <br/>Extremely attractive\""],\""required\"":true}]"", ""task_unique_trial"": 100, ""task_name"": ""attractive-gt"", ""trial_index"": 47, ""isRepeat"": 0}"
debugGEQMFL:debugSY4EBY,75,1547796645778,"{""rt"": 4162, ""trial_type"": ""face-likert-amanda"", ""debug_mode"": ""debug"", ""task_type"": ""face trials"", ""responses"": ""{\""Q0\"":4}"", ""task_payment"": 1, ""task_version"": 1, ""internal_node_id"": ""0.0-5.0-0.0-3.0"", ""time_elapsed"": 207407, ""imgName"": ""/static/images/celeba_gt_crop/attractive/104401.jpg"", ""questions"": ""[{\""prompt\"":\""<p>How attractive does this person look? Rate from 1-9</p>\"",\""labels\"":[\""1 <br/>Not attractive at all\"",\""2\"",\""3\"",\""4\"",\""5\"",\""6\"",\""7\"",\""8\"",\""9  <br/>Extremely attractive\""],\""required\"":true}]"", ""task_unique_trial"": 100, ""task_name"": ""attractive-gt"", ""trial_index"": 48, ""isRepeat"": 0}"
debugGEQMFL:debugSY4EBY,76,1547796648201,"{""rt"": 2420, ""trial_type"": ""face-likert-amanda"", ""debug_mode"": ""debug"", ""task_type"": ""face trials"", ""responses"": ""{\""Q0\"":5}"", ""task_payment"": 1, ""task_version"": 1, ""internal_node_id"": ""0.0-5.0-0.0-4.0"", ""time_elapsed"": 209830, ""imgName"": ""/static/images/celeba_gt_crop/attractive/111185.jpg"", ""questions"": ""[{\""prompt\"":\""<p>How attractive does this person look? Rate from 1-9</p>\"",\""labels\"":[\""1 <br/>Not attractive at all\"",\""2\"",\""3\"",\""4\"",\""5\"",\""6\"",\""7\"",\""8\"",\""9  <br/>Extremely attractive\""],\""required\"":true}]"", ""task_unique_trial"": 100, ""task_name"": ""attractive-gt"", ""trial_index"": 49, ""isRepeat"": 0}"
debugGEQMFL:debugSY4EBY,77,1547796651058,"{""rt"": 2856, ""trial_type"": ""face-likert-amanda"", ""debug_mode"": ""debug"", ""task_type"": ""face trials"", ""responses"": ""{\""Q0\"":5}"", ""task_payment"": 1, ""task_version"": 1, ""internal_node_id"": ""0.0-5.0-0.0-5.0"", ""time_elapsed"": 212687, ""imgName"": ""/static/images/celeba_gt_crop/attractive/067792.jpg"", ""questions"": ""[{\""prompt\"":\""<p>How attractive does this person look? Rate from 1-9</p>\"",\""labels\"":[\""1 <br/>Not attractive at all\"",\""2\"",\""3\"",\""4\"",\""5\"",\""6\"",\""7\"",\""8\"",\""9  <br/>Extremely attractive\""],\""required\"":true}]"", ""task_unique_trial"": 100, ""task_name"": ""attractive-gt"", ""trial_index"": 50, ""isRepeat"": 0}"
debugGEQMFL:debugSY4EBY,78,1547796653465,"{""rt"": 2405, ""trial_type"": ""face-likert-amanda"", ""debug_mode"": ""debug"", ""task_type"": ""face trials"", ""responses"": ""{\""Q0\"":2}"", ""task_payment"": 1, ""task_version"": 1, ""internal_node_id"": ""0.0-5.0-0.0-6.0"", ""time_elapsed"": 215094, ""imgName"": ""/static/images/celeba_gt_crop/attractive/156121.jpg"", ""questions"": ""[{\""prompt\"":\""<p>How attractive does this person look? Rate from 1-9</p>\"",\""labels\"":[\""1 <br/>Not attractive at all\"",\""2\"",\""3\"",\""4\"",\""5\"",\""6\"",\""7\"",\""8\"",\""9  <br/>Extremely attractive\""],\""required\"":true}]"", ""task_unique_trial"": 100, ""task_name"": ""attractive-gt"", ""trial_index"": 51, ""isRepeat"": 0}"
debugGEQMFL:debugSY4EBY,79,1547796656060,"{""rt"": 2592, ""trial_type"": ""face-likert-amanda"", ""debug_mode"": ""debug"", ""task_type"": ""face trials"", ""responses"": ""{\""Q0\"":4}"", ""task_payment"": 1, ""task_version"": 1, ""internal_node_id"": ""0.0-5.0-0.0-7.0"", ""time_elapsed"": 217689, ""imgName"": ""/static/images/celeba_gt_crop/attractive/017238.jpg"", ""questions"": ""[{\""prompt\"":\""<p>How attractive does this person look? Rate from 1-9</p>\"",\""labels\"":[\""1 <br/>Not attractive at all\"",\""2\"",\""3\"",\""4\"",\""5\"",\""6\"",\""7\"",\""8\"",\""9  <br/>Extremely attractive\""],\""required\"":true}]"", ""task_unique_trial"": 100, ""task_name"": ""attractive-gt"", ""trial_index"": 52, ""isRepeat"": 0}"
debugGEQMFL:debugSY4EBY,80,1547796658086,"{""rt"": 2024, ""trial_type"": ""face-likert-amanda"", ""debug_mode"": ""debug"", ""task_type"": ""face trials"", ""responses"": ""{\""Q0\"":5}"", ""task_payment"": 1, ""task_version"": 1, ""internal_node_id"": ""0.0-5.0-0.0-8.0"", ""time_elapsed"": 219715, ""imgName"": ""/static/images/celeba_gt_crop/attractive/100659.jpg"", ""questions"": ""[{\""prompt\"":\""<p>How attractive does this person look? Rate from 1-9</p>\"",\""labels\"":[\""1 <br/>Not attractive at all\"",\""2\"",\""3\"",\""4\"",\""5\"",\""6\"",\""7\"",\""8\"",\""9  <br/>Extremely attractive\""],\""required\"":true}]"", ""task_unique_trial"": 100, ""task_name"": ""attractive-gt"", ""trial_index"": 53, ""isRepeat"": 0}"
debugGEQMFL:debugSY4EBY,81,1547796660222,"{""rt"": 2135, ""trial_type"": ""face-likert-amanda"", ""debug_mode"": ""debug"", ""task_type"": ""face trials"", ""responses"": ""{\""Q0\"":6}"", ""task_payment"": 1, ""task_version"": 1, ""internal_node_id"": ""0.0-5.0-0.0-9.0"", ""time_elapsed"": 221851, ""imgName"": ""/static/images/celeba_gt_crop/attractive/198632.jpg"", ""questions"": ""[{\""prompt\"":\""<p>How attractive does this person look? Rate from 1-9</p>\"",\""labels\"":[\""1 <br/>Not attractive at all\"",\""2\"",\""3\"",\""4\"",\""5\"",\""6\"",\""7\"",\""8\"",\""9  <br/>Extremely attractive\""],\""required\"":true}]"", ""task_unique_trial"": 100, ""task_name"": ""attractive-gt"", ""trial_index"": 54, ""isRepeat"": 0}"
debugGEQMFL:debugSY4EBY,82,1547796661726,"{""rt"": null, ""trial_type"": ""html-keyboard-response"", ""task_unique_trial"": 100, ""stimulus"": ""<p>Good job!</p>"", ""task_version"": 1, ""internal_node_id"": ""0.0-5.0-1.0"", ""task_payment"": 1, ""time_elapsed"": 223355, ""debug_mode"": ""debug"", ""key_press"": null, ""task_name"": ""attractive-gt"", ""trial_index"": 55}"
debugGEQMFL:debugSY4EBY,83,1547796664198,"{""rt"": 2470, ""trial_type"": ""face-likert-amanda"", ""debug_mode"": ""debug"", ""task_type"": ""face trials"", ""responses"": ""{\""Q0\"":5}"", ""task_payment"": 1, ""task_version"": 1, ""internal_node_id"": ""0.0-6.0-0.0-0.0"", ""time_elapsed"": 225827, ""imgName"": ""/static/images/celeba_gt_crop/attractive/075975.jpg"", ""questions"": ""[{\""prompt\"":\""<p>How attractive does this person look? Rate from 1-9</p>\"",\""labels\"":[\""1 <br/>Not attractive at all\"",\""2\"",\""3\"",\""4\"",\""5\"",\""6\"",\""7\"",\""8\"",\""9  <br/>Extremely attractive\""],\""required\"":true}]"", ""task_unique_trial"": 100, ""task_name"": ""attractive-gt"", ""trial_index"": 56, ""isRepeat"": 0}"
debugGEQMFL:debugSY4EBY,84,1547796666592,"{""rt"": 2392, ""trial_type"": ""face-likert-amanda"", ""debug_mode"": ""debug"", ""task_type"": ""face trials"", ""responses"": ""{\""Q0\"":3}"", ""task_payment"": 1, ""task_version"": 1, ""internal_node_id"": ""0.0-6.0-0.0-1.0"", ""time_elapsed"": 228221, ""imgName"": ""/static/images/celeba_gt_crop/attractive/177368.jpg"", ""questions"": ""[{\""prompt\"":\""<p>How attractive does this person look? Rate from 1-9</p>\"",\""labels\"":[\""1 <br/>Not attractive at all\"",\""2\"",\""3\"",\""4\"",\""5\"",\""6\"",\""7\"",\""8\"",\""9  <br/>Extremely attractive\""],\""required\"":true}]"", ""task_unique_trial"": 100, ""task_name"": ""attractive-gt"", ""trial_index"": 57, ""isRepeat"": 0}"
debugGEQMFL:debugSY4EBY,85,1547796668902,"{""rt"": 2309, ""trial_type"": ""face-likert-amanda"", ""debug_mode"": ""debug"", ""task_type"": ""face trials"", ""responses"": ""{\""Q0\"":4}"", ""task_payment"": 1, ""task_version"": 1, ""internal_node_id"": ""0.0-6.0-0.0-2.0"", ""time_elapsed"": 230531, ""imgName"": ""/static/images/celeba_gt_crop/attractive/014755.jpg"", ""questions"": ""[{\""prompt\"":\""<p>How attractive does this person look? Rate from 1-9</p>\"",\""labels\"":[\""1 <br/>Not attractive at all\"",\""2\"",\""3\"",\""4\"",\""5\"",\""6\"",\""7\"",\""8\"",\""9  <br/>Extremely attractive\""],\""required\"":true}]"", ""task_unique_trial"": 100, ""task_name"": ""attractive-gt"", ""trial_index"": 58, ""isRepeat"": 0}"
debugGEQMFL:debugSY4EBY,86,1547796671585,"{""rt"": 2682, ""trial_type"": ""face-likert-amanda"", ""debug_mode"": ""debug"", ""task_type"": ""face trials"", ""responses"": ""{\""Q0\"":5}"", ""task_payment"": 1, ""task_version"": 1, ""internal_node_id"": ""0.0-6.0-0.0-3.0"", ""time_elapsed"": 233214, ""imgName"": ""/static/images/celeba_gt_crop/attractive/100138.jpg"", ""questions"": ""[{\""prompt\"":\""<p>How attractive does this person look? Rate from 1-9</p>\"",\""labels\"":[\""1 <br/>Not attractive at all\"",\""2\"",\""3\"",\""4\"",\""5\"",\""6\"",\""7\"",\""8\"",\""9  <br/>Extremely attractive\""],\""required\"":true}]"", ""task_unique_trial"": 100, ""task_name"": ""attractive-gt"", ""trial_index"": 59, ""isRepeat"": 0}"
debugGEQMFL:debugSY4EBY,87,1547796675629,"{""rt"": 4043, ""trial_type"": ""face-likert-amanda"", ""debug_mode"": ""debug"", ""task_type"": ""face trials"", ""responses"": ""{\""Q0\"":3}"", ""task_payment"": 1, ""task_version"": 1, ""internal_node_id"": ""0.0-6.0-0.0-4.0"", ""time_elapsed"": 237258, ""imgName"": ""/static/images/celeba_gt_crop/attractive/144010.jpg"", ""questions"": ""[{\""prompt\"":\""<p>How attractive does this person look? Rate from 1-9</p>\"",\""labels\"":[\""1 <br/>Not attractive at all\"",\""2\"",\""3\"",\""4\"",\""5\"",\""6\"",\""7\"",\""8\"",\""9  <br/>Extremely attractive\""],\""required\"":true}]"", ""task_unique_trial"": 100, ""task_name"": ""attractive-gt"", ""trial_index"": 60, ""isRepeat"": 0}"
debugGEQMFL:debugSY4EBY,88,1547796677909,"{""rt"": 2278, ""trial_type"": ""face-likert-amanda"", ""debug_mode"": ""debug"", ""task_type"": ""face trials"", ""responses"": ""{\""Q0\"":8}"", ""task_payment"": 1, ""task_version"": 1, ""internal_node_id"": ""0.0-6.0-0.0-5.0"", ""time_elapsed"": 239538, ""imgName"": ""/static/images/celeba_gt_crop/attractive/010645.jpg"", ""questions"": ""[{\""prompt\"":\""<p>How attractive does this person look? Rate from 1-9</p>\"",\""labels\"":[\""1 <br/>Not attractive at all\"",\""2\"",\""3\"",\""4\"",\""5\"",\""6\"",\""7\"",\""8\"",\""9  <br/>Extremely attractive\""],\""required\"":true}]"", ""task_unique_trial"": 100, ""task_name"": ""attractive-gt"", ""trial_index"": 61, ""isRepeat"": 0}"
debugGEQMFL:debugSY4EBY,89,1547796680902,"{""rt"": 2992, ""trial_type"": ""face-likert-amanda"", ""debug_mode"": ""debug"", ""task_type"": ""face trials"", ""responses"": ""{\""Q0\"":3}"", ""task_payment"": 1, ""task_version"": 1, ""internal_node_id"": ""0.0-6.0-0.0-6.0"", ""time_elapsed"": 242531, ""imgName"": ""/static/images/celeba_gt_crop/attractive/115851.jpg"", ""questions"": ""[{\""prompt\"":\""<p>How attractive does this person look? Rate from 1-9</p>\"",\""labels\"":[\""1 <br/>Not attractive at all\"",\""2\"",\""3\"",\""4\"",\""5\"",\""6\"",\""7\"",\""8\"",\""9  <br/>Extremely attractive\""],\""required\"":true}]"", ""task_unique_trial"": 100, ""task_name"": ""attractive-gt"", ""trial_index"": 62, ""isRepeat"": 0}"
debugGEQMFL:debugSY4EBY,90,1547796683062,"{""rt"": 2159, ""trial_type"": ""face-likert-amanda"", ""debug_mode"": ""debug"", ""task_type"": ""face trials"", ""responses"": ""{\""Q0\"":1}"", ""task_payment"": 1, ""task_version"": 1, ""internal_node_id"": ""0.0-6.0-0.0-7.0"", ""time_elapsed"": 244691, ""imgName"": ""/static/images/celeba_gt_crop/attractive/098484.jpg"", ""questions"": ""[{\""prompt\"":\""<p>How attractive does this person look? Rate from 1-9</p>\"",\""labels\"":[\""1 <br/>Not attractive at all\"",\""2\"",\""3\"",\""4\"",\""5\"",\""6\"",\""7\"",\""8\"",\""9  <br/>Extremely attractive\""],\""required\"":true}]"", ""task_unique_trial"": 100, ""task_name"": ""attractive-gt"", ""trial_index"": 63, ""isRepeat"": 0}"
debugGEQMFL:debugSY4EBY,91,1547796685754,"{""rt"": 2691, ""trial_type"": ""face-likert-amanda"", ""debug_mode"": ""debug"", ""task_type"": ""face trials"", ""responses"": ""{\""Q0\"":7}"", ""task_payment"": 1, ""task_version"": 1, ""internal_node_id"": ""0.0-6.0-0.0-8.0"", ""time_elapsed"": 247383, ""imgName"": ""/static/images/celeba_gt_crop/attractive/067792.jpg"", ""questions"": ""[{\""prompt\"":\""<p>How attractive does this person look? Rate from 1-9</p>\"",\""labels\"":[\""1 <br/>Not attractive at all\"",\""2\"",\""3\"",\""4\"",\""5\"",\""6\"",\""7\"",\""8\"",\""9  <br/>Extremely attractive\""],\""required\"":true}]"", ""task_unique_trial"": 100, ""task_name"": ""attractive-gt"", ""trial_index"": 64, ""isRepeat"": 0}"
debugGEQMFL:debugSY4EBY,92,1547796690666,"{""rt"": 4910, ""trial_type"": ""face-likert-amanda"", ""debug_mode"": ""debug"", ""task_type"": ""face trials"", ""responses"": ""{\""Q0\"":2}"", ""task_payment"": 1, ""task_version"": 1, ""internal_node_id"": ""0.0-6.0-0.0-9.0"", ""time_elapsed"": 252295, ""imgName"": ""/static/images/celeba_gt_crop/attractive/121737.jpg"", ""questions"": ""[{\""prompt\"":\""<p>How attractive does this person look? Rate from 1-9</p>\"",\""labels\"":[\""1 <br/>Not attractive at all\"",\""2\"",\""3\"",\""4\"",\""5\"",\""6\"",\""7\"",\""8\"",\""9  <br/>Extremely attractive\""],\""required\"":true}]"", ""task_unique_trial"": 100, ""task_name"": ""attractive-gt"", ""trial_index"": 65, ""isRepeat"": 0}"
debugGEQMFL:debugSY4EBY,93,1547796692668,"{""rt"": null, ""trial_type"": ""html-keyboard-response"", ""task_unique_trial"": 100, ""stimulus"": ""<p>Good job!</p>"", ""task_version"": 1, ""internal_node_id"": ""0.0-6.0-1.0"", ""task_payment"": 1, ""time_elapsed"": 254296, ""debug_mode"": ""debug"", ""key_press"": null, ""task_name"": ""attractive-gt"", ""trial_index"": 66}"
debugGEQMFL:debugSY4EBY,94,1547796700979,"{""rt"": 8310, ""trial_type"": ""face-likert-amanda"", ""debug_mode"": ""debug"", ""task_type"": ""face trials"", ""responses"": ""{\""Q0\"":1}"", ""task_payment"": 1, ""task_version"": 1, ""internal_node_id"": ""0.0-7.0-0.0-0.0"", ""time_elapsed"": 262608, ""imgName"": ""/static/images/celeba_gt_crop/attractive/083021.jpg"", ""questions"": ""[{\""prompt\"":\""<p>How attractive does this person look? Rate from 1-9</p>\"",\""labels\"":[\""1 <br/>Not attractive at all\"",\""2\"",\""3\"",\""4\"",\""5\"",\""6\"",\""7\"",\""8\"",\""9  <br/>Extremely attractive\""],\""required\"":true}]"", ""task_unique_trial"": 100, ""task_name"": ""attractive-gt"", ""trial_index"": 67, ""isRepeat"": 0}"
debugGEQMFL:debugSY4EBY,95,1547796704421,"{""rt"": 3441, ""trial_type"": ""face-likert-amanda"", ""debug_mode"": ""debug"", ""task_type"": ""face trials"", ""responses"": ""{\""Q0\"":3}"", ""task_payment"": 1, ""task_version"": 1, ""internal_node_id"": ""0.0-7.0-0.0-1.0"", ""time_elapsed"": 266050, ""imgName"": ""/static/images/celeba_gt_crop/attractive/033997.jpg"", ""questions"": ""[{\""prompt\"":\""<p>How attractive does this person look? Rate from 1-9</p>\"",\""labels\"":[\""1 <br/>Not attractive at all\"",\""2\"",\""3\"",\""4\"",\""5\"",\""6\"",\""7\"",\""8\"",\""9  <br/>Extremely attractive\""],\""required\"":true}]"", ""task_unique_trial"": 100, ""task_name"": ""attractive-gt"", ""trial_index"": 68, ""isRepeat"": 0}"
debugGEQMFL:debugSY4EBY,96,1547796707046,"{""rt"": 2625, ""trial_type"": ""face-likert-amanda"", ""debug_mode"": ""debug"", ""task_type"": ""face trials"", ""responses"": ""{\""Q0\"":3}"", ""task_payment"": 1, ""task_version"": 1, ""internal_node_id"": ""0.0-7.0-0.0-2.0"", ""time_elapsed"": 268675, ""imgName"": ""/static/images/celeba_gt_crop/attractive/200021.jpg"", ""questions"": ""[{\""prompt\"":\""<p>How attractive does this person look? Rate from 1-9</p>\"",\""labels\"":[\""1 <br/>Not attractive at all\"",\""2\"",\""3\"",\""4\"",\""5\"",\""6\"",\""7\"",\""8\"",\""9  <br/>Extremely attractive\""],\""required\"":true}]"", ""task_unique_trial"": 100, ""task_name"": ""attractive-gt"", ""trial_index"": 69, ""isRepeat"": 0}"
debugGEQMFL:debugSY4EBY,97,1547796710249,"{""rt"": 3201, ""trial_type"": ""face-likert-amanda"", ""debug_mode"": ""debug"", ""task_type"": ""face trials"", ""responses"": ""{\""Q0\"":5}"", ""task_payment"": 1, ""task_version"": 1, ""internal_node_id"": ""0.0-7.0-0.0-3.0"", ""time_elapsed"": 271878, ""imgName"": ""/static/images/celeba_gt_crop/attractive/187879.jpg"", ""questions"": ""[{\""prompt\"":\""<p>How attractive does this person look? Rate from 1-9</p>\"",\""labels\"":[\""1 <br/>Not attractive at all\"",\""2\"",\""3\"",\""4\"",\""5\"",\""6\"",\""7\"",\""8\"",\""9  <br/>Extremely attractive\""],\""required\"":true}]"", ""task_unique_trial"": 100, ""task_name"": ""attractive-gt"", ""trial_index"": 70, ""isRepeat"": 0}"
debugGEQMFL:debugSY4EBY,98,1547796712274,"{""rt"": 2024, ""trial_type"": ""face-likert-amanda"", ""debug_mode"": ""debug"", ""task_type"": ""face trials"", ""responses"": ""{\""Q0\"":4}"", ""task_payment"": 1, ""task_version"": 1, ""internal_node_id"": ""0.0-7.0-0.0-4.0"", ""time_elapsed"": 273903, ""imgName"": ""/static/images/celeba_gt_crop/attractive/043287.jpg"", ""questions"": ""[{\""prompt\"":\""<p>How attractive does this person look? Rate from 1-9</p>\"",\""labels\"":[\""1 <br/>Not attractive at all\"",\""2\"",\""3\"",\""4\"",\""5\"",\""6\"",\""7\"",\""8\"",\""9  <br/>Extremely attractive\""],\""required\"":true}]"", ""task_unique_trial"": 100, ""task_name"": ""attractive-gt"", ""trial_index"": 71, ""isRepeat"": 0}"
debugGEQMFL:debugSY4EBY,99,1547796714598,"{""rt"": 2323, ""trial_type"": ""face-likert-amanda"", ""debug_mode"": ""debug"", ""task_type"": ""face trials"", ""responses"": ""{\""Q0\"":0}"", ""task_payment"": 1, ""task_version"": 1, ""internal_node_id"": ""0.0-7.0-0.0-5.0"", ""time_elapsed"": 276227, ""imgName"": ""/static/images/celeba_gt_crop/attractive/004868.jpg"", ""questions"": ""[{\""prompt\"":\""<p>How attractive does this person look? Rate from 1-9</p>\"",\""labels\"":[\""1 <br/>Not attractive at all\"",\""2\"",\""3\"",\""4\"",\""5\"",\""6\"",\""7\"",\""8\"",\""9  <br/>Extremely attractive\""],\""required\"":true}]"", ""task_unique_trial"": 100, ""task_name"": ""attractive-gt"", ""trial_index"": 72, ""isRepeat"": 0}"
debugGEQMFL:debugSY4EBY,100,1547796716857,"{""rt"": 2257, ""trial_type"": ""face-likert-amanda"", ""debug_mode"": ""debug"", ""task_type"": ""face trials"", ""responses"": ""{\""Q0\"":0}"", ""task_payment"": 1, ""task_version"": 1, ""internal_node_id"": ""0.0-7.0-0.0-6.0"", ""time_elapsed"": 278486, ""imgName"": ""/static/images/celeba_gt_crop/attractive/200278.jpg"", ""questions"": ""[{\""prompt\"":\""<p>How attractive does this person look? Rate from 1-9</p>\"",\""labels\"":[\""1 <br/>Not attractive at all\"",\""2\"",\""3\"",\""4\"",\""5\"",\""6\"",\""7\"",\""8\"",\""9  <br/>Extremely attractive\""],\""required\"":true}]"", ""task_unique_trial"": 100, ""task_name"": ""attractive-gt"", ""trial_index"": 73, ""isRepeat"": 0}"
debugGEQMFL:debugSY4EBY,101,1547796719009,"{""rt"": 2150, ""trial_type"": ""face-likert-amanda"", ""debug_mode"": ""debug"", ""task_type"": ""face trials"", ""responses"": ""{\""Q0\"":2}"", ""task_payment"": 1, ""task_version"": 1, ""internal_node_id"": ""0.0-7.0-0.0-7.0"", ""time_elapsed"": 280637, ""imgName"": ""/static/images/celeba_gt_crop/attractive/104401.jpg"", ""questions"": ""[{\""prompt\"":\""<p>How attractive does this person look? Rate from 1-9</p>\"",\""labels\"":[\""1 <br/>Not attractive at all\"",\""2\"",\""3\"",\""4\"",\""5\"",\""6\"",\""7\"",\""8\"",\""9  <br/>Extremely attractive\""],\""required\"":true}]"", ""task_unique_trial"": 100, ""task_name"": ""attractive-gt"", ""trial_index"": 74, ""isRepeat"": 0}"
debugGEQMFL:debugSY4EBY,102,1547796721116,"{""rt"": 2106, ""trial_type"": ""face-likert-amanda"", ""debug_mode"": ""debug"", ""task_type"": ""face trials"", ""responses"": ""{\""Q0\"":1}"", ""task_payment"": 1, ""task_version"": 1, ""internal_node_id"": ""0.0-7.0-0.0-8.0"", ""time_elapsed"": 282745, ""imgName"": ""/static/images/celeba_gt_crop/attractive/098484.jpg"", ""questions"": ""[{\""prompt\"":\""<p>How attractive does this person look? Rate from 1-9</p>\"",\""labels\"":[\""1 <br/>Not attractive at all\"",\""2\"",\""3\"",\""4\"",\""5\"",\""6\"",\""7\"",\""8\"",\""9  <br/>Extremely attractive\""],\""required\"":true}]"", ""task_unique_trial"": 100, ""task_name"": ""attractive-gt"", ""trial_index"": 75, ""isRepeat"": 0}"
debugGEQMFL:debugSY4EBY,103,1547796726313,"{""rt"": 5196, ""trial_type"": ""face-likert-amanda"", ""debug_mode"": ""debug"", ""task_type"": ""face trials"", ""responses"": ""{\""Q0\"":2}"", ""task_payment"": 1, ""task_version"": 1, ""internal_node_id"": ""0.0-7.0-0.0-9.0"", ""time_elapsed"": 287942, ""imgName"": ""/static/images/celeba_gt_crop/attractive/156121.jpg"", ""questions"": ""[{\""prompt\"":\""<p>How attractive does this person look? Rate from 1-9</p>\"",\""labels\"":[\""1 <br/>Not attractive at all\"",\""2\"",\""3\"",\""4\"",\""5\"",\""6\"",\""7\"",\""8\"",\""9  <br/>Extremely attractive\""],\""required\"":true}]"", ""task_unique_trial"": 100, ""task_name"": ""attractive-gt"", ""trial_index"": 76, ""isRepeat"": 0}"
debugGEQMFL:debugSY4EBY,104,1547796727321,"{""rt"": null, ""trial_type"": ""html-keyboard-response"", ""task_unique_trial"": 100, ""stimulus"": ""<p>Good job!</p>"", ""task_version"": 1, ""internal_node_id"": ""0.0-7.0-1.0"", ""task_payment"": 1, ""time_elapsed"": 288949, ""debug_mode"": ""debug"", ""key_press"": null, ""task_name"": ""attractive-gt"", ""trial_index"": 77}"
debugGEQMFL:debugSY4EBY,105,1547796732156,"{""rt"": 4835, ""trial_type"": ""face-likert-amanda"", ""debug_mode"": ""debug"", ""task_type"": ""face trials"", ""responses"": ""{\""Q0\"":2}"", ""task_payment"": 1, ""task_version"": 1, ""internal_node_id"": ""0.0-8.0-0.0-0.0"", ""time_elapsed"": 293785, ""imgName"": ""/static/images/celeba_gt_crop/attractive/089364.jpg"", ""questions"": ""[{\""prompt\"":\""<p>How attractive does this person look? Rate from 1-9</p>\"",\""labels\"":[\""1 <br/>Not attractive at all\"",\""2\"",\""3\"",\""4\"",\""5\"",\""6\"",\""7\"",\""8\"",\""9  <br/>Extremely attractive\""],\""required\"":true}]"", ""task_unique_trial"": 100, ""task_name"": ""attractive-gt"", ""trial_index"": 78, ""isRepeat"": 0}"
debugGEQMFL:debugSY4EBY,106,1547796734031,"{""rt"": 1872, ""trial_type"": ""face-likert-amanda"", ""debug_mode"": ""debug"", ""task_type"": ""face trials"", ""responses"": ""{\""Q0\"":3}"", ""task_payment"": 1, ""task_version"": 1, ""internal_node_id"": ""0.0-8.0-0.0-1.0"", ""time_elapsed"": 295659, ""imgName"": ""/static/images/celeba_gt_crop/attractive/177368.jpg"", ""questions"": ""[{\""prompt\"":\""<p>How attractive does this person look? Rate from 1-9</p>\"",\""labels\"":[\""1 <br/>Not attractive at all\"",\""2\"",\""3\"",\""4\"",\""5\"",\""6\"",\""7\"",\""8\"",\""9  <br/>Extremely attractive\""],\""required\"":true}]"", ""task_unique_trial"": 100, ""task_name"": ""attractive-gt"", ""trial_index"": 79, ""isRepeat"": 0}"
debugGEQMFL:debugSY4EBY,107,1547796735891,"{""rt"": 1859, ""trial_type"": ""face-likert-amanda"", ""debug_mode"": ""debug"", ""task_type"": ""face trials"", ""responses"": ""{\""Q0\"":4}"", ""task_payment"": 1, ""task_version"": 1, ""internal_node_id"": ""0.0-8.0-0.0-2.0"", ""time_elapsed"": 297520, ""imgName"": ""/static/images/celeba_gt_crop/attractive/122364.jpg"", ""questions"": ""[{\""prompt\"":\""<p>How attractive does this person look? Rate from 1-9</p>\"",\""labels\"":[\""1 <br/>Not attractive at all\"",\""2\"",\""3\"",\""4\"",\""5\"",\""6\"",\""7\"",\""8\"",\""9  <br/>Extremely attractive\""],\""required\"":true}]"", ""task_unique_trial"": 100, ""task_name"": ""attractive-gt"", ""trial_index"": 80, ""isRepeat"": 0}"
debugGEQMFL:debugSY4EBY,108,1547796737751,"{""rt"": 1859, ""trial_type"": ""face-likert-amanda"", ""debug_mode"": ""debug"", ""task_type"": ""face trials"", ""responses"": ""{\""Q0\"":5}"", ""task_payment"": 1, ""task_version"": 1, ""internal_node_id"": ""0.0-8.0-0.0-3.0"", ""time_elapsed"": 299380, ""imgName"": ""/static/images/celeba_gt_crop/attractive/121110.jpg"", ""questions"": ""[{\""prompt\"":\""<p>How attractive does this person look? Rate from 1-9</p>\"",\""labels\"":[\""1 <br/>Not attractive at all\"",\""2\"",\""3\"",\""4\"",\""5\"",\""6\"",\""7\"",\""8\"",\""9  <br/>Extremely attractive\""],\""required\"":true}]"", ""task_unique_trial"": 100, ""task_name"": ""attractive-gt"", ""trial_index"": 81, ""isRepeat"": 0}"
debugGEQMFL:debugSY4EBY,109,1547796739807,"{""rt"": 2054, ""trial_type"": ""face-likert-amanda"", ""debug_mode"": ""debug"", ""task_type"": ""face trials"", ""responses"": ""{\""Q0\"":5}"", ""task_payment"": 1, ""task_version"": 1, ""internal_node_id"": ""0.0-8.0-0.0-4.0"", ""time_elapsed"": 301436, ""imgName"": ""/static/images/celeba_gt_crop/attractive/180966.jpg"", ""questions"": ""[{\""prompt\"":\""<p>How attractive does this person look? Rate from 1-9</p>\"",\""labels\"":[\""1 <br/>Not attractive at all\"",\""2\"",\""3\"",\""4\"",\""5\"",\""6\"",\""7\"",\""8\"",\""9  <br/>Extremely attractive\""],\""required\"":true}]"", ""task_unique_trial"": 100, ""task_name"": ""attractive-gt"", ""trial_index"": 82, ""isRepeat"": 0}"
debugGEQMFL:debugSY4EBY,110,1547796742686,"{""rt"": 2879, ""trial_type"": ""face-likert-amanda"", ""debug_mode"": ""debug"", ""task_type"": ""face trials"", ""responses"": ""{\""Q0\"":5}"", ""task_payment"": 1, ""task_version"": 1, ""internal_node_id"": ""0.0-8.0-0.0-5.0"", ""time_elapsed"": 304315, ""imgName"": ""/static/images/celeba_gt_crop/attractive/188240.jpg"", ""questions"": ""[{\""prompt\"":\""<p>How attractive does this person look? Rate from 1-9</p>\"",\""labels\"":[\""1 <br/>Not attractive at all\"",\""2\"",\""3\"",\""4\"",\""5\"",\""6\"",\""7\"",\""8\"",\""9  <br/>Extremely attractive\""],\""required\"":true}]"", ""task_unique_trial"": 100, ""task_name"": ""attractive-gt"", ""trial_index"": 83, ""isRepeat"": 0}"
debugGEQMFL:debugSY4EBY,111,1547796744779,"{""rt"": 2091, ""trial_type"": ""face-likert-amanda"", ""debug_mode"": ""debug"", ""task_type"": ""face trials"", ""responses"": ""{\""Q0\"":7}"", ""task_payment"": 1, ""task_version"": 1, ""internal_node_id"": ""0.0-8.0-0.0-6.0"", ""time_elapsed"": 306408, ""imgName"": ""/static/images/celeba_gt_crop/attractive/059217.jpg"", ""questions"": ""[{\""prompt\"":\""<p>How attractive does this person look? Rate from 1-9</p>\"",\""labels\"":[\""1 <br/>Not attractive at all\"",\""2\"",\""3\"",\""4\"",\""5\"",\""6\"",\""7\"",\""8\"",\""9  <br/>Extremely attractive\""],\""required\"":true}]"", ""task_unique_trial"": 100, ""task_name"": ""attractive-gt"", ""trial_index"": 84, ""isRepeat"": 0}"
debugGEQMFL:debugSY4EBY,112,1547796746751,"{""rt"": 1972, ""trial_type"": ""face-likert-amanda"", ""debug_mode"": ""debug"", ""task_type"": ""face trials"", ""responses"": ""{\""Q0\"":8}"", ""task_payment"": 1, ""task_version"": 1, ""internal_node_id"": ""0.0-8.0-0.0-7.0"", ""time_elapsed"": 308380, ""imgName"": ""/static/images/celeba_gt_crop/attractive/128002.jpg"", ""questions"": ""[{\""prompt\"":\""<p>How attractive does this person look? Rate from 1-9</p>\"",\""labels\"":[\""1 <br/>Not attractive at all\"",\""2\"",\""3\"",\""4\"",\""5\"",\""6\"",\""7\"",\""8\"",\""9  <br/>Extremely attractive\""],\""required\"":true}]"", ""task_unique_trial"": 100, ""task_name"": ""attractive-gt"", ""trial_index"": 85, ""isRepeat"": 0}"
debugGEQMFL:debugSY4EBY,113,1547796749782,"{""rt"": 3030, ""trial_type"": ""face-likert-amanda"", ""debug_mode"": ""debug"", ""task_type"": ""face trials"", ""responses"": ""{\""Q0\"":4}"", ""task_payment"": 1, ""task_version"": 1, ""internal_node_id"": ""0.0-8.0-0.0-8.0"", ""time_elapsed"": 311411, ""imgName"": ""/static/images/celeba_gt_crop/attractive/069359.jpg"", ""questions"": ""[{\""prompt\"":\""<p>How attractive does this person look? Rate from 1-9</p>\"",\""labels\"":[\""1 <br/>Not attractive at all\"",\""2\"",\""3\"",\""4\"",\""5\"",\""6\"",\""7\"",\""8\"",\""9  <br/>Extremely attractive\""],\""required\"":true}]"", ""task_unique_trial"": 100, ""task_name"": ""attractive-gt"", ""trial_index"": 86, ""isRepeat"": 0}"
debugGEQMFL:debugSY4EBY,114,1547796752063,"{""rt"": 2278, ""trial_type"": ""face-likert-amanda"", ""debug_mode"": ""debug"", ""task_type"": ""face trials"", ""responses"": ""{\""Q0\"":5}"", ""task_payment"": 1, ""task_version"": 1, ""internal_node_id"": ""0.0-8.0-0.0-9.0"", ""time_elapsed"": 313691, ""imgName"": ""/static/images/celeba_gt_crop/attractive/100138.jpg"", ""questions"": ""[{\""prompt\"":\""<p>How attractive does this person look? Rate from 1-9</p>\"",\""labels\"":[\""1 <br/>Not attractive at all\"",\""2\"",\""3\"",\""4\"",\""5\"",\""6\"",\""7\"",\""8\"",\""9  <br/>Extremely attractive\""],\""required\"":true}]"", ""task_unique_trial"": 100, ""task_name"": ""attractive-gt"", ""trial_index"": 87, ""isRepeat"": 0}"
debugGEQMFL:debugSY4EBY,115,1547796753567,"{""rt"": null, ""trial_type"": ""html-keyboard-response"", ""task_unique_trial"": 100, ""stimulus"": ""<p>Good job!</p>"", ""task_version"": 1, ""internal_node_id"": ""0.0-8.0-1.0"", ""task_payment"": 1, ""time_elapsed"": 315195, ""debug_mode"": ""debug"", ""key_press"": null, ""task_name"": ""attractive-gt"", ""trial_index"": 88}"
debugGEQMFL:debugSY4EBY,116,1547796755706,"{""rt"": 2139, ""trial_type"": ""face-likert-amanda"", ""debug_mode"": ""debug"", ""task_type"": ""face trials"", ""responses"": ""{\""Q0\"":5}"", ""task_payment"": 1, ""task_version"": 1, ""internal_node_id"": ""0.0-9.0-0.0-0.0"", ""time_elapsed"": 317335, ""imgName"": ""/static/images/celeba_gt_crop/attractive/121110.jpg"", ""questions"": ""[{\""prompt\"":\""<p>How attractive does this person look? Rate from 1-9</p>\"",\""labels\"":[\""1 <br/>Not attractive at all\"",\""2\"",\""3\"",\""4\"",\""5\"",\""6\"",\""7\"",\""8\"",\""9  <br/>Extremely attractive\""],\""required\"":true}]"", ""task_unique_trial"": 100, ""task_name"": ""attractive-gt"", ""trial_index"": 89, ""isRepeat"": 0}"
debugGEQMFL:debugSY4EBY,117,1547796757394,"{""rt"": 1686, ""trial_type"": ""face-likert-amanda"", ""debug_mode"": ""debug"", ""task_type"": ""face trials"", ""responses"": ""{\""Q0\"":5}"", ""task_payment"": 1, ""task_version"": 1, ""internal_node_id"": ""0.0-9.0-0.0-1.0"", ""time_elapsed"": 319023, ""imgName"": ""/static/images/celeba_gt_crop/attractive/144346.jpg"", ""questions"": ""[{\""prompt\"":\""<p>How attractive does this person look? Rate from 1-9</p>\"",\""labels\"":[\""1 <br/>Not attractive at all\"",\""2\"",\""3\"",\""4\"",\""5\"",\""6\"",\""7\"",\""8\"",\""9  <br/>Extremely attractive\""],\""required\"":true}]"", ""task_unique_trial"": 100, ""task_name"": ""attractive-gt"", ""trial_index"": 90, ""isRepeat"": 0}"
debugGEQMFL:debugSY4EBY,118,1547796760807,"{""rt"": 3411, ""trial_type"": ""face-likert-amanda"", ""debug_mode"": ""debug"", ""task_type"": ""face trials"", ""responses"": ""{\""Q0\"":1}"", ""task_payment"": 1, ""task_version"": 1, ""internal_node_id"": ""0.0-9.0-0.0-2.0"", ""time_elapsed"": 322436, ""imgName"": ""/static/images/celeba_gt_crop/attractive/047217.jpg"", ""questions"": ""[{\""prompt\"":\""<p>How attractive does this person look? Rate from 1-9</p>\"",\""labels\"":[\""1 <br/>Not attractive at all\"",\""2\"",\""3\"",\""4\"",\""5\"",\""6\"",\""7\"",\""8\"",\""9  <br/>Extremely attractive\""],\""required\"":true}]"", ""task_unique_trial"": 100, ""task_name"": ""attractive-gt"", ""trial_index"": 91, ""isRepeat"": 0}"
debugGEQMFL:debugSY4EBY,119,1547796762711,"{""rt"": 1902, ""trial_type"": ""face-likert-amanda"", ""debug_mode"": ""debug"", ""task_type"": ""face trials"", ""responses"": ""{\""Q0\"":2}"", ""task_payment"": 1, ""task_version"": 1, ""internal_node_id"": ""0.0-9.0-0.0-3.0"", ""time_elapsed"": 324340, ""imgName"": ""/static/images/celeba_gt_crop/attractive/077912.jpg"", ""questions"": ""[{\""prompt\"":\""<p>How attractive does this person look? Rate from 1-9</p>\"",\""labels\"":[\""1 <br/>Not attractive at all\"",\""2\"",\""3\"",\""4\"",\""5\"",\""6\"",\""7\"",\""8\"",\""9  <br/>Extremely attractive\""],\""required\"":true}]"", ""task_unique_trial"": 100, ""task_name"": ""attractive-gt"", ""trial_index"": 92, ""isRepeat"": 0}"
debugGEQMFL:debugSY4EBY,120,1547796768974,"{""rt"": 6261, ""trial_type"": ""face-likert-amanda"", ""debug_mode"": ""debug"", ""task_type"": ""face trials"", ""responses"": ""{\""Q0\"":2}"", ""task_payment"": 1, ""task_version"": 1, ""internal_node_id"": ""0.0-9.0-0.0-4.0"", ""time_elapsed"": 330603, ""imgName"": ""/static/images/celeba_gt_crop/attractive/198128.jpg"", ""questions"": ""[{\""prompt\"":\""<p>How attractive does this person look? Rate from 1-9</p>\"",\""labels\"":[\""1 <br/>Not attractive at all\"",\""2\"",\""3\"",\""4\"",\""5\"",\""6\"",\""7\"",\""8\"",\""9  <br/>Extremely attractive\""],\""required\"":true}]"", ""task_unique_trial"": 100, ""task_name"": ""attractive-gt"", ""trial_index"": 93, ""isRepeat"": 0}"
debugGEQMFL:debugSY4EBY,121,1547796772409,"{""rt"": 3434, ""trial_type"": ""face-likert-amanda"", ""debug_mode"": ""debug"", ""task_type"": ""face trials"", ""responses"": ""{\""Q0\"":5}"", ""task_payment"": 1, ""task_version"": 1, ""internal_node_id"": ""0.0-9.0-0.0-5.0"", ""time_elapsed"": 334038, ""imgName"": ""/static/images/celeba_gt_crop/attractive/115789.jpg"", ""questions"": ""[{\""prompt\"":\""<p>How attractive does this person look? Rate from 1-9</p>\"",\""labels\"":[\""1 <br/>Not attractive at all\"",\""2\"",\""3\"",\""4\"",\""5\"",\""6\"",\""7\"",\""8\"",\""9  <br/>Extremely attractive\""],\""required\"":true}]"", ""task_unique_trial"": 100, ""task_name"": ""attractive-gt"", ""trial_index"": 94, ""isRepeat"": 0}"
debugGEQMFL:debugSY4EBY,122,1547796774914,"{""rt"": 2504, ""trial_type"": ""face-likert-amanda"", ""debug_mode"": ""debug"", ""task_type"": ""face trials"", ""responses"": ""{\""Q0\"":1}"", ""task_payment"": 1, ""task_version"": 1, ""internal_node_id"": ""0.0-9.0-0.0-6.0"", ""time_elapsed"": 336543, ""imgName"": ""/static/images/celeba_gt_crop/attractive/119535.jpg"", ""questions"": ""[{\""prompt\"":\""<p>How attractive does this person look? Rate from 1-9</p>\"",\""labels\"":[\""1 <br/>Not attractive at all\"",\""2\"",\""3\"",\""4\"",\""5\"",\""6\"",\""7\"",\""8\"",\""9  <br/>Extremely attractive\""],\""required\"":true}]"", ""task_unique_trial"": 100, ""task_name"": ""attractive-gt"", ""trial_index"": 95, ""isRepeat"": 0}"
debugGEQMFL:debugSY4EBY,123,1547796778071,"{""rt"": 3156, ""trial_type"": ""face-likert-amanda"", ""debug_mode"": ""debug"", ""task_type"": ""face trials"", ""responses"": ""{\""Q0\"":6}"", ""task_payment"": 1, ""task_version"": 1, ""internal_node_id"": ""0.0-9.0-0.0-7.0"", ""time_elapsed"": 339700, ""imgName"": ""/static/images/celeba_gt_crop/attractive/147371.jpg"", ""questions"": ""[{\""prompt\"":\""<p>How attractive does this person look? Rate from 1-9</p>\"",\""labels\"":[\""1 <br/>Not attractive at all\"",\""2\"",\""3\"",\""4\"",\""5\"",\""6\"",\""7\"",\""8\"",\""9  <br/>Extremely attractive\""],\""required\"":true}]"", ""task_unique_trial"": 100, ""task_name"": ""attractive-gt"", ""trial_index"": 96, ""isRepeat"": 0}"
debugGEQMFL:debugSY4EBY,124,1547796780996,"{""rt"": 2924, ""trial_type"": ""face-likert-amanda"", ""debug_mode"": ""debug"", ""task_type"": ""face trials"", ""responses"": ""{\""Q0\"":1}"", ""task_payment"": 1, ""task_version"": 1, ""internal_node_id"": ""0.0-9.0-0.0-8.0"", ""time_elapsed"": 342625, ""imgName"": ""/static/images/celeba_gt_crop/attractive/057518.jpg"", ""questions"": ""[{\""prompt\"":\""<p>How attractive does this person look? Rate from 1-9</p>\"",\""labels\"":[\""1 <br/>Not attractive at all\"",\""2\"",\""3\"",\""4\"",\""5\"",\""6\"",\""7\"",\""8\"",\""9  <br/>Extremely attractive\""],\""required\"":true}]"", ""task_unique_trial"": 100, ""task_name"": ""attractive-gt"", ""trial_index"": 97, ""isRepeat"": 0}"
debugGEQMFL:debugSY4EBY,125,1547796783861,"{""rt"": 2864, ""trial_type"": ""face-likert-amanda"", ""debug_mode"": ""debug"", ""task_type"": ""face trials"", ""responses"": ""{\""Q0\"":5}"", ""task_payment"": 1, ""task_version"": 1, ""internal_node_id"": ""0.0-9.0-0.0-9.0"", ""time_elapsed"": 345490, ""imgName"": ""/static/images/celeba_gt_crop/attractive/153098.jpg"", ""questions"": ""[{\""prompt\"":\""<p>How attractive does this person look? Rate from 1-9</p>\"",\""labels\"":[\""1 <br/>Not attractive at all\"",\""2\"",\""3\"",\""4\"",\""5\"",\""6\"",\""7\"",\""8\"",\""9  <br/>Extremely attractive\""],\""required\"":true}]"", ""task_unique_trial"": 100, ""task_name"": ""attractive-gt"", ""trial_index"": 98, ""isRepeat"": 0}"
debugGEQMFL:debugSY4EBY,126,1547796784864,"{""rt"": null, ""trial_type"": ""html-keyboard-response"", ""task_unique_trial"": 100, ""stimulus"": ""<p>Good job!</p>"", ""task_version"": 1, ""internal_node_id"": ""0.0-9.0-1.0"", ""task_payment"": 1, ""time_elapsed"": 346493, ""debug_mode"": ""debug"", ""key_press"": null, ""task_name"": ""attractive-gt"", ""trial_index"": 99}"
debugGEQMFL:debugSY4EBY,127,1547796787558,"{""rt"": 2693, ""trial_type"": ""face-likert-amanda"", ""debug_mode"": ""debug"", ""task_type"": ""face trials"", ""responses"": ""{\""Q0\"":0}"", ""task_payment"": 1, ""task_version"": 1, ""internal_node_id"": ""0.0-10.0-0.0-0.0"", ""time_elapsed"": 349187, ""imgName"": ""/static/images/celeba_gt_crop/attractive/164278.jpg"", ""questions"": ""[{\""prompt\"":\""<p>How attractive does this person look? Rate from 1-9</p>\"",\""labels\"":[\""1 <br/>Not attractive at all\"",\""2\"",\""3\"",\""4\"",\""5\"",\""6\"",\""7\"",\""8\"",\""9  <br/>Extremely attractive\""],\""required\"":true}]"", ""task_unique_trial"": 100, ""task_name"": ""attractive-gt"", ""trial_index"": 100, ""isRepeat"": 0}"
debugGEQMFL:debugSY4EBY,128,1547796792367,"{""rt"": 4807, ""trial_type"": ""face-likert-amanda"", ""debug_mode"": ""debug"", ""task_type"": ""face trials"", ""responses"": ""{\""Q0\"":0}"", ""task_payment"": 1, ""task_version"": 1, ""internal_node_id"": ""0.0-10.0-0.0-1.0"", ""time_elapsed"": 353996, ""imgName"": ""/static/images/celeba_gt_crop/attractive/164278.jpg"", ""questions"": ""[{\""prompt\"":\""<p>How attractive does this person look? Rate from 1-9</p>\"",\""labels\"":[\""1 <br/>Not attractive at all\"",\""2\"",\""3\"",\""4\"",\""5\"",\""6\"",\""7\"",\""8\"",\""9  <br/>Extremely attractive\""],\""required\"":true}]"", ""task_unique_trial"": 100, ""task_name"": ""attractive-gt"", ""trial_index"": 101, ""isRepeat"": 0}"
debugGEQMFL:debugSY4EBY,129,1547796794346,"{""rt"": 1978, ""trial_type"": ""face-likert-amanda"", ""debug_mode"": ""debug"", ""task_type"": ""face trials"", ""responses"": ""{\""Q0\"":2}"", ""task_payment"": 1, ""task_version"": 1, ""internal_node_id"": ""0.0-10.0-0.0-2.0"", ""time_elapsed"": 355975, ""imgName"": ""/static/images/celeba_gt_crop/attractive/070844.jpg"", ""questions"": ""[{\""prompt\"":\""<p>How attractive does this person look? Rate from 1-9</p>\"",\""labels\"":[\""1 <br/>Not attractive at all\"",\""2\"",\""3\"",\""4\"",\""5\"",\""6\"",\""7\"",\""8\"",\""9  <br/>Extremely attractive\""],\""required\"":true}]"", ""task_unique_trial"": 100, ""task_name"": ""attractive-gt"", ""trial_index"": 102, ""isRepeat"": 0}"
debugGEQMFL:debugSY4EBY,130,1547796800444,"{""rt"": 6096, ""trial_type"": ""face-likert-amanda"", ""debug_mode"": ""debug"", ""task_type"": ""face trials"", ""responses"": ""{\""Q0\"":2}"", ""task_payment"": 1, ""task_version"": 1, ""internal_node_id"": ""0.0-10.0-0.0-3.0"", ""time_elapsed"": 362073, ""imgName"": ""/static/images/celeba_gt_crop/attractive/117478.jpg"", ""questions"": ""[{\""prompt\"":\""<p>How attractive does this person look? Rate from 1-9</p>\"",\""labels\"":[\""1 <br/>Not attractive at all\"",\""2\"",\""3\"",\""4\"",\""5\"",\""6\"",\""7\"",\""8\"",\""9  <br/>Extremely attractive\""],\""required\"":true}]"", ""task_unique_trial"": 100, ""task_name"": ""attractive-gt"", ""trial_index"": 103, ""isRepeat"": 0}"
debugGEQMFL:debugSY4EBY,131,1547796803407,"{""rt"": 2961, ""trial_type"": ""face-likert-amanda"", ""debug_mode"": ""debug"", ""task_type"": ""face trials"", ""responses"": ""{\""Q0\"":3}"", ""task_payment"": 1, ""task_version"": 1, ""internal_node_id"": ""0.0-10.0-0.0-4.0"", ""time_elapsed"": 365036, ""imgName"": ""/static/images/celeba_gt_crop/attractive/068906.jpg"", ""questions"": ""[{\""prompt\"":\""<p>How attractive does this person look? Rate from 1-9</p>\"",\""labels\"":[\""1 <br/>Not attractive at all\"",\""2\"",\""3\"",\""4\"",\""5\"",\""6\"",\""7\"",\""8\"",\""9  <br/>Extremely attractive\""],\""required\"":true}]"", ""task_unique_trial"": 100, ""task_name"": ""attractive-gt"", ""trial_index"": 104, ""isRepeat"": 0}"
debugGEQMFL:debugSY4EBY,132,1547796809977,"{""rt"": 6569, ""trial_type"": ""face-likert-amanda"", ""debug_mode"": ""debug"", ""task_type"": ""face trials"", ""responses"": ""{\""Q0\"":7}"", ""task_payment"": 1, ""task_version"": 1, ""internal_node_id"": ""0.0-10.0-0.0-5.0"", ""time_elapsed"": 371606, ""imgName"": ""/static/images/celeba_gt_crop/attractive/119380.jpg"", ""questions"": ""[{\""prompt\"":\""<p>How attractive does this person look? Rate from 1-9</p>\"",\""labels\"":[\""1 <br/>Not attractive at all\"",\""2\"",\""3\"",\""4\"",\""5\"",\""6\"",\""7\"",\""8\"",\""9  <br/>Extremely attractive\""],\""required\"":true}]"", ""task_unique_trial"": 100, ""task_name"": ""attractive-gt"", ""trial_index"": 105, ""isRepeat"": 0}"
debugGEQMFL:debugSY4EBY,133,1547796812864,"{""rt"": 2886, ""trial_type"": ""face-likert-amanda"", ""debug_mode"": ""debug"", ""task_type"": ""face trials"", ""responses"": ""{\""Q0\"":3}"", ""task_payment"": 1, ""task_version"": 1, ""internal_node_id"": ""0.0-10.0-0.0-6.0"", ""time_elapsed"": 374493, ""imgName"": ""/static/images/celeba_gt_crop/attractive/031206.jpg"", ""questions"": ""[{\""prompt\"":\""<p>How attractive does this person look? Rate from 1-9</p>\"",\""labels\"":[\""1 <br/>Not attractive at all\"",\""2\"",\""3\"",\""4\"",\""5\"",\""6\"",\""7\"",\""8\"",\""9  <br/>Extremely attractive\""],\""required\"":true}]"", ""task_unique_trial"": 100, ""task_name"": ""attractive-gt"", ""trial_index"": 106, ""isRepeat"": 0}"
debugGEQMFL:debugSY4EBY,134,1547796817364,"{""rt"": 4498, ""trial_type"": ""face-likert-amanda"", ""debug_mode"": ""debug"", ""task_type"": ""face trials"", ""responses"": ""{\""Q0\"":7}"", ""task_payment"": 1, ""task_version"": 1, ""internal_node_id"": ""0.0-10.0-0.0-7.0"", ""time_elapsed"": 378993, ""imgName"": ""/static/images/celeba_gt_crop/attractive/035508.jpg"", ""questions"": ""[{\""prompt\"":\""<p>How attractive does this person look? Rate from 1-9</p>\"",\""labels\"":[\""1 <br/>Not attractive at all\"",\""2\"",\""3\"",\""4\"",\""5\"",\""6\"",\""7\"",\""8\"",\""9  <br/>Extremely attractive\""],\""required\"":true}]"", ""task_unique_trial"": 100, ""task_name"": ""attractive-gt"", ""trial_index"": 107, ""isRepeat"": 0}"
debugGEQMFL:debugSY4EBY,135,1547796819906,"{""rt"": 2540, ""trial_type"": ""face-likert-amanda"", ""debug_mode"": ""debug"", ""task_type"": ""face trials"", ""responses"": ""{\""Q0\"":1}"", ""task_payment"": 1, ""task_version"": 1, ""internal_node_id"": ""0.0-10.0-0.0-8.0"", ""time_elapsed"": 381535, ""imgName"": ""/static/images/celeba_gt_crop/attractive/198128.jpg"", ""questions"": ""[{\""prompt\"":\""<p>How attractive does this person look? Rate from 1-9</p>\"",\""labels\"":[\""1 <br/>Not attractive at all\"",\""2\"",\""3\"",\""4\"",\""5\"",\""6\"",\""7\"",\""8\"",\""9  <br/>Extremely attractive\""],\""required\"":true}]"", ""task_unique_trial"": 100, ""task_name"": ""attractive-gt"", ""trial_index"": 108, ""isRepeat"": 0}"
debugGEQMFL:debugSY4EBY,136,1547796824804,"{""rt"": 4897, ""trial_type"": ""face-likert-amanda"", ""debug_mode"": ""debug"", ""task_type"": ""face trials"", ""responses"": ""{\""Q0\"":5}"", ""task_payment"": 1, ""task_version"": 1, ""internal_node_id"": ""0.0-10.0-0.0-9.0"", ""time_elapsed"": 386433, ""imgName"": ""/static/images/celeba_gt_crop/attractive/144346.jpg"", ""questions"": ""[{\""prompt\"":\""<p>How attractive does this person look? Rate from 1-9</p>\"",\""labels\"":[\""1 <br/>Not attractive at all\"",\""2\"",\""3\"",\""4\"",\""5\"",\""6\"",\""7\"",\""8\"",\""9  <br/>Extremely attractive\""],\""required\"":true}]"", ""task_unique_trial"": 100, ""task_name"": ""attractive-gt"", ""trial_index"": 109, ""isRepeat"": 0}"
debugGEQMFL:debugSY4EBY,137,1547796825805,"{""rt"": null, ""trial_type"": ""html-keyboard-response"", ""task_unique_trial"": 100, ""stimulus"": ""<p>Good job!</p>"", ""task_version"": 1, ""internal_node_id"": ""0.0-10.0-1.0"", ""task_payment"": 1, ""time_elapsed"": 387434, ""debug_mode"": ""debug"", ""key_press"": null, ""task_name"": ""attractive-gt"", ""trial_index"": 110}"
