,subId,rt,imgName,rating,trial_index,debug_mode
0,A1QVNF19XSRSD7:3IAS3U3I0HNCWS3T1ICE01G37R12B0,3812,067113_0.015151515151515249.png,6,2,live
1,A1QVNF19XSRSD7:3IAS3U3I0HNCWS3T1ICE01G37R12B0,2039,140496_-0.06565656565656564.png,7,3,live
2,A1QVNF19XSRSD7:3IAS3U3I0HNCWS3T1ICE01G37R12B0,1781,173471_0.045454545454545525.png,3,4,live
3,A1QVNF19XSRSD7:3IAS3U3I0HNCWS3T1ICE01G37R12B0,3038,047685_-0.5.png,4,5,live
4,A1QVNF19XSRSD7:3IAS3U3I0HNCWS3T1ICE01G37R12B0,1897,069583_0.16666666666666674.png,3,6,live
5,A1QVNF19XSRSD7:3IAS3U3I0HNCWS3T1ICE01G37R12B0,1596,037153_0.09595959595959602.png,4,7,live
6,A1QVNF19XSRSD7:3IAS3U3I0HNCWS3T1ICE01G37R12B0,1615,006062_0.4797979797979799.png,5,8,live
7,A1QVNF19XSRSD7:3IAS3U3I0HNCWS3T1ICE01G37R12B0,1884,084706_-0.12626262626262624.png,3,9,live
8,A1QVNF19XSRSD7:3IAS3U3I0HNCWS3T1ICE01G37R12B0,1720,147787_-0.16666666666666663.png,3,10,live
9,A1QVNF19XSRSD7:3IAS3U3I0HNCWS3T1ICE01G37R12B0,1625,186181_0.43939393939393945.png,4,11,live
10,A1QVNF19XSRSD7:3IAS3U3I0HNCWS3T1ICE01G37R12B0,2116,034808_-0.025252525252525193.png,6,13,live
11,A1QVNF19XSRSD7:3IAS3U3I0HNCWS3T1ICE01G37R12B0,13066,030112_0.48989898989898994.png,6,14,live
12,A1QVNF19XSRSD7:3IAS3U3I0HNCWS3T1ICE01G37R12B0,1740,190639_-0.21717171717171713.png,6,15,live
13,A1QVNF19XSRSD7:3IAS3U3I0HNCWS3T1ICE01G37R12B0,1732,119128_0.36868686868686873.png,5,16,live
14,A1QVNF19XSRSD7:3IAS3U3I0HNCWS3T1ICE01G37R12B0,1770,054707_0.45959595959595967.png,5,17,live
15,A1QVNF19XSRSD7:3IAS3U3I0HNCWS3T1ICE01G37R12B0,3535,201865_0.20707070707070718.png,7,18,live
16,A1QVNF19XSRSD7:3IAS3U3I0HNCWS3T1ICE01G37R12B0,2141,059261_0.15656565656565657.png,6,19,live
17,A1QVNF19XSRSD7:3IAS3U3I0HNCWS3T1ICE01G37R12B0,1783,092972_0.21717171717171724.png,6,20,live
18,A1QVNF19XSRSD7:3IAS3U3I0HNCWS3T1ICE01G37R12B0,1955,065364_0.23737373737373746.png,3,21,live
19,A1QVNF19XSRSD7:3IAS3U3I0HNCWS3T1ICE01G37R12B0,1675,195445_0.297979797979798.png,4,22,live
20,A1QVNF19XSRSD7:3IAS3U3I0HNCWS3T1ICE01G37R12B0,9423,177574_0.13636363636363646.png,6,24,live
21,A1QVNF19XSRSD7:3IAS3U3I0HNCWS3T1ICE01G37R12B0,1717,037153_0.09595959595959602.png,7,25,live
22,A1QVNF19XSRSD7:3IAS3U3I0HNCWS3T1ICE01G37R12B0,1751,094401_-0.20707070707070707.png,6,26,live
23,A1QVNF19XSRSD7:3IAS3U3I0HNCWS3T1ICE01G37R12B0,1601,142628_-0.30808080808080807.png,3,27,live
24,A1QVNF19XSRSD7:3IAS3U3I0HNCWS3T1ICE01G37R12B0,2018,112709_0.28787878787878796.png,4,28,live
25,A1QVNF19XSRSD7:3IAS3U3I0HNCWS3T1ICE01G37R12B0,2766,097347_0.05555555555555558.png,3,29,live
26,A1QVNF19XSRSD7:3IAS3U3I0HNCWS3T1ICE01G37R12B0,2356,103215_-0.4292929292929293.png,7,30,live
27,A1QVNF19XSRSD7:3IAS3U3I0HNCWS3T1ICE01G37R12B0,2476,062124_-0.25757575757575757.png,5,31,live
28,A1QVNF19XSRSD7:3IAS3U3I0HNCWS3T1ICE01G37R12B0,2668,110741_-0.23737373737373735.png,7,32,live
29,A1QVNF19XSRSD7:3IAS3U3I0HNCWS3T1ICE01G37R12B0,3544,015763_0.18686868686868696.png,6,33,live
30,A1QVNF19XSRSD7:3IAS3U3I0HNCWS3T1ICE01G37R12B0,2358,065726_0.2575757575757577.png,4,35,live
31,A1QVNF19XSRSD7:3IAS3U3I0HNCWS3T1ICE01G37R12B0,3187,132296_-0.1464646464646464.png,7,36,live
32,A1QVNF19XSRSD7:3IAS3U3I0HNCWS3T1ICE01G37R12B0,1692,153739_0.3585858585858587.png,6,37,live
33,A1QVNF19XSRSD7:3IAS3U3I0HNCWS3T1ICE01G37R12B0,1697,178658_0.4292929292929294.png,7,38,live
34,A1QVNF19XSRSD7:3IAS3U3I0HNCWS3T1ICE01G37R12B0,2353,097133_0.03535353535353536.png,3,39,live
35,A1QVNF19XSRSD7:3IAS3U3I0HNCWS3T1ICE01G37R12B0,1625,113221_-0.3484848484848485.png,4,40,live
36,A1QVNF19XSRSD7:3IAS3U3I0HNCWS3T1ICE01G37R12B0,2180,083159_-0.4696969696969697.png,2,41,live
37,A1QVNF19XSRSD7:3IAS3U3I0HNCWS3T1ICE01G37R12B0,1739,177845_0.4191919191919192.png,5,42,live
38,A1QVNF19XSRSD7:3IAS3U3I0HNCWS3T1ICE01G37R12B0,1871,062124_-0.25757575757575757.png,4,43,live
39,A1QVNF19XSRSD7:3IAS3U3I0HNCWS3T1ICE01G37R12B0,1783,167120_0.14646464646464652.png,6,44,live
40,A1QVNF19XSRSD7:3IAS3U3I0HNCWS3T1ICE01G37R12B0,2722,072205_0.4696969696969697.png,7,46,live
41,A1QVNF19XSRSD7:3IAS3U3I0HNCWS3T1ICE01G37R12B0,1985,080303_0.33838383838383845.png,7,47,live
42,A1QVNF19XSRSD7:3IAS3U3I0HNCWS3T1ICE01G37R12B0,1834,186181_0.43939393939393945.png,5,48,live
43,A1QVNF19XSRSD7:3IAS3U3I0HNCWS3T1ICE01G37R12B0,1837,181258_-0.11616161616161613.png,4,49,live
44,A1QVNF19XSRSD7:3IAS3U3I0HNCWS3T1ICE01G37R12B0,2119,019861_0.38888888888888895.png,6,50,live
45,A1QVNF19XSRSD7:3IAS3U3I0HNCWS3T1ICE01G37R12B0,1525,037387_-0.015151515151515138.png,6,51,live
46,A1QVNF19XSRSD7:3IAS3U3I0HNCWS3T1ICE01G37R12B0,1655,003828_-0.10606060606060602.png,5,52,live
47,A1QVNF19XSRSD7:3IAS3U3I0HNCWS3T1ICE01G37R12B0,3345,152726_0.2777777777777778.png,3,53,live
48,A1QVNF19XSRSD7:3IAS3U3I0HNCWS3T1ICE01G37R12B0,2831,167751_-0.3686868686868687.png,7,54,live
49,A1QVNF19XSRSD7:3IAS3U3I0HNCWS3T1ICE01G37R12B0,1795,049568_-0.4595959595959596.png,6,55,live
50,A1QVNF19XSRSD7:3IAS3U3I0HNCWS3T1ICE01G37R12B0,2220,028632_0.31818181818181823.png,7,57,live
51,A1QVNF19XSRSD7:3IAS3U3I0HNCWS3T1ICE01G37R12B0,1910,077214_-0.3787878787878788.png,6,58,live
52,A1QVNF19XSRSD7:3IAS3U3I0HNCWS3T1ICE01G37R12B0,1997,115024_-0.33838383838383834.png,7,59,live
53,A1QVNF19XSRSD7:3IAS3U3I0HNCWS3T1ICE01G37R12B0,1817,145045_-0.07575757575757575.png,3,60,live
54,A1QVNF19XSRSD7:3IAS3U3I0HNCWS3T1ICE01G37R12B0,1695,006062_0.4797979797979799.png,4,61,live
55,A1QVNF19XSRSD7:3IAS3U3I0HNCWS3T1ICE01G37R12B0,1711,087975_-0.29797979797979796.png,5,62,live
56,A1QVNF19XSRSD7:3IAS3U3I0HNCWS3T1ICE01G37R12B0,1740,156901_-0.41919191919191917.png,6,63,live
57,A1QVNF19XSRSD7:3IAS3U3I0HNCWS3T1ICE01G37R12B0,1944,176556_-0.35858585858585856.png,7,64,live
58,A1QVNF19XSRSD7:3IAS3U3I0HNCWS3T1ICE01G37R12B0,1584,093413_-0.3888888888888889.png,7,65,live
59,A1QVNF19XSRSD7:3IAS3U3I0HNCWS3T1ICE01G37R12B0,1703,141797_-0.045454545454545414.png,4,66,live
60,A1QVNF19XSRSD7:3IAS3U3I0HNCWS3T1ICE01G37R12B0,2288,069574_0.3080808080808082.png,5,68,live
61,A1QVNF19XSRSD7:3IAS3U3I0HNCWS3T1ICE01G37R12B0,1745,156901_-0.41919191919191917.png,6,69,live
62,A1QVNF19XSRSD7:3IAS3U3I0HNCWS3T1ICE01G37R12B0,2661,153739_0.3585858585858587.png,7,70,live
63,A1QVNF19XSRSD7:3IAS3U3I0HNCWS3T1ICE01G37R12B0,1738,038062_-0.28787878787878785.png,4,71,live
64,A1QVNF19XSRSD7:3IAS3U3I0HNCWS3T1ICE01G37R12B0,1555,152768_0.4494949494949496.png,5,72,live
65,A1QVNF19XSRSD7:3IAS3U3I0HNCWS3T1ICE01G37R12B0,1995,041733_0.3989898989898991.png,3,73,live
66,A1QVNF19XSRSD7:3IAS3U3I0HNCWS3T1ICE01G37R12B0,1595,163069_-0.3282828282828283.png,4,74,live
67,A1QVNF19XSRSD7:3IAS3U3I0HNCWS3T1ICE01G37R12B0,1774,121258_-0.398989898989899.png,5,75,live
68,A1QVNF19XSRSD7:3IAS3U3I0HNCWS3T1ICE01G37R12B0,2235,122021_0.24747474747474751.png,6,76,live
69,A1QVNF19XSRSD7:3IAS3U3I0HNCWS3T1ICE01G37R12B0,2168,190639_-0.21717171717171713.png,7,77,live
70,A1QVNF19XSRSD7:3IAS3U3I0HNCWS3T1ICE01G37R12B0,2835,110741_-0.23737373737373735.png,8,79,live
71,A1QVNF19XSRSD7:3IAS3U3I0HNCWS3T1ICE01G37R12B0,2022,069574_0.3080808080808082.png,6,80,live
72,A1QVNF19XSRSD7:3IAS3U3I0HNCWS3T1ICE01G37R12B0,1572,087975_-0.29797979797979796.png,7,81,live
73,A1QVNF19XSRSD7:3IAS3U3I0HNCWS3T1ICE01G37R12B0,2306,020995_-0.09595959595959591.png,5,82,live
74,A1QVNF19XSRSD7:3IAS3U3I0HNCWS3T1ICE01G37R12B0,2102,145045_-0.07575757575757575.png,3,83,live
75,A1QVNF19XSRSD7:3IAS3U3I0HNCWS3T1ICE01G37R12B0,2931,139558_0.1262626262626263.png,4,84,live
76,A1QVNF19XSRSD7:3IAS3U3I0HNCWS3T1ICE01G37R12B0,1693,067113_0.015151515151515249.png,5,85,live
77,A1QVNF19XSRSD7:3IAS3U3I0HNCWS3T1ICE01G37R12B0,1832,080303_0.33838383838383845.png,7,86,live
78,A1QVNF19XSRSD7:3IAS3U3I0HNCWS3T1ICE01G37R12B0,1579,152768_0.4494949494949496.png,6,87,live
79,A1QVNF19XSRSD7:3IAS3U3I0HNCWS3T1ICE01G37R12B0,1469,174771_0.10606060606060608.png,6,88,live
80,A1QVNF19XSRSD7:3IAS3U3I0HNCWS3T1ICE01G37R12B0,2087,161186_-0.24747474747474746.png,5,90,live
81,A1QVNF19XSRSD7:3IAS3U3I0HNCWS3T1ICE01G37R12B0,2095,142628_-0.30808080808080807.png,3,91,live
82,A1QVNF19XSRSD7:3IAS3U3I0HNCWS3T1ICE01G37R12B0,2698,151012_0.11616161616161624.png,4,92,live
83,A1QVNF19XSRSD7:3IAS3U3I0HNCWS3T1ICE01G37R12B0,1314,181258_-0.11616161616161613.png,4,93,live
84,A1QVNF19XSRSD7:3IAS3U3I0HNCWS3T1ICE01G37R12B0,1625,081495_-0.17676767676767674.png,6,94,live
85,A1QVNF19XSRSD7:3IAS3U3I0HNCWS3T1ICE01G37R12B0,1641,050496_-0.4898989898989899.png,5,95,live
86,A1QVNF19XSRSD7:3IAS3U3I0HNCWS3T1ICE01G37R12B0,2006,084650_0.40909090909090917.png,7,96,live
87,A1QVNF19XSRSD7:3IAS3U3I0HNCWS3T1ICE01G37R12B0,2977,081495_-0.17676767676767674.png,5,97,live
88,A1QVNF19XSRSD7:3IAS3U3I0HNCWS3T1ICE01G37R12B0,1540,065004_0.5.png,6,98,live
89,A1QVNF19XSRSD7:3IAS3U3I0HNCWS3T1ICE01G37R12B0,1984,023665_0.005050505050505083.png,7,99,live
90,A1QVNF19XSRSD7:3IAS3U3I0HNCWS3T1ICE01G37R12B0,3410,080357_-0.055555555555555525.png,6,101,live
91,A1QVNF19XSRSD7:3IAS3U3I0HNCWS3T1ICE01G37R12B0,3121,021469_-0.2676767676767676.png,8,102,live
92,A1QVNF19XSRSD7:3IAS3U3I0HNCWS3T1ICE01G37R12B0,2386,092972_0.21717171717171724.png,3,103,live
93,A1QVNF19XSRSD7:3IAS3U3I0HNCWS3T1ICE01G37R12B0,2080,130683_-0.19696969696969696.png,4,104,live
94,A1QVNF19XSRSD7:3IAS3U3I0HNCWS3T1ICE01G37R12B0,2411,093413_-0.3888888888888889.png,2,105,live
95,A1QVNF19XSRSD7:3IAS3U3I0HNCWS3T1ICE01G37R12B0,10054,130683_-0.19696969696969696.png,4,106,live
96,A1QVNF19XSRSD7:3IAS3U3I0HNCWS3T1ICE01G37R12B0,2000,113061_-0.13636363636363635.png,6,107,live
97,A1QVNF19XSRSD7:3IAS3U3I0HNCWS3T1ICE01G37R12B0,2333,190655_0.025252525252525304.png,7,108,live
98,A1QVNF19XSRSD7:3IAS3U3I0HNCWS3T1ICE01G37R12B0,1570,064390_0.3787878787878789.png,5,109,live
99,A1QVNF19XSRSD7:3IAS3U3I0HNCWS3T1ICE01G37R12B0,1848,003820_0.2272727272727273.png,4,110,live
100,A3CJBVOK16PA00:3FTYUGLFSWSXAMK0XX5ITY7FUM65DD,2398,041733_0.3989898989898991.png,7,2,live
101,A3CJBVOK16PA00:3FTYUGLFSWSXAMK0XX5ITY7FUM65DD,148433,152768_0.4494949494949496.png,5,3,live
102,A3CJBVOK16PA00:3FTYUGLFSWSXAMK0XX5ITY7FUM65DD,3575,092972_0.21717171717171724.png,5,4,live
103,A3CJBVOK16PA00:3FTYUGLFSWSXAMK0XX5ITY7FUM65DD,6096,113221_-0.3484848484848485.png,6,5,live
104,A3CJBVOK16PA00:3FTYUGLFSWSXAMK0XX5ITY7FUM65DD,22801,067113_0.015151515151515249.png,5,6,live
105,A3CJBVOK16PA00:3FTYUGLFSWSXAMK0XX5ITY7FUM65DD,2934,037387_-0.015151515151515138.png,6,7,live
106,A3CJBVOK16PA00:3FTYUGLFSWSXAMK0XX5ITY7FUM65DD,3565,087975_-0.29797979797979796.png,4,8,live
107,A3CJBVOK16PA00:3FTYUGLFSWSXAMK0XX5ITY7FUM65DD,1902,195445_0.297979797979798.png,6,9,live
108,A3CJBVOK16PA00:3FTYUGLFSWSXAMK0XX5ITY7FUM65DD,7310,130683_-0.19696969696969696.png,6,10,live
109,A3CJBVOK16PA00:3FTYUGLFSWSXAMK0XX5ITY7FUM65DD,1726,037153_0.09595959595959602.png,5,11,live
110,A3CJBVOK16PA00:3FTYUGLFSWSXAMK0XX5ITY7FUM65DD,1653,167120_0.14646464646464652.png,6,13,live
111,A3CJBVOK16PA00:3FTYUGLFSWSXAMK0XX5ITY7FUM65DD,2599,156901_-0.41919191919191917.png,5,14,live
112,A3CJBVOK16PA00:3FTYUGLFSWSXAMK0XX5ITY7FUM65DD,99624,161186_-0.24747474747474746.png,6,15,live
113,A3CJBVOK16PA00:3FTYUGLFSWSXAMK0XX5ITY7FUM65DD,3365,141797_-0.045454545454545414.png,5,16,live
114,A3CJBVOK16PA00:3FTYUGLFSWSXAMK0XX5ITY7FUM65DD,1199,181258_-0.11616161616161613.png,6,17,live
115,A3CJBVOK16PA00:3FTYUGLFSWSXAMK0XX5ITY7FUM65DD,1242,084650_0.40909090909090917.png,4,18,live
116,A3CJBVOK16PA00:3FTYUGLFSWSXAMK0XX5ITY7FUM65DD,1494,142628_-0.30808080808080807.png,6,19,live
117,A3CJBVOK16PA00:3FTYUGLFSWSXAMK0XX5ITY7FUM65DD,1302,176556_-0.35858585858585856.png,5,20,live
118,A3CJBVOK16PA00:3FTYUGLFSWSXAMK0XX5ITY7FUM65DD,2399,080303_0.33838383838383845.png,5,21,live
119,A3CJBVOK16PA00:3FTYUGLFSWSXAMK0XX5ITY7FUM65DD,1886,054707_0.45959595959595967.png,6,22,live
120,A3CJBVOK16PA00:3FTYUGLFSWSXAMK0XX5ITY7FUM65DD,46874,186181_0.43939393939393945.png,6,24,live
121,A3CJBVOK16PA00:3FTYUGLFSWSXAMK0XX5ITY7FUM65DD,5319,130683_-0.19696969696969696.png,6,25,live
122,A3CJBVOK16PA00:3FTYUGLFSWSXAMK0XX5ITY7FUM65DD,2879,050496_-0.4898989898989899.png,6,26,live
123,A3CJBVOK16PA00:3FTYUGLFSWSXAMK0XX5ITY7FUM65DD,2639,201865_0.20707070707070718.png,5,27,live
124,A3CJBVOK16PA00:3FTYUGLFSWSXAMK0XX5ITY7FUM65DD,3029,003820_0.2272727272727273.png,5,28,live
125,A3CJBVOK16PA00:3FTYUGLFSWSXAMK0XX5ITY7FUM65DD,2175,173471_0.045454545454545525.png,6,29,live
126,A3CJBVOK16PA00:3FTYUGLFSWSXAMK0XX5ITY7FUM65DD,1862,190639_-0.21717171717171713.png,5,30,live
127,A3CJBVOK16PA00:3FTYUGLFSWSXAMK0XX5ITY7FUM65DD,88591,003828_-0.10606060606060602.png,7,31,live
128,A3CJBVOK16PA00:3FTYUGLFSWSXAMK0XX5ITY7FUM65DD,1403,097347_0.05555555555555558.png,6,32,live
129,A3CJBVOK16PA00:3FTYUGLFSWSXAMK0XX5ITY7FUM65DD,5174,132296_-0.1464646464646464.png,7,33,live
130,A3CJBVOK16PA00:3FTYUGLFSWSXAMK0XX5ITY7FUM65DD,12869,119128_0.36868686868686873.png,7,35,live
131,A3CJBVOK16PA00:3FTYUGLFSWSXAMK0XX5ITY7FUM65DD,1887,147787_-0.16666666666666663.png,6,36,live
132,A3CJBVOK16PA00:3FTYUGLFSWSXAMK0XX5ITY7FUM65DD,1887,077214_-0.3787878787878788.png,7,37,live
133,A3CJBVOK16PA00:3FTYUGLFSWSXAMK0XX5ITY7FUM65DD,1229,023665_0.005050505050505083.png,5,38,live
134,A3CJBVOK16PA00:3FTYUGLFSWSXAMK0XX5ITY7FUM65DD,1686,034808_-0.025252525252525193.png,7,39,live
135,A3CJBVOK16PA00:3FTYUGLFSWSXAMK0XX5ITY7FUM65DD,1383,037153_0.09595959595959602.png,4,40,live
136,A3CJBVOK16PA00:3FTYUGLFSWSXAMK0XX5ITY7FUM65DD,2102,094401_-0.20707070707070707.png,6,41,live
137,A3CJBVOK16PA00:3FTYUGLFSWSXAMK0XX5ITY7FUM65DD,3919,177845_0.4191919191919192.png,5,42,live
138,A3CJBVOK16PA00:3FTYUGLFSWSXAMK0XX5ITY7FUM65DD,1142,081495_-0.17676767676767674.png,6,43,live
139,A3CJBVOK16PA00:3FTYUGLFSWSXAMK0XX5ITY7FUM65DD,1037,181258_-0.11616161616161613.png,5,44,live
140,A3CJBVOK16PA00:3FTYUGLFSWSXAMK0XX5ITY7FUM65DD,5016,062124_-0.25757575757575757.png,6,46,live
141,A3CJBVOK16PA00:3FTYUGLFSWSXAMK0XX5ITY7FUM65DD,1431,059261_0.15656565656565657.png,7,47,live
142,A3CJBVOK16PA00:3FTYUGLFSWSXAMK0XX5ITY7FUM65DD,1415,092972_0.21717171717171724.png,6,48,live
143,A3CJBVOK16PA00:3FTYUGLFSWSXAMK0XX5ITY7FUM65DD,1055,006062_0.4797979797979799.png,5,49,live
144,A3CJBVOK16PA00:3FTYUGLFSWSXAMK0XX5ITY7FUM65DD,1334,006062_0.4797979797979799.png,6,50,live
145,A3CJBVOK16PA00:3FTYUGLFSWSXAMK0XX5ITY7FUM65DD,1549,065364_0.23737373737373746.png,6,51,live
146,A3CJBVOK16PA00:3FTYUGLFSWSXAMK0XX5ITY7FUM65DD,1486,069574_0.3080808080808082.png,6,52,live
147,A3CJBVOK16PA00:3FTYUGLFSWSXAMK0XX5ITY7FUM65DD,5449,145045_-0.07575757575757575.png,6,53,live
148,A3CJBVOK16PA00:3FTYUGLFSWSXAMK0XX5ITY7FUM65DD,1099,093413_-0.3888888888888889.png,5,54,live
149,A3CJBVOK16PA00:3FTYUGLFSWSXAMK0XX5ITY7FUM65DD,2973,140496_-0.06565656565656564.png,6,55,live
150,A3CJBVOK16PA00:3FTYUGLFSWSXAMK0XX5ITY7FUM65DD,3899,062124_-0.25757575757575757.png,7,57,live
151,A3CJBVOK16PA00:3FTYUGLFSWSXAMK0XX5ITY7FUM65DD,1943,038062_-0.28787878787878785.png,5,58,live
152,A3CJBVOK16PA00:3FTYUGLFSWSXAMK0XX5ITY7FUM65DD,1727,072205_0.4696969696969697.png,6,59,live
153,A3CJBVOK16PA00:3FTYUGLFSWSXAMK0XX5ITY7FUM65DD,1942,163069_-0.3282828282828283.png,5,60,live
154,A3CJBVOK16PA00:3FTYUGLFSWSXAMK0XX5ITY7FUM65DD,2623,115024_-0.33838383838383834.png,6,61,live
155,A3CJBVOK16PA00:3FTYUGLFSWSXAMK0XX5ITY7FUM65DD,1188,112709_0.28787878787878796.png,7,62,live
156,A3CJBVOK16PA00:3FTYUGLFSWSXAMK0XX5ITY7FUM65DD,1302,177574_0.13636363636363646.png,6,63,live
157,A3CJBVOK16PA00:3FTYUGLFSWSXAMK0XX5ITY7FUM65DD,1325,097133_0.03535353535353536.png,6,64,live
158,A3CJBVOK16PA00:3FTYUGLFSWSXAMK0XX5ITY7FUM65DD,1223,020995_-0.09595959595959591.png,5,65,live
159,A3CJBVOK16PA00:3FTYUGLFSWSXAMK0XX5ITY7FUM65DD,1551,190655_0.025252525252525304.png,6,66,live
160,A3CJBVOK16PA00:3FTYUGLFSWSXAMK0XX5ITY7FUM65DD,1892,113061_-0.13636363636363635.png,6,68,live
161,A3CJBVOK16PA00:3FTYUGLFSWSXAMK0XX5ITY7FUM65DD,2108,065726_0.2575757575757577.png,5,69,live
162,A3CJBVOK16PA00:3FTYUGLFSWSXAMK0XX5ITY7FUM65DD,1501,081495_-0.17676767676767674.png,6,70,live
163,A3CJBVOK16PA00:3FTYUGLFSWSXAMK0XX5ITY7FUM65DD,1303,049568_-0.4595959595959596.png,6,71,live
164,A3CJBVOK16PA00:3FTYUGLFSWSXAMK0XX5ITY7FUM65DD,1474,121258_-0.398989898989899.png,6,72,live
165,A3CJBVOK16PA00:3FTYUGLFSWSXAMK0XX5ITY7FUM65DD,2341,156901_-0.41919191919191917.png,5,73,live
166,A3CJBVOK16PA00:3FTYUGLFSWSXAMK0XX5ITY7FUM65DD,1631,153739_0.3585858585858587.png,4,74,live
167,A3CJBVOK16PA00:3FTYUGLFSWSXAMK0XX5ITY7FUM65DD,1606,083159_-0.4696969696969697.png,6,75,live
168,A3CJBVOK16PA00:3FTYUGLFSWSXAMK0XX5ITY7FUM65DD,1678,069583_0.16666666666666674.png,7,76,live
169,A3CJBVOK16PA00:3FTYUGLFSWSXAMK0XX5ITY7FUM65DD,3846,152768_0.4494949494949496.png,5,77,live
170,A3CJBVOK16PA00:3FTYUGLFSWSXAMK0XX5ITY7FUM65DD,8574,142628_-0.30808080808080807.png,6,79,live
171,A3CJBVOK16PA00:3FTYUGLFSWSXAMK0XX5ITY7FUM65DD,2179,084706_-0.12626262626262624.png,5,80,live
172,A3CJBVOK16PA00:3FTYUGLFSWSXAMK0XX5ITY7FUM65DD,1080,103215_-0.4292929292929293.png,6,81,live
173,A3CJBVOK16PA00:3FTYUGLFSWSXAMK0XX5ITY7FUM65DD,2050,087975_-0.29797979797979796.png,5,82,live
174,A3CJBVOK16PA00:3FTYUGLFSWSXAMK0XX5ITY7FUM65DD,2186,065004_0.5.png,6,83,live
175,A3CJBVOK16PA00:3FTYUGLFSWSXAMK0XX5ITY7FUM65DD,2215,178658_0.4292929292929294.png,5,84,live
176,A3CJBVOK16PA00:3FTYUGLFSWSXAMK0XX5ITY7FUM65DD,1548,021469_-0.2676767676767676.png,6,85,live
177,A3CJBVOK16PA00:3FTYUGLFSWSXAMK0XX5ITY7FUM65DD,2812,080357_-0.055555555555555525.png,5,86,live
178,A3CJBVOK16PA00:3FTYUGLFSWSXAMK0XX5ITY7FUM65DD,1764,110741_-0.23737373737373735.png,6,87,live
179,A3CJBVOK16PA00:3FTYUGLFSWSXAMK0XX5ITY7FUM65DD,1284,145045_-0.07575757575757575.png,6,88,live
180,A3CJBVOK16PA00:3FTYUGLFSWSXAMK0XX5ITY7FUM65DD,21114,019861_0.38888888888888895.png,6,90,live
181,A3CJBVOK16PA00:3FTYUGLFSWSXAMK0XX5ITY7FUM65DD,1428,028632_0.31818181818181823.png,5,91,live
182,A3CJBVOK16PA00:3FTYUGLFSWSXAMK0XX5ITY7FUM65DD,2307,069574_0.3080808080808082.png,5,92,live
183,A3CJBVOK16PA00:3FTYUGLFSWSXAMK0XX5ITY7FUM65DD,1852,064390_0.3787878787878789.png,6,93,live
184,A3CJBVOK16PA00:3FTYUGLFSWSXAMK0XX5ITY7FUM65DD,1255,186181_0.43939393939393945.png,4,94,live
185,A3CJBVOK16PA00:3FTYUGLFSWSXAMK0XX5ITY7FUM65DD,1213,093413_-0.3888888888888889.png,6,95,live
186,A3CJBVOK16PA00:3FTYUGLFSWSXAMK0XX5ITY7FUM65DD,1242,080303_0.33838383838383845.png,5,96,live
187,A3CJBVOK16PA00:3FTYUGLFSWSXAMK0XX5ITY7FUM65DD,1653,153739_0.3585858585858587.png,6,97,live
188,A3CJBVOK16PA00:3FTYUGLFSWSXAMK0XX5ITY7FUM65DD,6223,151012_0.11616161616161624.png,6,98,live
189,A3CJBVOK16PA00:3FTYUGLFSWSXAMK0XX5ITY7FUM65DD,1396,067113_0.015151515151515249.png,6,99,live
190,A3CJBVOK16PA00:3FTYUGLFSWSXAMK0XX5ITY7FUM65DD,1926,190639_-0.21717171717171713.png,6,101,live
191,A3CJBVOK16PA00:3FTYUGLFSWSXAMK0XX5ITY7FUM65DD,2318,030112_0.48989898989898994.png,5,102,live
192,A3CJBVOK16PA00:3FTYUGLFSWSXAMK0XX5ITY7FUM65DD,1986,139558_0.1262626262626263.png,5,103,live
193,A3CJBVOK16PA00:3FTYUGLFSWSXAMK0XX5ITY7FUM65DD,1755,167751_-0.3686868686868687.png,6,104,live
194,A3CJBVOK16PA00:3FTYUGLFSWSXAMK0XX5ITY7FUM65DD,1352,110741_-0.23737373737373735.png,6,105,live
195,A3CJBVOK16PA00:3FTYUGLFSWSXAMK0XX5ITY7FUM65DD,1803,152726_0.2777777777777778.png,6,106,live
196,A3CJBVOK16PA00:3FTYUGLFSWSXAMK0XX5ITY7FUM65DD,1490,015763_0.18686868686868696.png,5,107,live
197,A3CJBVOK16PA00:3FTYUGLFSWSXAMK0XX5ITY7FUM65DD,1592,174771_0.10606060606060608.png,6,108,live
198,A3CJBVOK16PA00:3FTYUGLFSWSXAMK0XX5ITY7FUM65DD,1444,122021_0.24747474747474751.png,7,109,live
199,A3CJBVOK16PA00:3FTYUGLFSWSXAMK0XX5ITY7FUM65DD,1285,047685_-0.5.png,6,110,live
200,AOS2PVHT2HYTL:3Y5140Z9DZNIB7I59QF7I1S9DRCPII,12464,069583_0.16666666666666674.png,8,2,live
201,AOS2PVHT2HYTL:3Y5140Z9DZNIB7I59QF7I1S9DRCPII,6636,065004_0.5.png,5,3,live
202,AOS2PVHT2HYTL:3Y5140Z9DZNIB7I59QF7I1S9DRCPII,5342,119128_0.36868686868686873.png,8,4,live
203,AOS2PVHT2HYTL:3Y5140Z9DZNIB7I59QF7I1S9DRCPII,4564,190655_0.025252525252525304.png,4,5,live
204,AOS2PVHT2HYTL:3Y5140Z9DZNIB7I59QF7I1S9DRCPII,3901,065364_0.23737373737373746.png,7,6,live
205,AOS2PVHT2HYTL:3Y5140Z9DZNIB7I59QF7I1S9DRCPII,4796,037387_-0.015151515151515138.png,3,7,live
206,AOS2PVHT2HYTL:3Y5140Z9DZNIB7I59QF7I1S9DRCPII,4925,139558_0.1262626262626263.png,5,8,live
207,AOS2PVHT2HYTL:3Y5140Z9DZNIB7I59QF7I1S9DRCPII,6696,064390_0.3787878787878789.png,4,9,live
208,AOS2PVHT2HYTL:3Y5140Z9DZNIB7I59QF7I1S9DRCPII,4691,167751_-0.3686868686868687.png,6,10,live
209,AOS2PVHT2HYTL:3Y5140Z9DZNIB7I59QF7I1S9DRCPII,4025,097133_0.03535353535353536.png,8,11,live
210,AOS2PVHT2HYTL:3Y5140Z9DZNIB7I59QF7I1S9DRCPII,10435,167120_0.14646464646464652.png,8,13,live
211,AOS2PVHT2HYTL:3Y5140Z9DZNIB7I59QF7I1S9DRCPII,4435,084650_0.40909090909090917.png,7,14,live
212,AOS2PVHT2HYTL:3Y5140Z9DZNIB7I59QF7I1S9DRCPII,6774,153739_0.3585858585858587.png,1,15,live
213,AOS2PVHT2HYTL:3Y5140Z9DZNIB7I59QF7I1S9DRCPII,6260,065726_0.2575757575757577.png,8,16,live
214,AOS2PVHT2HYTL:3Y5140Z9DZNIB7I59QF7I1S9DRCPII,4148,015763_0.18686868686868696.png,8,17,live
215,AOS2PVHT2HYTL:3Y5140Z9DZNIB7I59QF7I1S9DRCPII,5911,132296_-0.1464646464646464.png,4,18,live
216,AOS2PVHT2HYTL:3Y5140Z9DZNIB7I59QF7I1S9DRCPII,4081,153739_0.3585858585858587.png,1,19,live
217,AOS2PVHT2HYTL:3Y5140Z9DZNIB7I59QF7I1S9DRCPII,4306,047685_-0.5.png,8,20,live
218,AOS2PVHT2HYTL:3Y5140Z9DZNIB7I59QF7I1S9DRCPII,5340,049568_-0.4595959595959596.png,8,21,live
219,AOS2PVHT2HYTL:3Y5140Z9DZNIB7I59QF7I1S9DRCPII,5058,080303_0.33838383838383845.png,2,22,live
220,AOS2PVHT2HYTL:3Y5140Z9DZNIB7I59QF7I1S9DRCPII,6427,037153_0.09595959595959602.png,8,24,live
221,AOS2PVHT2HYTL:3Y5140Z9DZNIB7I59QF7I1S9DRCPII,4811,156901_-0.41919191919191917.png,8,25,live
222,AOS2PVHT2HYTL:3Y5140Z9DZNIB7I59QF7I1S9DRCPII,5343,069574_0.3080808080808082.png,6,26,live
223,AOS2PVHT2HYTL:3Y5140Z9DZNIB7I59QF7I1S9DRCPII,5531,121258_-0.398989898989899.png,6,27,live
224,AOS2PVHT2HYTL:3Y5140Z9DZNIB7I59QF7I1S9DRCPII,5148,178658_0.4292929292929294.png,7,28,live
225,AOS2PVHT2HYTL:3Y5140Z9DZNIB7I59QF7I1S9DRCPII,5269,130683_-0.19696969696969696.png,7,29,live
226,AOS2PVHT2HYTL:3Y5140Z9DZNIB7I59QF7I1S9DRCPII,5842,151012_0.11616161616161624.png,5,30,live
227,AOS2PVHT2HYTL:3Y5140Z9DZNIB7I59QF7I1S9DRCPII,4308,115024_-0.33838383838383834.png,7,31,live
228,AOS2PVHT2HYTL:3Y5140Z9DZNIB7I59QF7I1S9DRCPII,4365,030112_0.48989898989898994.png,7,32,live
229,AOS2PVHT2HYTL:3Y5140Z9DZNIB7I59QF7I1S9DRCPII,6599,201865_0.20707070707070718.png,3,33,live
230,AOS2PVHT2HYTL:3Y5140Z9DZNIB7I59QF7I1S9DRCPII,5357,145045_-0.07575757575757575.png,6,35,live
231,AOS2PVHT2HYTL:3Y5140Z9DZNIB7I59QF7I1S9DRCPII,4403,084706_-0.12626262626262624.png,8,36,live
232,AOS2PVHT2HYTL:3Y5140Z9DZNIB7I59QF7I1S9DRCPII,5020,112709_0.28787878787878796.png,4,37,live
233,AOS2PVHT2HYTL:3Y5140Z9DZNIB7I59QF7I1S9DRCPII,4684,140496_-0.06565656565656564.png,2,38,live
234,AOS2PVHT2HYTL:3Y5140Z9DZNIB7I59QF7I1S9DRCPII,6160,034808_-0.025252525252525193.png,4,39,live
235,AOS2PVHT2HYTL:3Y5140Z9DZNIB7I59QF7I1S9DRCPII,3584,038062_-0.28787878787878785.png,7,40,live
236,AOS2PVHT2HYTL:3Y5140Z9DZNIB7I59QF7I1S9DRCPII,4907,177574_0.13636363636363646.png,5,41,live
237,AOS2PVHT2HYTL:3Y5140Z9DZNIB7I59QF7I1S9DRCPII,6091,156901_-0.41919191919191917.png,7,42,live
238,AOS2PVHT2HYTL:3Y5140Z9DZNIB7I59QF7I1S9DRCPII,5872,190639_-0.21717171717171713.png,8,43,live
239,AOS2PVHT2HYTL:3Y5140Z9DZNIB7I59QF7I1S9DRCPII,4516,087975_-0.29797979797979796.png,2,44,live
240,AOS2PVHT2HYTL:3Y5140Z9DZNIB7I59QF7I1S9DRCPII,4628,147787_-0.16666666666666663.png,7,46,live
241,AOS2PVHT2HYTL:3Y5140Z9DZNIB7I59QF7I1S9DRCPII,4743,093413_-0.3888888888888889.png,7,47,live
242,AOS2PVHT2HYTL:3Y5140Z9DZNIB7I59QF7I1S9DRCPII,4724,003820_0.2272727272727273.png,7,48,live
243,AOS2PVHT2HYTL:3Y5140Z9DZNIB7I59QF7I1S9DRCPII,4450,062124_-0.25757575757575757.png,5,49,live
244,AOS2PVHT2HYTL:3Y5140Z9DZNIB7I59QF7I1S9DRCPII,4044,077214_-0.3787878787878788.png,8,50,live
245,AOS2PVHT2HYTL:3Y5140Z9DZNIB7I59QF7I1S9DRCPII,4628,186181_0.43939393939393945.png,5,51,live
246,AOS2PVHT2HYTL:3Y5140Z9DZNIB7I59QF7I1S9DRCPII,4103,161186_-0.24747474747474746.png,7,52,live
247,AOS2PVHT2HYTL:3Y5140Z9DZNIB7I59QF7I1S9DRCPII,7452,110741_-0.23737373737373735.png,3,53,live
248,AOS2PVHT2HYTL:3Y5140Z9DZNIB7I59QF7I1S9DRCPII,11162,145045_-0.07575757575757575.png,3,54,live
249,AOS2PVHT2HYTL:3Y5140Z9DZNIB7I59QF7I1S9DRCPII,3957,181258_-0.11616161616161613.png,7,55,live
250,AOS2PVHT2HYTL:3Y5140Z9DZNIB7I59QF7I1S9DRCPII,6894,019861_0.38888888888888895.png,6,57,live
251,AOS2PVHT2HYTL:3Y5140Z9DZNIB7I59QF7I1S9DRCPII,3856,176556_-0.35858585858585856.png,2,58,live
252,AOS2PVHT2HYTL:3Y5140Z9DZNIB7I59QF7I1S9DRCPII,4115,113061_-0.13636363636363635.png,8,59,live
253,AOS2PVHT2HYTL:3Y5140Z9DZNIB7I59QF7I1S9DRCPII,4506,021469_-0.2676767676767676.png,7,60,live
254,AOS2PVHT2HYTL:3Y5140Z9DZNIB7I59QF7I1S9DRCPII,5161,050496_-0.4898989898989899.png,7,61,live
255,AOS2PVHT2HYTL:3Y5140Z9DZNIB7I59QF7I1S9DRCPII,4154,094401_-0.20707070707070707.png,6,62,live
256,AOS2PVHT2HYTL:3Y5140Z9DZNIB7I59QF7I1S9DRCPII,4571,054707_0.45959595959595967.png,4,63,live
257,AOS2PVHT2HYTL:3Y5140Z9DZNIB7I59QF7I1S9DRCPII,4619,028632_0.31818181818181823.png,8,64,live
258,AOS2PVHT2HYTL:3Y5140Z9DZNIB7I59QF7I1S9DRCPII,4460,097347_0.05555555555555558.png,7,65,live
259,AOS2PVHT2HYTL:3Y5140Z9DZNIB7I59QF7I1S9DRCPII,3736,181258_-0.11616161616161613.png,8,66,live
260,AOS2PVHT2HYTL:3Y5140Z9DZNIB7I59QF7I1S9DRCPII,5104,142628_-0.30808080808080807.png,5,68,live
261,AOS2PVHT2HYTL:3Y5140Z9DZNIB7I59QF7I1S9DRCPII,7808,152768_0.4494949494949496.png,4,69,live
262,AOS2PVHT2HYTL:3Y5140Z9DZNIB7I59QF7I1S9DRCPII,3255,173471_0.045454545454545525.png,7,70,live
263,AOS2PVHT2HYTL:3Y5140Z9DZNIB7I59QF7I1S9DRCPII,6055,081495_-0.17676767676767674.png,6,71,live
264,AOS2PVHT2HYTL:3Y5140Z9DZNIB7I59QF7I1S9DRCPII,6689,041733_0.3989898989898991.png,3,72,live
265,AOS2PVHT2HYTL:3Y5140Z9DZNIB7I59QF7I1S9DRCPII,5641,103215_-0.4292929292929293.png,3,73,live
266,AOS2PVHT2HYTL:3Y5140Z9DZNIB7I59QF7I1S9DRCPII,4015,195445_0.297979797979798.png,7,74,live
267,AOS2PVHT2HYTL:3Y5140Z9DZNIB7I59QF7I1S9DRCPII,5218,067113_0.015151515151515249.png,4,75,live
268,AOS2PVHT2HYTL:3Y5140Z9DZNIB7I59QF7I1S9DRCPII,8531,069574_0.3080808080808082.png,5,76,live
269,AOS2PVHT2HYTL:3Y5140Z9DZNIB7I59QF7I1S9DRCPII,4077,087975_-0.29797979797979796.png,2,77,live
270,AOS2PVHT2HYTL:3Y5140Z9DZNIB7I59QF7I1S9DRCPII,4642,110741_-0.23737373737373735.png,3,79,live
271,AOS2PVHT2HYTL:3Y5140Z9DZNIB7I59QF7I1S9DRCPII,4345,006062_0.4797979797979799.png,5,80,live
272,AOS2PVHT2HYTL:3Y5140Z9DZNIB7I59QF7I1S9DRCPII,3709,059261_0.15656565656565657.png,7,81,live
273,AOS2PVHT2HYTL:3Y5140Z9DZNIB7I59QF7I1S9DRCPII,4876,062124_-0.25757575757575757.png,6,82,live
274,AOS2PVHT2HYTL:3Y5140Z9DZNIB7I59QF7I1S9DRCPII,4022,023665_0.005050505050505083.png,8,83,live
275,AOS2PVHT2HYTL:3Y5140Z9DZNIB7I59QF7I1S9DRCPII,7175,080357_-0.055555555555555525.png,5,84,live
276,AOS2PVHT2HYTL:3Y5140Z9DZNIB7I59QF7I1S9DRCPII,5839,186181_0.43939393939393945.png,4,85,live
277,AOS2PVHT2HYTL:3Y5140Z9DZNIB7I59QF7I1S9DRCPII,4367,072205_0.4696969696969697.png,6,86,live
278,AOS2PVHT2HYTL:3Y5140Z9DZNIB7I59QF7I1S9DRCPII,5825,142628_-0.30808080808080807.png,5,87,live
279,AOS2PVHT2HYTL:3Y5140Z9DZNIB7I59QF7I1S9DRCPII,4505,093413_-0.3888888888888889.png,6,88,live
280,AOS2PVHT2HYTL:3Y5140Z9DZNIB7I59QF7I1S9DRCPII,6458,130683_-0.19696969696969696.png,6,90,live
281,AOS2PVHT2HYTL:3Y5140Z9DZNIB7I59QF7I1S9DRCPII,4094,083159_-0.4696969696969697.png,7,91,live
282,AOS2PVHT2HYTL:3Y5140Z9DZNIB7I59QF7I1S9DRCPII,4403,006062_0.4797979797979799.png,7,92,live
283,AOS2PVHT2HYTL:3Y5140Z9DZNIB7I59QF7I1S9DRCPII,4891,152726_0.2777777777777778.png,6,93,live
284,AOS2PVHT2HYTL:3Y5140Z9DZNIB7I59QF7I1S9DRCPII,4196,080303_0.33838383838383845.png,2,94,live
285,AOS2PVHT2HYTL:3Y5140Z9DZNIB7I59QF7I1S9DRCPII,4126,020995_-0.09595959595959591.png,4,95,live
286,AOS2PVHT2HYTL:3Y5140Z9DZNIB7I59QF7I1S9DRCPII,5069,067113_0.015151515151515249.png,6,96,live
287,AOS2PVHT2HYTL:3Y5140Z9DZNIB7I59QF7I1S9DRCPII,5233,190639_-0.21717171717171713.png,7,97,live
288,AOS2PVHT2HYTL:3Y5140Z9DZNIB7I59QF7I1S9DRCPII,4340,174771_0.10606060606060608.png,6,98,live
289,AOS2PVHT2HYTL:3Y5140Z9DZNIB7I59QF7I1S9DRCPII,3526,003828_-0.10606060606060602.png,8,99,live
290,AOS2PVHT2HYTL:3Y5140Z9DZNIB7I59QF7I1S9DRCPII,5819,122021_0.24747474747474751.png,2,101,live
291,AOS2PVHT2HYTL:3Y5140Z9DZNIB7I59QF7I1S9DRCPII,4246,141797_-0.045454545454545414.png,7,102,live
292,AOS2PVHT2HYTL:3Y5140Z9DZNIB7I59QF7I1S9DRCPII,4072,092972_0.21717171717171724.png,5,103,live
293,AOS2PVHT2HYTL:3Y5140Z9DZNIB7I59QF7I1S9DRCPII,4348,177845_0.4191919191919192.png,5,104,live
294,AOS2PVHT2HYTL:3Y5140Z9DZNIB7I59QF7I1S9DRCPII,3808,037153_0.09595959595959602.png,8,105,live
295,AOS2PVHT2HYTL:3Y5140Z9DZNIB7I59QF7I1S9DRCPII,4033,113221_-0.3484848484848485.png,7,106,live
296,AOS2PVHT2HYTL:3Y5140Z9DZNIB7I59QF7I1S9DRCPII,4324,163069_-0.3282828282828283.png,4,107,live
297,AOS2PVHT2HYTL:3Y5140Z9DZNIB7I59QF7I1S9DRCPII,5178,152768_0.4494949494949496.png,2,108,live
298,AOS2PVHT2HYTL:3Y5140Z9DZNIB7I59QF7I1S9DRCPII,4602,081495_-0.17676767676767674.png,7,109,live
299,AOS2PVHT2HYTL:3Y5140Z9DZNIB7I59QF7I1S9DRCPII,5878,092972_0.21717171717171724.png,5,110,live
300,A27NBGO9FXJS8Q:3C2NJ6JBKCOEX1SQ48HNRWGXOGEN29,4783,115024_-0.33838383838383834.png,4,2,live
301,A27NBGO9FXJS8Q:3C2NJ6JBKCOEX1SQ48HNRWGXOGEN29,4677,122021_0.24747474747474751.png,6,3,live
302,A27NBGO9FXJS8Q:3C2NJ6JBKCOEX1SQ48HNRWGXOGEN29,3525,038062_-0.28787878787878785.png,7,4,live
303,A27NBGO9FXJS8Q:3C2NJ6JBKCOEX1SQ48HNRWGXOGEN29,3604,186181_0.43939393939393945.png,3,5,live
304,A27NBGO9FXJS8Q:3C2NJ6JBKCOEX1SQ48HNRWGXOGEN29,4090,094401_-0.20707070707070707.png,5,6,live
305,A27NBGO9FXJS8Q:3C2NJ6JBKCOEX1SQ48HNRWGXOGEN29,4092,190639_-0.21717171717171713.png,6,7,live
306,A27NBGO9FXJS8Q:3C2NJ6JBKCOEX1SQ48HNRWGXOGEN29,3492,181258_-0.11616161616161613.png,6,8,live
307,A27NBGO9FXJS8Q:3C2NJ6JBKCOEX1SQ48HNRWGXOGEN29,3855,020995_-0.09595959595959591.png,4,9,live
308,A27NBGO9FXJS8Q:3C2NJ6JBKCOEX1SQ48HNRWGXOGEN29,5091,062124_-0.25757575757575757.png,6,10,live
309,A27NBGO9FXJS8Q:3C2NJ6JBKCOEX1SQ48HNRWGXOGEN29,4464,153739_0.3585858585858587.png,9,11,live
310,A27NBGO9FXJS8Q:3C2NJ6JBKCOEX1SQ48HNRWGXOGEN29,3646,084650_0.40909090909090917.png,6,13,live
311,A27NBGO9FXJS8Q:3C2NJ6JBKCOEX1SQ48HNRWGXOGEN29,3437,121258_-0.398989898989899.png,3,14,live
312,A27NBGO9FXJS8Q:3C2NJ6JBKCOEX1SQ48HNRWGXOGEN29,3778,072205_0.4696969696969697.png,3,15,live
313,A27NBGO9FXJS8Q:3C2NJ6JBKCOEX1SQ48HNRWGXOGEN29,3321,178658_0.4292929292929294.png,5,16,live
314,A27NBGO9FXJS8Q:3C2NJ6JBKCOEX1SQ48HNRWGXOGEN29,3483,201865_0.20707070707070718.png,6,17,live
315,A27NBGO9FXJS8Q:3C2NJ6JBKCOEX1SQ48HNRWGXOGEN29,2945,062124_-0.25757575757575757.png,6,18,live
316,A27NBGO9FXJS8Q:3C2NJ6JBKCOEX1SQ48HNRWGXOGEN29,3395,156901_-0.41919191919191917.png,7,19,live
317,A27NBGO9FXJS8Q:3C2NJ6JBKCOEX1SQ48HNRWGXOGEN29,3534,139558_0.1262626262626263.png,4,20,live
318,A27NBGO9FXJS8Q:3C2NJ6JBKCOEX1SQ48HNRWGXOGEN29,3946,140496_-0.06565656565656564.png,3,21,live
319,A27NBGO9FXJS8Q:3C2NJ6JBKCOEX1SQ48HNRWGXOGEN29,3267,190639_-0.21717171717171713.png,6,22,live
320,A27NBGO9FXJS8Q:3C2NJ6JBKCOEX1SQ48HNRWGXOGEN29,3986,097347_0.05555555555555558.png,7,24,live
321,A27NBGO9FXJS8Q:3C2NJ6JBKCOEX1SQ48HNRWGXOGEN29,4860,145045_-0.07575757575757575.png,6,25,live
322,A27NBGO9FXJS8Q:3C2NJ6JBKCOEX1SQ48HNRWGXOGEN29,3109,177574_0.13636363636363646.png,4,26,live
323,A27NBGO9FXJS8Q:3C2NJ6JBKCOEX1SQ48HNRWGXOGEN29,4218,093413_-0.3888888888888889.png,4,27,live
324,A27NBGO9FXJS8Q:3C2NJ6JBKCOEX1SQ48HNRWGXOGEN29,3772,069583_0.16666666666666674.png,7,28,live
325,A27NBGO9FXJS8Q:3C2NJ6JBKCOEX1SQ48HNRWGXOGEN29,4505,021469_-0.2676767676767676.png,6,29,live
326,A27NBGO9FXJS8Q:3C2NJ6JBKCOEX1SQ48HNRWGXOGEN29,3479,130683_-0.19696969696969696.png,6,30,live
327,A27NBGO9FXJS8Q:3C2NJ6JBKCOEX1SQ48HNRWGXOGEN29,4344,145045_-0.07575757575757575.png,6,31,live
328,A27NBGO9FXJS8Q:3C2NJ6JBKCOEX1SQ48HNRWGXOGEN29,3446,037387_-0.015151515151515138.png,4,32,live
329,A27NBGO9FXJS8Q:3C2NJ6JBKCOEX1SQ48HNRWGXOGEN29,4219,181258_-0.11616161616161613.png,6,33,live
330,A27NBGO9FXJS8Q:3C2NJ6JBKCOEX1SQ48HNRWGXOGEN29,3869,065004_0.5.png,4,35,live
331,A27NBGO9FXJS8Q:3C2NJ6JBKCOEX1SQ48HNRWGXOGEN29,5266,080303_0.33838383838383845.png,2,36,live
332,A27NBGO9FXJS8Q:3C2NJ6JBKCOEX1SQ48HNRWGXOGEN29,3676,097133_0.03535353535353536.png,6,37,live
333,A27NBGO9FXJS8Q:3C2NJ6JBKCOEX1SQ48HNRWGXOGEN29,3450,152768_0.4494949494949496.png,2,38,live
334,A27NBGO9FXJS8Q:3C2NJ6JBKCOEX1SQ48HNRWGXOGEN29,3147,087975_-0.29797979797979796.png,3,39,live
335,A27NBGO9FXJS8Q:3C2NJ6JBKCOEX1SQ48HNRWGXOGEN29,4231,156901_-0.41919191919191917.png,7,40,live
336,A27NBGO9FXJS8Q:3C2NJ6JBKCOEX1SQ48HNRWGXOGEN29,5128,037153_0.09595959595959602.png,7,41,live
337,A27NBGO9FXJS8Q:3C2NJ6JBKCOEX1SQ48HNRWGXOGEN29,3112,110741_-0.23737373737373735.png,5,42,live
338,A27NBGO9FXJS8Q:3C2NJ6JBKCOEX1SQ48HNRWGXOGEN29,4535,049568_-0.4595959595959596.png,7,43,live
339,A27NBGO9FXJS8Q:3C2NJ6JBKCOEX1SQ48HNRWGXOGEN29,3772,190655_0.025252525252525304.png,6,44,live
340,A27NBGO9FXJS8Q:3C2NJ6JBKCOEX1SQ48HNRWGXOGEN29,4715,069574_0.3080808080808082.png,7,46,live
341,A27NBGO9FXJS8Q:3C2NJ6JBKCOEX1SQ48HNRWGXOGEN29,3120,041733_0.3989898989898991.png,4,47,live
342,A27NBGO9FXJS8Q:3C2NJ6JBKCOEX1SQ48HNRWGXOGEN29,3262,153739_0.3585858585858587.png,9,48,live
343,A27NBGO9FXJS8Q:3C2NJ6JBKCOEX1SQ48HNRWGXOGEN29,4040,050496_-0.4898989898989899.png,6,49,live
344,A27NBGO9FXJS8Q:3C2NJ6JBKCOEX1SQ48HNRWGXOGEN29,4782,081495_-0.17676767676767674.png,5,50,live
345,A27NBGO9FXJS8Q:3C2NJ6JBKCOEX1SQ48HNRWGXOGEN29,5022,087975_-0.29797979797979796.png,2,51,live
346,A27NBGO9FXJS8Q:3C2NJ6JBKCOEX1SQ48HNRWGXOGEN29,3507,083159_-0.4696969696969697.png,6,52,live
347,A27NBGO9FXJS8Q:3C2NJ6JBKCOEX1SQ48HNRWGXOGEN29,4377,006062_0.4797979797979799.png,7,53,live
348,A27NBGO9FXJS8Q:3C2NJ6JBKCOEX1SQ48HNRWGXOGEN29,3496,047685_-0.5.png,7,54,live
349,A27NBGO9FXJS8Q:3C2NJ6JBKCOEX1SQ48HNRWGXOGEN29,3438,167751_-0.3686868686868687.png,6,55,live
350,A27NBGO9FXJS8Q:3C2NJ6JBKCOEX1SQ48HNRWGXOGEN29,2994,152726_0.2777777777777778.png,6,57,live
351,A27NBGO9FXJS8Q:3C2NJ6JBKCOEX1SQ48HNRWGXOGEN29,3020,065364_0.23737373737373746.png,7,58,live
352,A27NBGO9FXJS8Q:3C2NJ6JBKCOEX1SQ48HNRWGXOGEN29,3192,067113_0.015151515151515249.png,6,59,live
353,A27NBGO9FXJS8Q:3C2NJ6JBKCOEX1SQ48HNRWGXOGEN29,3269,080357_-0.055555555555555525.png,6,60,live
354,A27NBGO9FXJS8Q:3C2NJ6JBKCOEX1SQ48HNRWGXOGEN29,3391,064390_0.3787878787878789.png,5,61,live
355,A27NBGO9FXJS8Q:3C2NJ6JBKCOEX1SQ48HNRWGXOGEN29,3834,195445_0.297979797979798.png,7,62,live
356,A27NBGO9FXJS8Q:3C2NJ6JBKCOEX1SQ48HNRWGXOGEN29,4206,023665_0.005050505050505083.png,6,63,live
357,A27NBGO9FXJS8Q:3C2NJ6JBKCOEX1SQ48HNRWGXOGEN29,4602,130683_-0.19696969696969696.png,6,64,live
358,A27NBGO9FXJS8Q:3C2NJ6JBKCOEX1SQ48HNRWGXOGEN29,3983,112709_0.28787878787878796.png,3,65,live
359,A27NBGO9FXJS8Q:3C2NJ6JBKCOEX1SQ48HNRWGXOGEN29,3324,059261_0.15656565656565657.png,6,66,live
360,A27NBGO9FXJS8Q:3C2NJ6JBKCOEX1SQ48HNRWGXOGEN29,3455,119128_0.36868686868686873.png,6,68,live
361,A27NBGO9FXJS8Q:3C2NJ6JBKCOEX1SQ48HNRWGXOGEN29,3413,167120_0.14646464646464652.png,6,69,live
362,A27NBGO9FXJS8Q:3C2NJ6JBKCOEX1SQ48HNRWGXOGEN29,4791,152768_0.4494949494949496.png,2,70,live
363,A27NBGO9FXJS8Q:3C2NJ6JBKCOEX1SQ48HNRWGXOGEN29,3070,186181_0.43939393939393945.png,6,71,live
364,A27NBGO9FXJS8Q:3C2NJ6JBKCOEX1SQ48HNRWGXOGEN29,3193,019861_0.38888888888888895.png,6,72,live
365,A27NBGO9FXJS8Q:3C2NJ6JBKCOEX1SQ48HNRWGXOGEN29,4365,054707_0.45959595959595967.png,6,73,live
366,A27NBGO9FXJS8Q:3C2NJ6JBKCOEX1SQ48HNRWGXOGEN29,3066,084706_-0.12626262626262624.png,6,74,live
367,A27NBGO9FXJS8Q:3C2NJ6JBKCOEX1SQ48HNRWGXOGEN29,3861,092972_0.21717171717171724.png,4,75,live
368,A27NBGO9FXJS8Q:3C2NJ6JBKCOEX1SQ48HNRWGXOGEN29,4973,177845_0.4191919191919192.png,7,76,live
369,A27NBGO9FXJS8Q:3C2NJ6JBKCOEX1SQ48HNRWGXOGEN29,3700,176556_-0.35858585858585856.png,6,77,live
370,A27NBGO9FXJS8Q:3C2NJ6JBKCOEX1SQ48HNRWGXOGEN29,3130,174771_0.10606060606060608.png,6,79,live
371,A27NBGO9FXJS8Q:3C2NJ6JBKCOEX1SQ48HNRWGXOGEN29,5526,173471_0.045454545454545525.png,4,80,live
372,A27NBGO9FXJS8Q:3C2NJ6JBKCOEX1SQ48HNRWGXOGEN29,3097,003820_0.2272727272727273.png,4,81,live
373,A27NBGO9FXJS8Q:3C2NJ6JBKCOEX1SQ48HNRWGXOGEN29,3170,006062_0.4797979797979799.png,6,82,live
374,A27NBGO9FXJS8Q:3C2NJ6JBKCOEX1SQ48HNRWGXOGEN29,3140,142628_-0.30808080808080807.png,6,83,live
375,A27NBGO9FXJS8Q:3C2NJ6JBKCOEX1SQ48HNRWGXOGEN29,3230,030112_0.48989898989898994.png,5,84,live
376,A27NBGO9FXJS8Q:3C2NJ6JBKCOEX1SQ48HNRWGXOGEN29,4604,028632_0.31818181818181823.png,5,85,live
377,A27NBGO9FXJS8Q:3C2NJ6JBKCOEX1SQ48HNRWGXOGEN29,3553,151012_0.11616161616161624.png,5,86,live
378,A27NBGO9FXJS8Q:3C2NJ6JBKCOEX1SQ48HNRWGXOGEN29,3480,113061_-0.13636363636363635.png,6,87,live
379,A27NBGO9FXJS8Q:3C2NJ6JBKCOEX1SQ48HNRWGXOGEN29,3366,080303_0.33838383838383845.png,2,88,live
380,A27NBGO9FXJS8Q:3C2NJ6JBKCOEX1SQ48HNRWGXOGEN29,4690,069574_0.3080808080808082.png,6,90,live
381,A27NBGO9FXJS8Q:3C2NJ6JBKCOEX1SQ48HNRWGXOGEN29,3807,110741_-0.23737373737373735.png,5,91,live
382,A27NBGO9FXJS8Q:3C2NJ6JBKCOEX1SQ48HNRWGXOGEN29,2542,142628_-0.30808080808080807.png,6,92,live
383,A27NBGO9FXJS8Q:3C2NJ6JBKCOEX1SQ48HNRWGXOGEN29,3141,093413_-0.3888888888888889.png,4,93,live
384,A27NBGO9FXJS8Q:3C2NJ6JBKCOEX1SQ48HNRWGXOGEN29,3529,092972_0.21717171717171724.png,5,94,live
385,A27NBGO9FXJS8Q:3C2NJ6JBKCOEX1SQ48HNRWGXOGEN29,4094,163069_-0.3282828282828283.png,7,95,live
386,A27NBGO9FXJS8Q:3C2NJ6JBKCOEX1SQ48HNRWGXOGEN29,3051,067113_0.015151515151515249.png,6,96,live
387,A27NBGO9FXJS8Q:3C2NJ6JBKCOEX1SQ48HNRWGXOGEN29,4237,034808_-0.025252525252525193.png,3,97,live
388,A27NBGO9FXJS8Q:3C2NJ6JBKCOEX1SQ48HNRWGXOGEN29,3146,103215_-0.4292929292929293.png,5,98,live
389,A27NBGO9FXJS8Q:3C2NJ6JBKCOEX1SQ48HNRWGXOGEN29,3292,003828_-0.10606060606060602.png,6,99,live
390,A27NBGO9FXJS8Q:3C2NJ6JBKCOEX1SQ48HNRWGXOGEN29,3332,161186_-0.24747474747474746.png,5,101,live
391,A27NBGO9FXJS8Q:3C2NJ6JBKCOEX1SQ48HNRWGXOGEN29,3006,015763_0.18686868686868696.png,5,102,live
392,A27NBGO9FXJS8Q:3C2NJ6JBKCOEX1SQ48HNRWGXOGEN29,3657,113221_-0.3484848484848485.png,6,103,live
393,A27NBGO9FXJS8Q:3C2NJ6JBKCOEX1SQ48HNRWGXOGEN29,3791,065726_0.2575757575757577.png,5,104,live
394,A27NBGO9FXJS8Q:3C2NJ6JBKCOEX1SQ48HNRWGXOGEN29,4243,141797_-0.045454545454545414.png,6,105,live
395,A27NBGO9FXJS8Q:3C2NJ6JBKCOEX1SQ48HNRWGXOGEN29,6103,037153_0.09595959595959602.png,7,106,live
396,A27NBGO9FXJS8Q:3C2NJ6JBKCOEX1SQ48HNRWGXOGEN29,2847,081495_-0.17676767676767674.png,5,107,live
397,A27NBGO9FXJS8Q:3C2NJ6JBKCOEX1SQ48HNRWGXOGEN29,3289,132296_-0.1464646464646464.png,6,108,live
398,A27NBGO9FXJS8Q:3C2NJ6JBKCOEX1SQ48HNRWGXOGEN29,4047,147787_-0.16666666666666663.png,6,109,live
399,A27NBGO9FXJS8Q:3C2NJ6JBKCOEX1SQ48HNRWGXOGEN29,3049,077214_-0.3787878787878788.png,6,110,live
400,A1KLAGM9CCOFBN:3KXIR214I6NSBTIKM32RSNAXXZK24U,5093,034808_-0.025252525252525193.png,7,2,live
401,A1KLAGM9CCOFBN:3KXIR214I6NSBTIKM32RSNAXXZK24U,2850,186181_0.43939393939393945.png,4,3,live
402,A1KLAGM9CCOFBN:3KXIR214I6NSBTIKM32RSNAXXZK24U,1527,156901_-0.41919191919191917.png,5,4,live
403,A1KLAGM9CCOFBN:3KXIR214I6NSBTIKM32RSNAXXZK24U,1825,145045_-0.07575757575757575.png,3,5,live
404,A1KLAGM9CCOFBN:3KXIR214I6NSBTIKM32RSNAXXZK24U,1902,141797_-0.045454545454545414.png,4,6,live
405,A1KLAGM9CCOFBN:3KXIR214I6NSBTIKM32RSNAXXZK24U,2318,190639_-0.21717171717171713.png,6,7,live
406,A1KLAGM9CCOFBN:3KXIR214I6NSBTIKM32RSNAXXZK24U,2262,142628_-0.30808080808080807.png,7,8,live
407,A1KLAGM9CCOFBN:3KXIR214I6NSBTIKM32RSNAXXZK24U,1933,174771_0.10606060606060608.png,6,9,live
408,A1KLAGM9CCOFBN:3KXIR214I6NSBTIKM32RSNAXXZK24U,2189,028632_0.31818181818181823.png,7,10,live
409,A1KLAGM9CCOFBN:3KXIR214I6NSBTIKM32RSNAXXZK24U,2334,201865_0.20707070707070718.png,5,11,live
410,A1KLAGM9CCOFBN:3KXIR214I6NSBTIKM32RSNAXXZK24U,1860,147787_-0.16666666666666663.png,6,13,live
411,A1KLAGM9CCOFBN:3KXIR214I6NSBTIKM32RSNAXXZK24U,1686,152726_0.2777777777777778.png,7,14,live
412,A1KLAGM9CCOFBN:3KXIR214I6NSBTIKM32RSNAXXZK24U,1543,015763_0.18686868686868696.png,5,15,live
413,A1KLAGM9CCOFBN:3KXIR214I6NSBTIKM32RSNAXXZK24U,2919,069574_0.3080808080808082.png,7,16,live
414,A1KLAGM9CCOFBN:3KXIR214I6NSBTIKM32RSNAXXZK24U,2102,142628_-0.30808080808080807.png,6,17,live
415,A1KLAGM9CCOFBN:3KXIR214I6NSBTIKM32RSNAXXZK24U,5396,072205_0.4696969696969697.png,6,18,live
416,A1KLAGM9CCOFBN:3KXIR214I6NSBTIKM32RSNAXXZK24U,2873,092972_0.21717171717171724.png,8,19,live
417,A1KLAGM9CCOFBN:3KXIR214I6NSBTIKM32RSNAXXZK24U,2247,167751_-0.3686868686868687.png,5,20,live
418,A1KLAGM9CCOFBN:3KXIR214I6NSBTIKM32RSNAXXZK24U,2109,121258_-0.398989898989899.png,4,21,live
419,A1KLAGM9CCOFBN:3KXIR214I6NSBTIKM32RSNAXXZK24U,2815,003820_0.2272727272727273.png,2,22,live
420,A1KLAGM9CCOFBN:3KXIR214I6NSBTIKM32RSNAXXZK24U,2388,145045_-0.07575757575757575.png,4,24,live
421,A1KLAGM9CCOFBN:3KXIR214I6NSBTIKM32RSNAXXZK24U,2086,176556_-0.35858585858585856.png,3,25,live
422,A1KLAGM9CCOFBN:3KXIR214I6NSBTIKM32RSNAXXZK24U,1735,140496_-0.06565656565656564.png,2,26,live
423,A1KLAGM9CCOFBN:3KXIR214I6NSBTIKM32RSNAXXZK24U,2966,093413_-0.3888888888888889.png,2,27,live
424,A1KLAGM9CCOFBN:3KXIR214I6NSBTIKM32RSNAXXZK24U,1647,177845_0.4191919191919192.png,2,28,live
425,A1KLAGM9CCOFBN:3KXIR214I6NSBTIKM32RSNAXXZK24U,3334,181258_-0.11616161616161613.png,7,29,live
426,A1KLAGM9CCOFBN:3KXIR214I6NSBTIKM32RSNAXXZK24U,3037,132296_-0.1464646464646464.png,2,30,live
427,A1KLAGM9CCOFBN:3KXIR214I6NSBTIKM32RSNAXXZK24U,2062,067113_0.015151515151515249.png,1,31,live
428,A1KLAGM9CCOFBN:3KXIR214I6NSBTIKM32RSNAXXZK24U,2184,038062_-0.28787878787878785.png,4,32,live
429,A1KLAGM9CCOFBN:3KXIR214I6NSBTIKM32RSNAXXZK24U,1751,084706_-0.12626262626262624.png,5,33,live
430,A1KLAGM9CCOFBN:3KXIR214I6NSBTIKM32RSNAXXZK24U,20969,190639_-0.21717171717171713.png,7,35,live
431,A1KLAGM9CCOFBN:3KXIR214I6NSBTIKM32RSNAXXZK24U,2518,047685_-0.5.png,8,36,live
432,A1KLAGM9CCOFBN:3KXIR214I6NSBTIKM32RSNAXXZK24U,1823,081495_-0.17676767676767674.png,5,37,live
433,A1KLAGM9CCOFBN:3KXIR214I6NSBTIKM32RSNAXXZK24U,1982,181258_-0.11616161616161613.png,7,38,live
434,A1KLAGM9CCOFBN:3KXIR214I6NSBTIKM32RSNAXXZK24U,1455,069574_0.3080808080808082.png,7,39,live
435,A1KLAGM9CCOFBN:3KXIR214I6NSBTIKM32RSNAXXZK24U,1806,151012_0.11616161616161624.png,5,40,live
436,A1KLAGM9CCOFBN:3KXIR214I6NSBTIKM32RSNAXXZK24U,2783,110741_-0.23737373737373735.png,5,41,live
437,A1KLAGM9CCOFBN:3KXIR214I6NSBTIKM32RSNAXXZK24U,1946,062124_-0.25757575757575757.png,4,42,live
438,A1KLAGM9CCOFBN:3KXIR214I6NSBTIKM32RSNAXXZK24U,2563,080303_0.33838383838383845.png,2,43,live
439,A1KLAGM9CCOFBN:3KXIR214I6NSBTIKM32RSNAXXZK24U,2372,087975_-0.29797979797979796.png,2,44,live
440,A1KLAGM9CCOFBN:3KXIR214I6NSBTIKM32RSNAXXZK24U,1874,195445_0.297979797979798.png,5,46,live
441,A1KLAGM9CCOFBN:3KXIR214I6NSBTIKM32RSNAXXZK24U,1454,003828_-0.10606060606060602.png,4,47,live
442,A1KLAGM9CCOFBN:3KXIR214I6NSBTIKM32RSNAXXZK24U,1462,069583_0.16666666666666674.png,6,48,live
443,A1KLAGM9CCOFBN:3KXIR214I6NSBTIKM32RSNAXXZK24U,1391,084650_0.40909090909090917.png,5,49,live
444,A1KLAGM9CCOFBN:3KXIR214I6NSBTIKM32RSNAXXZK24U,2398,190655_0.025252525252525304.png,3,50,live
445,A1KLAGM9CCOFBN:3KXIR214I6NSBTIKM32RSNAXXZK24U,1342,021469_-0.2676767676767676.png,3,51,live
446,A1KLAGM9CCOFBN:3KXIR214I6NSBTIKM32RSNAXXZK24U,1710,059261_0.15656565656565657.png,2,52,live
447,A1KLAGM9CCOFBN:3KXIR214I6NSBTIKM32RSNAXXZK24U,1855,087975_-0.29797979797979796.png,5,53,live
448,A1KLAGM9CCOFBN:3KXIR214I6NSBTIKM32RSNAXXZK24U,1982,049568_-0.4595959595959596.png,6,54,live
449,A1KLAGM9CCOFBN:3KXIR214I6NSBTIKM32RSNAXXZK24U,1886,112709_0.28787878787878796.png,3,55,live
450,A1KLAGM9CCOFBN:3KXIR214I6NSBTIKM32RSNAXXZK24U,3065,093413_-0.3888888888888889.png,2,57,live
451,A1KLAGM9CCOFBN:3KXIR214I6NSBTIKM32RSNAXXZK24U,2718,113221_-0.3484848484848485.png,6,58,live
452,A1KLAGM9CCOFBN:3KXIR214I6NSBTIKM32RSNAXXZK24U,2550,037153_0.09595959595959602.png,5,59,live
453,A1KLAGM9CCOFBN:3KXIR214I6NSBTIKM32RSNAXXZK24U,1407,110741_-0.23737373737373735.png,4,60,live
454,A1KLAGM9CCOFBN:3KXIR214I6NSBTIKM32RSNAXXZK24U,2671,153739_0.3585858585858587.png,3,61,live
455,A1KLAGM9CCOFBN:3KXIR214I6NSBTIKM32RSNAXXZK24U,3911,080357_-0.055555555555555525.png,5,62,live
456,A1KLAGM9CCOFBN:3KXIR214I6NSBTIKM32RSNAXXZK24U,2159,023665_0.005050505050505083.png,6,63,live
457,A1KLAGM9CCOFBN:3KXIR214I6NSBTIKM32RSNAXXZK24U,2791,030112_0.48989898989898994.png,5,64,live
458,A1KLAGM9CCOFBN:3KXIR214I6NSBTIKM32RSNAXXZK24U,1775,173471_0.045454545454545525.png,4,65,live
459,A1KLAGM9CCOFBN:3KXIR214I6NSBTIKM32RSNAXXZK24U,1615,064390_0.3787878787878789.png,6,66,live
460,A1KLAGM9CCOFBN:3KXIR214I6NSBTIKM32RSNAXXZK24U,2497,119128_0.36868686868686873.png,4,68,live
461,A1KLAGM9CCOFBN:3KXIR214I6NSBTIKM32RSNAXXZK24U,1629,081495_-0.17676767676767674.png,4,69,live
462,A1KLAGM9CCOFBN:3KXIR214I6NSBTIKM32RSNAXXZK24U,1553,167120_0.14646464646464652.png,5,70,live
463,A1KLAGM9CCOFBN:3KXIR214I6NSBTIKM32RSNAXXZK24U,1895,080303_0.33838383838383845.png,3,71,live
464,A1KLAGM9CCOFBN:3KXIR214I6NSBTIKM32RSNAXXZK24U,3038,077214_-0.3787878787878788.png,7,72,live
465,A1KLAGM9CCOFBN:3KXIR214I6NSBTIKM32RSNAXXZK24U,2079,130683_-0.19696969696969696.png,6,73,live
466,A1KLAGM9CCOFBN:3KXIR214I6NSBTIKM32RSNAXXZK24U,2307,130683_-0.19696969696969696.png,6,74,live
467,A1KLAGM9CCOFBN:3KXIR214I6NSBTIKM32RSNAXXZK24U,2144,097133_0.03535353535353536.png,5,75,live
468,A1KLAGM9CCOFBN:3KXIR214I6NSBTIKM32RSNAXXZK24U,2423,177574_0.13636363636363646.png,7,76,live
469,A1KLAGM9CCOFBN:3KXIR214I6NSBTIKM32RSNAXXZK24U,1758,152768_0.4494949494949496.png,6,77,live
470,A1KLAGM9CCOFBN:3KXIR214I6NSBTIKM32RSNAXXZK24U,5295,062124_-0.25757575757575757.png,3,79,live
471,A1KLAGM9CCOFBN:3KXIR214I6NSBTIKM32RSNAXXZK24U,1693,113061_-0.13636363636363635.png,4,80,live
472,A1KLAGM9CCOFBN:3KXIR214I6NSBTIKM32RSNAXXZK24U,2574,041733_0.3989898989898991.png,3,81,live
473,A1KLAGM9CCOFBN:3KXIR214I6NSBTIKM32RSNAXXZK24U,4333,097347_0.05555555555555558.png,7,82,live
474,A1KLAGM9CCOFBN:3KXIR214I6NSBTIKM32RSNAXXZK24U,2461,083159_-0.4696969696969697.png,5,83,live
475,A1KLAGM9CCOFBN:3KXIR214I6NSBTIKM32RSNAXXZK24U,1765,006062_0.4797979797979799.png,6,84,live
476,A1KLAGM9CCOFBN:3KXIR214I6NSBTIKM32RSNAXXZK24U,2038,037153_0.09595959595959602.png,5,85,live
477,A1KLAGM9CCOFBN:3KXIR214I6NSBTIKM32RSNAXXZK24U,2214,065726_0.2575757575757577.png,7,86,live
478,A1KLAGM9CCOFBN:3KXIR214I6NSBTIKM32RSNAXXZK24U,2532,163069_-0.3282828282828283.png,8,87,live
479,A1KLAGM9CCOFBN:3KXIR214I6NSBTIKM32RSNAXXZK24U,2068,156901_-0.41919191919191917.png,6,88,live
480,A1KLAGM9CCOFBN:3KXIR214I6NSBTIKM32RSNAXXZK24U,2624,006062_0.4797979797979799.png,6,90,live
481,A1KLAGM9CCOFBN:3KXIR214I6NSBTIKM32RSNAXXZK24U,1695,186181_0.43939393939393945.png,5,91,live
482,A1KLAGM9CCOFBN:3KXIR214I6NSBTIKM32RSNAXXZK24U,2021,152768_0.4494949494949496.png,6,92,live
483,A1KLAGM9CCOFBN:3KXIR214I6NSBTIKM32RSNAXXZK24U,2990,161186_-0.24747474747474746.png,7,93,live
484,A1KLAGM9CCOFBN:3KXIR214I6NSBTIKM32RSNAXXZK24U,3086,115024_-0.33838383838383834.png,9,94,live
485,A1KLAGM9CCOFBN:3KXIR214I6NSBTIKM32RSNAXXZK24U,2478,153739_0.3585858585858587.png,3,95,live
486,A1KLAGM9CCOFBN:3KXIR214I6NSBTIKM32RSNAXXZK24U,2047,020995_-0.09595959595959591.png,4,96,live
487,A1KLAGM9CCOFBN:3KXIR214I6NSBTIKM32RSNAXXZK24U,2494,065364_0.23737373737373746.png,6,97,live
488,A1KLAGM9CCOFBN:3KXIR214I6NSBTIKM32RSNAXXZK24U,2181,092972_0.21717171717171724.png,7,98,live
489,A1KLAGM9CCOFBN:3KXIR214I6NSBTIKM32RSNAXXZK24U,2589,122021_0.24747474747474751.png,5,99,live
490,A1KLAGM9CCOFBN:3KXIR214I6NSBTIKM32RSNAXXZK24U,2748,139558_0.1262626262626263.png,6,101,live
491,A1KLAGM9CCOFBN:3KXIR214I6NSBTIKM32RSNAXXZK24U,1990,094401_-0.20707070707070707.png,4,102,live
492,A1KLAGM9CCOFBN:3KXIR214I6NSBTIKM32RSNAXXZK24U,1615,065004_0.5.png,5,103,live
493,A1KLAGM9CCOFBN:3KXIR214I6NSBTIKM32RSNAXXZK24U,2046,050496_-0.4898989898989899.png,5,104,live
494,A1KLAGM9CCOFBN:3KXIR214I6NSBTIKM32RSNAXXZK24U,1655,019861_0.38888888888888895.png,5,105,live
495,A1KLAGM9CCOFBN:3KXIR214I6NSBTIKM32RSNAXXZK24U,2854,037387_-0.015151515151515138.png,3,106,live
496,A1KLAGM9CCOFBN:3KXIR214I6NSBTIKM32RSNAXXZK24U,2191,178658_0.4292929292929294.png,6,107,live
497,A1KLAGM9CCOFBN:3KXIR214I6NSBTIKM32RSNAXXZK24U,2302,103215_-0.4292929292929293.png,4,108,live
498,A1KLAGM9CCOFBN:3KXIR214I6NSBTIKM32RSNAXXZK24U,1990,054707_0.45959595959595967.png,3,109,live
499,A1KLAGM9CCOFBN:3KXIR214I6NSBTIKM32RSNAXXZK24U,2463,067113_0.015151515151515249.png,2,110,live
500,A1J4SLXI1A1PF:3MYYFCXHJ5EIQNQRLINGUR4Y7JFG4J,16207,112709_0.28787878787878796.png,1,2,live
501,A1J4SLXI1A1PF:3MYYFCXHJ5EIQNQRLINGUR4Y7JFG4J,11675,173471_0.045454545454545525.png,2,3,live
502,A1J4SLXI1A1PF:3MYYFCXHJ5EIQNQRLINGUR4Y7JFG4J,8497,145045_-0.07575757575757575.png,1,4,live
503,A1J4SLXI1A1PF:3MYYFCXHJ5EIQNQRLINGUR4Y7JFG4J,5066,190639_-0.21717171717171713.png,3,5,live
504,A1J4SLXI1A1PF:3MYYFCXHJ5EIQNQRLINGUR4Y7JFG4J,6311,142628_-0.30808080808080807.png,3,6,live
505,A1J4SLXI1A1PF:3MYYFCXHJ5EIQNQRLINGUR4Y7JFG4J,8529,062124_-0.25757575757575757.png,1,7,live
506,A1J4SLXI1A1PF:3MYYFCXHJ5EIQNQRLINGUR4Y7JFG4J,5338,080303_0.33838383838383845.png,1,8,live
507,A1J4SLXI1A1PF:3MYYFCXHJ5EIQNQRLINGUR4Y7JFG4J,5462,153739_0.3585858585858587.png,3,9,live
508,A1J4SLXI1A1PF:3MYYFCXHJ5EIQNQRLINGUR4Y7JFG4J,4998,087975_-0.29797979797979796.png,4,10,live
509,A1J4SLXI1A1PF:3MYYFCXHJ5EIQNQRLINGUR4Y7JFG4J,4004,054707_0.45959595959595967.png,4,11,live
510,A1J4SLXI1A1PF:3MYYFCXHJ5EIQNQRLINGUR4Y7JFG4J,7510,163069_-0.3282828282828283.png,3,13,live
511,A1J4SLXI1A1PF:3MYYFCXHJ5EIQNQRLINGUR4Y7JFG4J,4742,151012_0.11616161616161624.png,4,14,live
512,A1J4SLXI1A1PF:3MYYFCXHJ5EIQNQRLINGUR4Y7JFG4J,3644,006062_0.4797979797979799.png,5,15,live
513,A1J4SLXI1A1PF:3MYYFCXHJ5EIQNQRLINGUR4Y7JFG4J,3644,141797_-0.045454545454545414.png,6,16,live
514,A1J4SLXI1A1PF:3MYYFCXHJ5EIQNQRLINGUR4Y7JFG4J,4499,176556_-0.35858585858585856.png,5,17,live
515,A1J4SLXI1A1PF:3MYYFCXHJ5EIQNQRLINGUR4Y7JFG4J,6210,041733_0.3989898989898991.png,3,18,live
516,A1J4SLXI1A1PF:3MYYFCXHJ5EIQNQRLINGUR4Y7JFG4J,5858,156901_-0.41919191919191917.png,3,19,live
517,A1J4SLXI1A1PF:3MYYFCXHJ5EIQNQRLINGUR4Y7JFG4J,4640,190655_0.025252525252525304.png,5,20,live
518,A1J4SLXI1A1PF:3MYYFCXHJ5EIQNQRLINGUR4Y7JFG4J,4903,003820_0.2272727272727273.png,5,21,live
519,A1J4SLXI1A1PF:3MYYFCXHJ5EIQNQRLINGUR4Y7JFG4J,5308,201865_0.20707070707070718.png,7,22,live
520,A1J4SLXI1A1PF:3MYYFCXHJ5EIQNQRLINGUR4Y7JFG4J,4777,083159_-0.4696969696969697.png,8,24,live
521,A1J4SLXI1A1PF:3MYYFCXHJ5EIQNQRLINGUR4Y7JFG4J,3962,006062_0.4797979797979799.png,9,25,live
522,A1J4SLXI1A1PF:3MYYFCXHJ5EIQNQRLINGUR4Y7JFG4J,4756,080303_0.33838383838383845.png,2,26,live
523,A1J4SLXI1A1PF:3MYYFCXHJ5EIQNQRLINGUR4Y7JFG4J,4516,152768_0.4494949494949496.png,1,27,live
524,A1J4SLXI1A1PF:3MYYFCXHJ5EIQNQRLINGUR4Y7JFG4J,5681,019861_0.38888888888888895.png,5,28,live
525,A1J4SLXI1A1PF:3MYYFCXHJ5EIQNQRLINGUR4Y7JFG4J,4393,167120_0.14646464646464652.png,6,29,live
526,A1J4SLXI1A1PF:3MYYFCXHJ5EIQNQRLINGUR4Y7JFG4J,4855,177574_0.13636363636363646.png,2,30,live
527,A1J4SLXI1A1PF:3MYYFCXHJ5EIQNQRLINGUR4Y7JFG4J,5596,147787_-0.16666666666666663.png,4,31,live
528,A1J4SLXI1A1PF:3MYYFCXHJ5EIQNQRLINGUR4Y7JFG4J,3434,037387_-0.015151515151515138.png,6,32,live
529,A1J4SLXI1A1PF:3MYYFCXHJ5EIQNQRLINGUR4Y7JFG4J,4272,092972_0.21717171717171724.png,3,33,live
530,A1J4SLXI1A1PF:3MYYFCXHJ5EIQNQRLINGUR4Y7JFG4J,6820,092972_0.21717171717171724.png,3,35,live
531,A1J4SLXI1A1PF:3MYYFCXHJ5EIQNQRLINGUR4Y7JFG4J,3156,084706_-0.12626262626262624.png,7,36,live
532,A1J4SLXI1A1PF:3MYYFCXHJ5EIQNQRLINGUR4Y7JFG4J,3690,067113_0.015151515151515249.png,4,37,live
533,A1J4SLXI1A1PF:3MYYFCXHJ5EIQNQRLINGUR4Y7JFG4J,3309,190639_-0.21717171717171713.png,7,38,live
534,A1J4SLXI1A1PF:3MYYFCXHJ5EIQNQRLINGUR4Y7JFG4J,4688,122021_0.24747474747474751.png,3,39,live
535,A1J4SLXI1A1PF:3MYYFCXHJ5EIQNQRLINGUR4Y7JFG4J,4344,152768_0.4494949494949496.png,1,40,live
536,A1J4SLXI1A1PF:3MYYFCXHJ5EIQNQRLINGUR4Y7JFG4J,3027,023665_0.005050505050505083.png,7,41,live
537,A1J4SLXI1A1PF:3MYYFCXHJ5EIQNQRLINGUR4Y7JFG4J,3714,097133_0.03535353535353536.png,5,42,live
538,A1J4SLXI1A1PF:3MYYFCXHJ5EIQNQRLINGUR4Y7JFG4J,4080,081495_-0.17676767676767674.png,4,43,live
539,A1J4SLXI1A1PF:3MYYFCXHJ5EIQNQRLINGUR4Y7JFG4J,4374,062124_-0.25757575757575757.png,2,44,live
540,A1J4SLXI1A1PF:3MYYFCXHJ5EIQNQRLINGUR4Y7JFG4J,6685,072205_0.4696969696969697.png,1,46,live
541,A1J4SLXI1A1PF:3MYYFCXHJ5EIQNQRLINGUR4Y7JFG4J,3558,181258_-0.11616161616161613.png,7,47,live
542,A1J4SLXI1A1PF:3MYYFCXHJ5EIQNQRLINGUR4Y7JFG4J,3264,084650_0.40909090909090917.png,7,48,live
543,A1J4SLXI1A1PF:3MYYFCXHJ5EIQNQRLINGUR4Y7JFG4J,3589,037153_0.09595959595959602.png,6,49,live
544,A1J4SLXI1A1PF:3MYYFCXHJ5EIQNQRLINGUR4Y7JFG4J,3940,132296_-0.1464646464646464.png,6,50,live
545,A1J4SLXI1A1PF:3MYYFCXHJ5EIQNQRLINGUR4Y7JFG4J,5665,015763_0.18686868686868696.png,7,51,live
546,A1J4SLXI1A1PF:3MYYFCXHJ5EIQNQRLINGUR4Y7JFG4J,3489,161186_-0.24747474747474746.png,7,52,live
547,A1J4SLXI1A1PF:3MYYFCXHJ5EIQNQRLINGUR4Y7JFG4J,4513,069583_0.16666666666666674.png,8,53,live
548,A1J4SLXI1A1PF:3MYYFCXHJ5EIQNQRLINGUR4Y7JFG4J,3293,178658_0.4292929292929294.png,5,54,live
549,A1J4SLXI1A1PF:3MYYFCXHJ5EIQNQRLINGUR4Y7JFG4J,3566,121258_-0.398989898989899.png,2,55,live
550,A1J4SLXI1A1PF:3MYYFCXHJ5EIQNQRLINGUR4Y7JFG4J,5246,186181_0.43939393939393945.png,1,57,live
551,A1J4SLXI1A1PF:3MYYFCXHJ5EIQNQRLINGUR4Y7JFG4J,5012,030112_0.48989898989898994.png,3,58,live
552,A1J4SLXI1A1PF:3MYYFCXHJ5EIQNQRLINGUR4Y7JFG4J,4640,110741_-0.23737373737373735.png,1,59,live
553,A1J4SLXI1A1PF:3MYYFCXHJ5EIQNQRLINGUR4Y7JFG4J,4981,094401_-0.20707070707070707.png,4,60,live
554,A1J4SLXI1A1PF:3MYYFCXHJ5EIQNQRLINGUR4Y7JFG4J,4228,077214_-0.3787878787878788.png,6,61,live
555,A1J4SLXI1A1PF:3MYYFCXHJ5EIQNQRLINGUR4Y7JFG4J,3200,181258_-0.11616161616161613.png,7,62,live
556,A1J4SLXI1A1PF:3MYYFCXHJ5EIQNQRLINGUR4Y7JFG4J,3909,034808_-0.025252525252525193.png,3,63,live
557,A1J4SLXI1A1PF:3MYYFCXHJ5EIQNQRLINGUR4Y7JFG4J,3583,177845_0.4191919191919192.png,3,64,live
558,A1J4SLXI1A1PF:3MYYFCXHJ5EIQNQRLINGUR4Y7JFG4J,3505,037153_0.09595959595959602.png,4,65,live
559,A1J4SLXI1A1PF:3MYYFCXHJ5EIQNQRLINGUR4Y7JFG4J,3635,067113_0.015151515151515249.png,2,66,live
560,A1J4SLXI1A1PF:3MYYFCXHJ5EIQNQRLINGUR4Y7JFG4J,6708,020995_-0.09595959595959591.png,2,68,live
561,A1J4SLXI1A1PF:3MYYFCXHJ5EIQNQRLINGUR4Y7JFG4J,6902,152726_0.2777777777777778.png,3,69,live
562,A1J4SLXI1A1PF:3MYYFCXHJ5EIQNQRLINGUR4Y7JFG4J,3883,186181_0.43939393939393945.png,1,70,live
563,A1J4SLXI1A1PF:3MYYFCXHJ5EIQNQRLINGUR4Y7JFG4J,4156,038062_-0.28787878787878785.png,2,71,live
564,A1J4SLXI1A1PF:3MYYFCXHJ5EIQNQRLINGUR4Y7JFG4J,3359,110741_-0.23737373737373735.png,1,72,live
565,A1J4SLXI1A1PF:3MYYFCXHJ5EIQNQRLINGUR4Y7JFG4J,4002,174771_0.10606060606060608.png,4,73,live
566,A1J4SLXI1A1PF:3MYYFCXHJ5EIQNQRLINGUR4Y7JFG4J,4330,142628_-0.30808080808080807.png,1,74,live
567,A1J4SLXI1A1PF:3MYYFCXHJ5EIQNQRLINGUR4Y7JFG4J,5361,064390_0.3787878787878789.png,3,75,live
568,A1J4SLXI1A1PF:3MYYFCXHJ5EIQNQRLINGUR4Y7JFG4J,4384,153739_0.3585858585858587.png,3,76,live
569,A1J4SLXI1A1PF:3MYYFCXHJ5EIQNQRLINGUR4Y7JFG4J,3582,139558_0.1262626262626263.png,5,77,live
570,A1J4SLXI1A1PF:3MYYFCXHJ5EIQNQRLINGUR4Y7JFG4J,4106,050496_-0.4898989898989899.png,3,79,live
571,A1J4SLXI1A1PF:3MYYFCXHJ5EIQNQRLINGUR4Y7JFG4J,3746,069574_0.3080808080808082.png,6,80,live
572,A1J4SLXI1A1PF:3MYYFCXHJ5EIQNQRLINGUR4Y7JFG4J,3924,097347_0.05555555555555558.png,7,81,live
573,A1J4SLXI1A1PF:3MYYFCXHJ5EIQNQRLINGUR4Y7JFG4J,3598,049568_-0.4595959595959596.png,3,82,live
574,A1J4SLXI1A1PF:3MYYFCXHJ5EIQNQRLINGUR4Y7JFG4J,3578,167751_-0.3686868686868687.png,3,83,live
575,A1J4SLXI1A1PF:3MYYFCXHJ5EIQNQRLINGUR4Y7JFG4J,5643,080357_-0.055555555555555525.png,1,84,live
576,A1J4SLXI1A1PF:3MYYFCXHJ5EIQNQRLINGUR4Y7JFG4J,5841,087975_-0.29797979797979796.png,2,85,live
577,A1J4SLXI1A1PF:3MYYFCXHJ5EIQNQRLINGUR4Y7JFG4J,3745,156901_-0.41919191919191917.png,3,86,live
578,A1J4SLXI1A1PF:3MYYFCXHJ5EIQNQRLINGUR4Y7JFG4J,3339,081495_-0.17676767676767674.png,4,87,live
579,A1J4SLXI1A1PF:3MYYFCXHJ5EIQNQRLINGUR4Y7JFG4J,3255,069574_0.3080808080808082.png,6,88,live
580,A1J4SLXI1A1PF:3MYYFCXHJ5EIQNQRLINGUR4Y7JFG4J,3305,113221_-0.3484848484848485.png,3,90,live
581,A1J4SLXI1A1PF:3MYYFCXHJ5EIQNQRLINGUR4Y7JFG4J,4089,003828_-0.10606060606060602.png,7,91,live
582,A1J4SLXI1A1PF:3MYYFCXHJ5EIQNQRLINGUR4Y7JFG4J,3730,021469_-0.2676767676767676.png,6,92,live
583,A1J4SLXI1A1PF:3MYYFCXHJ5EIQNQRLINGUR4Y7JFG4J,3262,130683_-0.19696969696969696.png,4,93,live
584,A1J4SLXI1A1PF:3MYYFCXHJ5EIQNQRLINGUR4Y7JFG4J,5511,130683_-0.19696969696969696.png,4,94,live
585,A1J4SLXI1A1PF:3MYYFCXHJ5EIQNQRLINGUR4Y7JFG4J,3486,195445_0.297979797979798.png,5,95,live
586,A1J4SLXI1A1PF:3MYYFCXHJ5EIQNQRLINGUR4Y7JFG4J,3404,028632_0.31818181818181823.png,4,96,live
587,A1J4SLXI1A1PF:3MYYFCXHJ5EIQNQRLINGUR4Y7JFG4J,4694,145045_-0.07575757575757575.png,1,97,live
588,A1J4SLXI1A1PF:3MYYFCXHJ5EIQNQRLINGUR4Y7JFG4J,4039,093413_-0.3888888888888889.png,1,98,live
589,A1J4SLXI1A1PF:3MYYFCXHJ5EIQNQRLINGUR4Y7JFG4J,3264,113061_-0.13636363636363635.png,2,99,live
590,A1J4SLXI1A1PF:3MYYFCXHJ5EIQNQRLINGUR4Y7JFG4J,4239,059261_0.15656565656565657.png,5,101,live
591,A1J4SLXI1A1PF:3MYYFCXHJ5EIQNQRLINGUR4Y7JFG4J,3714,047685_-0.5.png,3,102,live
592,A1J4SLXI1A1PF:3MYYFCXHJ5EIQNQRLINGUR4Y7JFG4J,3280,065004_0.5.png,3,103,live
593,A1J4SLXI1A1PF:3MYYFCXHJ5EIQNQRLINGUR4Y7JFG4J,3869,140496_-0.06565656565656564.png,1,104,live
594,A1J4SLXI1A1PF:3MYYFCXHJ5EIQNQRLINGUR4Y7JFG4J,3839,103215_-0.4292929292929293.png,3,105,live
595,A1J4SLXI1A1PF:3MYYFCXHJ5EIQNQRLINGUR4Y7JFG4J,3358,119128_0.36868686868686873.png,6,106,live
596,A1J4SLXI1A1PF:3MYYFCXHJ5EIQNQRLINGUR4Y7JFG4J,3550,065726_0.2575757575757577.png,6,107,live
597,A1J4SLXI1A1PF:3MYYFCXHJ5EIQNQRLINGUR4Y7JFG4J,3218,065364_0.23737373737373746.png,7,108,live
598,A1J4SLXI1A1PF:3MYYFCXHJ5EIQNQRLINGUR4Y7JFG4J,3870,115024_-0.33838383838383834.png,3,109,live
599,A1J4SLXI1A1PF:3MYYFCXHJ5EIQNQRLINGUR4Y7JFG4J,4741,093413_-0.3888888888888889.png,1,110,live
600,A223UBAD8S1SIB:3G5W44VEU9P34PFU6AAW18TU45GGKK,1914,019861_0.38888888888888895.png,6,2,live
601,A223UBAD8S1SIB:3G5W44VEU9P34PFU6AAW18TU45GGKK,1285,113061_-0.13636363636363635.png,4,3,live
602,A223UBAD8S1SIB:3G5W44VEU9P34PFU6AAW18TU45GGKK,1469,006062_0.4797979797979799.png,6,4,live
603,A223UBAD8S1SIB:3G5W44VEU9P34PFU6AAW18TU45GGKK,1669,003820_0.2272727272727273.png,4,5,live
604,A223UBAD8S1SIB:3G5W44VEU9P34PFU6AAW18TU45GGKK,2758,186181_0.43939393939393945.png,7,6,live
605,A223UBAD8S1SIB:3G5W44VEU9P34PFU6AAW18TU45GGKK,1502,141797_-0.045454545454545414.png,4,7,live
606,A223UBAD8S1SIB:3G5W44VEU9P34PFU6AAW18TU45GGKK,1277,047685_-0.5.png,6,8,live
607,A223UBAD8S1SIB:3G5W44VEU9P34PFU6AAW18TU45GGKK,2045,092972_0.21717171717171724.png,8,9,live
608,A223UBAD8S1SIB:3G5W44VEU9P34PFU6AAW18TU45GGKK,1438,087975_-0.29797979797979796.png,4,10,live
609,A223UBAD8S1SIB:3G5W44VEU9P34PFU6AAW18TU45GGKK,1949,163069_-0.3282828282828283.png,7,11,live
610,A223UBAD8S1SIB:3G5W44VEU9P34PFU6AAW18TU45GGKK,1833,152726_0.2777777777777778.png,5,13,live
611,A223UBAD8S1SIB:3G5W44VEU9P34PFU6AAW18TU45GGKK,5816,190639_-0.21717171717171713.png,4,14,live
612,A223UBAD8S1SIB:3G5W44VEU9P34PFU6AAW18TU45GGKK,1469,065364_0.23737373737373746.png,6,15,live
613,A223UBAD8S1SIB:3G5W44VEU9P34PFU6AAW18TU45GGKK,1725,054707_0.45959595959595967.png,5,16,live
614,A223UBAD8S1SIB:3G5W44VEU9P34PFU6AAW18TU45GGKK,1567,049568_-0.4595959595959596.png,3,17,live
615,A223UBAD8S1SIB:3G5W44VEU9P34PFU6AAW18TU45GGKK,1637,156901_-0.41919191919191917.png,7,18,live
616,A223UBAD8S1SIB:3G5W44VEU9P34PFU6AAW18TU45GGKK,1639,173471_0.045454545454545525.png,4,19,live
617,A223UBAD8S1SIB:3G5W44VEU9P34PFU6AAW18TU45GGKK,2187,072205_0.4696969696969697.png,7,20,live
618,A223UBAD8S1SIB:3G5W44VEU9P34PFU6AAW18TU45GGKK,2397,153739_0.3585858585858587.png,5,21,live
619,A223UBAD8S1SIB:3G5W44VEU9P34PFU6AAW18TU45GGKK,1574,176556_-0.35858585858585856.png,7,22,live
620,A223UBAD8S1SIB:3G5W44VEU9P34PFU6AAW18TU45GGKK,3775,103215_-0.4292929292929293.png,7,24,live
621,A223UBAD8S1SIB:3G5W44VEU9P34PFU6AAW18TU45GGKK,1733,067113_0.015151515151515249.png,4,25,live
622,A223UBAD8S1SIB:3G5W44VEU9P34PFU6AAW18TU45GGKK,1775,037387_-0.015151515151515138.png,6,26,live
623,A223UBAD8S1SIB:3G5W44VEU9P34PFU6AAW18TU45GGKK,1622,015763_0.18686868686868696.png,8,27,live
624,A223UBAD8S1SIB:3G5W44VEU9P34PFU6AAW18TU45GGKK,1581,081495_-0.17676767676767674.png,5,28,live
625,A223UBAD8S1SIB:3G5W44VEU9P34PFU6AAW18TU45GGKK,1421,190639_-0.21717171717171713.png,7,29,live
626,A223UBAD8S1SIB:3G5W44VEU9P34PFU6AAW18TU45GGKK,1453,142628_-0.30808080808080807.png,4,30,live
627,A223UBAD8S1SIB:3G5W44VEU9P34PFU6AAW18TU45GGKK,1813,081495_-0.17676767676767674.png,7,31,live
628,A223UBAD8S1SIB:3G5W44VEU9P34PFU6AAW18TU45GGKK,1373,083159_-0.4696969696969697.png,5,32,live
629,A223UBAD8S1SIB:3G5W44VEU9P34PFU6AAW18TU45GGKK,1861,177845_0.4191919191919192.png,8,33,live
630,A223UBAD8S1SIB:3G5W44VEU9P34PFU6AAW18TU45GGKK,2259,174771_0.10606060606060608.png,8,35,live
631,A223UBAD8S1SIB:3G5W44VEU9P34PFU6AAW18TU45GGKK,1205,037153_0.09595959595959602.png,5,36,live
632,A223UBAD8S1SIB:3G5W44VEU9P34PFU6AAW18TU45GGKK,1591,201865_0.20707070707070718.png,7,37,live
633,A223UBAD8S1SIB:3G5W44VEU9P34PFU6AAW18TU45GGKK,2744,161186_-0.24747474747474746.png,8,38,live
634,A223UBAD8S1SIB:3G5W44VEU9P34PFU6AAW18TU45GGKK,29120,065726_0.2575757575757577.png,7,39,live
635,A223UBAD8S1SIB:3G5W44VEU9P34PFU6AAW18TU45GGKK,5024,177574_0.13636363636363646.png,7,40,live
636,A223UBAD8S1SIB:3G5W44VEU9P34PFU6AAW18TU45GGKK,2381,069583_0.16666666666666674.png,6,41,live
637,A223UBAD8S1SIB:3G5W44VEU9P34PFU6AAW18TU45GGKK,1869,023665_0.005050505050505083.png,8,42,live
638,A223UBAD8S1SIB:3G5W44VEU9P34PFU6AAW18TU45GGKK,1436,122021_0.24747474747474751.png,5,43,live
639,A223UBAD8S1SIB:3G5W44VEU9P34PFU6AAW18TU45GGKK,1965,113221_-0.3484848484848485.png,7,44,live
640,A223UBAD8S1SIB:3G5W44VEU9P34PFU6AAW18TU45GGKK,8451,121258_-0.398989898989899.png,6,46,live
641,A223UBAD8S1SIB:3G5W44VEU9P34PFU6AAW18TU45GGKK,2085,084706_-0.12626262626262624.png,5,47,live
642,A223UBAD8S1SIB:3G5W44VEU9P34PFU6AAW18TU45GGKK,1965,119128_0.36868686868686873.png,8,48,live
643,A223UBAD8S1SIB:3G5W44VEU9P34PFU6AAW18TU45GGKK,1613,132296_-0.1464646464646464.png,4,49,live
644,A223UBAD8S1SIB:3G5W44VEU9P34PFU6AAW18TU45GGKK,3236,195445_0.297979797979798.png,7,50,live
645,A223UBAD8S1SIB:3G5W44VEU9P34PFU6AAW18TU45GGKK,1662,097133_0.03535353535353536.png,6,51,live
646,A223UBAD8S1SIB:3G5W44VEU9P34PFU6AAW18TU45GGKK,1445,094401_-0.20707070707070707.png,5,52,live
647,A223UBAD8S1SIB:3G5W44VEU9P34PFU6AAW18TU45GGKK,2005,151012_0.11616161616161624.png,3,53,live
648,A223UBAD8S1SIB:3G5W44VEU9P34PFU6AAW18TU45GGKK,2556,038062_-0.28787878787878785.png,7,54,live
649,A223UBAD8S1SIB:3G5W44VEU9P34PFU6AAW18TU45GGKK,1749,140496_-0.06565656565656564.png,8,55,live
650,A223UBAD8S1SIB:3G5W44VEU9P34PFU6AAW18TU45GGKK,3931,139558_0.1262626262626263.png,8,57,live
651,A223UBAD8S1SIB:3G5W44VEU9P34PFU6AAW18TU45GGKK,1437,093413_-0.3888888888888889.png,4,58,live
652,A223UBAD8S1SIB:3G5W44VEU9P34PFU6AAW18TU45GGKK,1365,153739_0.3585858585858587.png,3,59,live
653,A223UBAD8S1SIB:3G5W44VEU9P34PFU6AAW18TU45GGKK,1765,115024_-0.33838383838383834.png,6,60,live
654,A223UBAD8S1SIB:3G5W44VEU9P34PFU6AAW18TU45GGKK,1301,110741_-0.23737373737373735.png,5,61,live
655,A223UBAD8S1SIB:3G5W44VEU9P34PFU6AAW18TU45GGKK,1878,034808_-0.025252525252525193.png,7,62,live
656,A223UBAD8S1SIB:3G5W44VEU9P34PFU6AAW18TU45GGKK,2504,003828_-0.10606060606060602.png,8,63,live
657,A223UBAD8S1SIB:3G5W44VEU9P34PFU6AAW18TU45GGKK,1783,181258_-0.11616161616161613.png,5,64,live
658,A223UBAD8S1SIB:3G5W44VEU9P34PFU6AAW18TU45GGKK,1885,006062_0.4797979797979799.png,7,65,live
659,A223UBAD8S1SIB:3G5W44VEU9P34PFU6AAW18TU45GGKK,1959,093413_-0.3888888888888889.png,4,66,live
660,A223UBAD8S1SIB:3G5W44VEU9P34PFU6AAW18TU45GGKK,4557,067113_0.015151515151515249.png,6,68,live
661,A223UBAD8S1SIB:3G5W44VEU9P34PFU6AAW18TU45GGKK,2248,021469_-0.2676767676767676.png,4,69,live
662,A223UBAD8S1SIB:3G5W44VEU9P34PFU6AAW18TU45GGKK,1735,167120_0.14646464646464652.png,6,70,live
663,A223UBAD8S1SIB:3G5W44VEU9P34PFU6AAW18TU45GGKK,1821,112709_0.28787878787878796.png,8,71,live
664,A223UBAD8S1SIB:3G5W44VEU9P34PFU6AAW18TU45GGKK,2037,156901_-0.41919191919191917.png,3,72,live
665,A223UBAD8S1SIB:3G5W44VEU9P34PFU6AAW18TU45GGKK,1565,030112_0.48989898989898994.png,5,73,live
666,A223UBAD8S1SIB:3G5W44VEU9P34PFU6AAW18TU45GGKK,3966,147787_-0.16666666666666663.png,7,74,live
667,A223UBAD8S1SIB:3G5W44VEU9P34PFU6AAW18TU45GGKK,5405,110741_-0.23737373737373735.png,5,75,live
668,A223UBAD8S1SIB:3G5W44VEU9P34PFU6AAW18TU45GGKK,1725,152768_0.4494949494949496.png,6,76,live
669,A223UBAD8S1SIB:3G5W44VEU9P34PFU6AAW18TU45GGKK,1478,130683_-0.19696969696969696.png,4,77,live
670,A223UBAD8S1SIB:3G5W44VEU9P34PFU6AAW18TU45GGKK,2179,062124_-0.25757575757575757.png,6,79,live
671,A223UBAD8S1SIB:3G5W44VEU9P34PFU6AAW18TU45GGKK,1391,190655_0.025252525252525304.png,4,80,live
672,A223UBAD8S1SIB:3G5W44VEU9P34PFU6AAW18TU45GGKK,1797,062124_-0.25757575757575757.png,7,81,live
673,A223UBAD8S1SIB:3G5W44VEU9P34PFU6AAW18TU45GGKK,1293,152768_0.4494949494949496.png,6,82,live
674,A223UBAD8S1SIB:3G5W44VEU9P34PFU6AAW18TU45GGKK,1661,084650_0.40909090909090917.png,3,83,live
675,A223UBAD8S1SIB:3G5W44VEU9P34PFU6AAW18TU45GGKK,1400,145045_-0.07575757575757575.png,6,84,live
676,A223UBAD8S1SIB:3G5W44VEU9P34PFU6AAW18TU45GGKK,1333,077214_-0.3787878787878788.png,5,85,live
677,A223UBAD8S1SIB:3G5W44VEU9P34PFU6AAW18TU45GGKK,2108,050496_-0.4898989898989899.png,8,86,live
678,A223UBAD8S1SIB:3G5W44VEU9P34PFU6AAW18TU45GGKK,1437,059261_0.15656565656565657.png,4,87,live
679,A223UBAD8S1SIB:3G5W44VEU9P34PFU6AAW18TU45GGKK,1588,080303_0.33838383838383845.png,6,88,live
680,A223UBAD8S1SIB:3G5W44VEU9P34PFU6AAW18TU45GGKK,1911,080357_-0.055555555555555525.png,6,90,live
681,A223UBAD8S1SIB:3G5W44VEU9P34PFU6AAW18TU45GGKK,1316,064390_0.3787878787878789.png,4,91,live
682,A223UBAD8S1SIB:3G5W44VEU9P34PFU6AAW18TU45GGKK,1820,097347_0.05555555555555558.png,7,92,live
683,A223UBAD8S1SIB:3G5W44VEU9P34PFU6AAW18TU45GGKK,2568,178658_0.4292929292929294.png,5,93,live
684,A223UBAD8S1SIB:3G5W44VEU9P34PFU6AAW18TU45GGKK,1877,065004_0.5.png,6,94,live
685,A223UBAD8S1SIB:3G5W44VEU9P34PFU6AAW18TU45GGKK,1484,142628_-0.30808080808080807.png,3,95,live
686,A223UBAD8S1SIB:3G5W44VEU9P34PFU6AAW18TU45GGKK,2092,037153_0.09595959595959602.png,5,96,live
687,A223UBAD8S1SIB:3G5W44VEU9P34PFU6AAW18TU45GGKK,1661,087975_-0.29797979797979796.png,6,97,live
688,A223UBAD8S1SIB:3G5W44VEU9P34PFU6AAW18TU45GGKK,1461,080303_0.33838383838383845.png,4,98,live
689,A223UBAD8S1SIB:3G5W44VEU9P34PFU6AAW18TU45GGKK,1934,186181_0.43939393939393945.png,7,99,live
690,A223UBAD8S1SIB:3G5W44VEU9P34PFU6AAW18TU45GGKK,1872,167751_-0.3686868686868687.png,5,101,live
691,A223UBAD8S1SIB:3G5W44VEU9P34PFU6AAW18TU45GGKK,1853,092972_0.21717171717171724.png,3,102,live
692,A223UBAD8S1SIB:3G5W44VEU9P34PFU6AAW18TU45GGKK,1669,041733_0.3989898989898991.png,7,103,live
693,A223UBAD8S1SIB:3G5W44VEU9P34PFU6AAW18TU45GGKK,1429,028632_0.31818181818181823.png,4,104,live
694,A223UBAD8S1SIB:3G5W44VEU9P34PFU6AAW18TU45GGKK,1630,069574_0.3080808080808082.png,2,105,live
695,A223UBAD8S1SIB:3G5W44VEU9P34PFU6AAW18TU45GGKK,1974,181258_-0.11616161616161613.png,6,106,live
696,A223UBAD8S1SIB:3G5W44VEU9P34PFU6AAW18TU45GGKK,2790,130683_-0.19696969696969696.png,3,107,live
697,A223UBAD8S1SIB:3G5W44VEU9P34PFU6AAW18TU45GGKK,1620,069574_0.3080808080808082.png,5,108,live
698,A223UBAD8S1SIB:3G5W44VEU9P34PFU6AAW18TU45GGKK,1711,145045_-0.07575757575757575.png,6,109,live
699,A223UBAD8S1SIB:3G5W44VEU9P34PFU6AAW18TU45GGKK,3669,020995_-0.09595959595959591.png,7,110,live
700,A321HI9J8MLQN4:3DBQWDE4Y856WYBDMRJLP3J98R7N5E,9822,065364_0.23737373737373746.png,9,2,live
701,A321HI9J8MLQN4:3DBQWDE4Y856WYBDMRJLP3J98R7N5E,2327,142628_-0.30808080808080807.png,4,3,live
702,A321HI9J8MLQN4:3DBQWDE4Y856WYBDMRJLP3J98R7N5E,1743,077214_-0.3787878787878788.png,5,4,live
703,A321HI9J8MLQN4:3DBQWDE4Y856WYBDMRJLP3J98R7N5E,2791,028632_0.31818181818181823.png,7,5,live
704,A321HI9J8MLQN4:3DBQWDE4Y856WYBDMRJLP3J98R7N5E,2479,069574_0.3080808080808082.png,3,6,live
705,A321HI9J8MLQN4:3DBQWDE4Y856WYBDMRJLP3J98R7N5E,2016,097347_0.05555555555555558.png,5,7,live
706,A321HI9J8MLQN4:3DBQWDE4Y856WYBDMRJLP3J98R7N5E,2920,087975_-0.29797979797979796.png,1,8,live
707,A321HI9J8MLQN4:3DBQWDE4Y856WYBDMRJLP3J98R7N5E,2583,015763_0.18686868686868696.png,3,9,live
708,A321HI9J8MLQN4:3DBQWDE4Y856WYBDMRJLP3J98R7N5E,2390,062124_-0.25757575757575757.png,1,10,live
709,A321HI9J8MLQN4:3DBQWDE4Y856WYBDMRJLP3J98R7N5E,3727,006062_0.4797979797979799.png,5,11,live
710,A321HI9J8MLQN4:3DBQWDE4Y856WYBDMRJLP3J98R7N5E,2667,050496_-0.4898989898989899.png,3,13,live
711,A321HI9J8MLQN4:3DBQWDE4Y856WYBDMRJLP3J98R7N5E,5190,084650_0.40909090909090917.png,1,14,live
712,A321HI9J8MLQN4:3DBQWDE4Y856WYBDMRJLP3J98R7N5E,4391,037387_-0.015151515151515138.png,1,15,live
713,A321HI9J8MLQN4:3DBQWDE4Y856WYBDMRJLP3J98R7N5E,1743,115024_-0.33838383838383834.png,1,16,live
714,A321HI9J8MLQN4:3DBQWDE4Y856WYBDMRJLP3J98R7N5E,2095,156901_-0.41919191919191917.png,1,17,live
715,A321HI9J8MLQN4:3DBQWDE4Y856WYBDMRJLP3J98R7N5E,2311,122021_0.24747474747474751.png,3,18,live
716,A321HI9J8MLQN4:3DBQWDE4Y856WYBDMRJLP3J98R7N5E,2358,049568_-0.4595959595959596.png,1,19,live
717,A321HI9J8MLQN4:3DBQWDE4Y856WYBDMRJLP3J98R7N5E,3159,047685_-0.5.png,6,20,live
718,A321HI9J8MLQN4:3DBQWDE4Y856WYBDMRJLP3J98R7N5E,3279,145045_-0.07575757575757575.png,2,21,live
719,A321HI9J8MLQN4:3DBQWDE4Y856WYBDMRJLP3J98R7N5E,3272,019861_0.38888888888888895.png,1,22,live
720,A321HI9J8MLQN4:3DBQWDE4Y856WYBDMRJLP3J98R7N5E,2625,054707_0.45959595959595967.png,2,24,live
721,A321HI9J8MLQN4:3DBQWDE4Y856WYBDMRJLP3J98R7N5E,3207,130683_-0.19696969696969696.png,4,25,live
722,A321HI9J8MLQN4:3DBQWDE4Y856WYBDMRJLP3J98R7N5E,2503,181258_-0.11616161616161613.png,2,26,live
723,A321HI9J8MLQN4:3DBQWDE4Y856WYBDMRJLP3J98R7N5E,1950,173471_0.045454545454545525.png,6,27,live
724,A321HI9J8MLQN4:3DBQWDE4Y856WYBDMRJLP3J98R7N5E,1232,186181_0.43939393939393945.png,5,28,live
725,A321HI9J8MLQN4:3DBQWDE4Y856WYBDMRJLP3J98R7N5E,1655,142628_-0.30808080808080807.png,3,29,live
726,A321HI9J8MLQN4:3DBQWDE4Y856WYBDMRJLP3J98R7N5E,2094,167120_0.14646464646464652.png,3,30,live
727,A321HI9J8MLQN4:3DBQWDE4Y856WYBDMRJLP3J98R7N5E,2510,152768_0.4494949494949496.png,1,31,live
728,A321HI9J8MLQN4:3DBQWDE4Y856WYBDMRJLP3J98R7N5E,4902,081495_-0.17676767676767674.png,5,32,live
729,A321HI9J8MLQN4:3DBQWDE4Y856WYBDMRJLP3J98R7N5E,3382,003820_0.2272727272727273.png,7,33,live
730,A321HI9J8MLQN4:3DBQWDE4Y856WYBDMRJLP3J98R7N5E,3500,201865_0.20707070707070718.png,2,35,live
731,A321HI9J8MLQN4:3DBQWDE4Y856WYBDMRJLP3J98R7N5E,2743,023665_0.005050505050505083.png,9,36,live
732,A321HI9J8MLQN4:3DBQWDE4Y856WYBDMRJLP3J98R7N5E,3327,186181_0.43939393939393945.png,8,37,live
733,A321HI9J8MLQN4:3DBQWDE4Y856WYBDMRJLP3J98R7N5E,3231,069583_0.16666666666666674.png,7,38,live
734,A321HI9J8MLQN4:3DBQWDE4Y856WYBDMRJLP3J98R7N5E,2111,190639_-0.21717171717171713.png,2,39,live
735,A321HI9J8MLQN4:3DBQWDE4Y856WYBDMRJLP3J98R7N5E,4408,084706_-0.12626262626262624.png,5,40,live
736,A321HI9J8MLQN4:3DBQWDE4Y856WYBDMRJLP3J98R7N5E,2607,195445_0.297979797979798.png,1,41,live
737,A321HI9J8MLQN4:3DBQWDE4Y856WYBDMRJLP3J98R7N5E,2687,139558_0.1262626262626263.png,1,42,live
738,A321HI9J8MLQN4:3DBQWDE4Y856WYBDMRJLP3J98R7N5E,2295,081495_-0.17676767676767674.png,5,43,live
739,A321HI9J8MLQN4:3DBQWDE4Y856WYBDMRJLP3J98R7N5E,6200,072205_0.4696969696969697.png,1,44,live
740,A321HI9J8MLQN4:3DBQWDE4Y856WYBDMRJLP3J98R7N5E,2935,177574_0.13636363636363646.png,7,46,live
741,A321HI9J8MLQN4:3DBQWDE4Y856WYBDMRJLP3J98R7N5E,2055,140496_-0.06565656565656564.png,2,47,live
742,A321HI9J8MLQN4:3DBQWDE4Y856WYBDMRJLP3J98R7N5E,2055,119128_0.36868686868686873.png,5,48,live
743,A321HI9J8MLQN4:3DBQWDE4Y856WYBDMRJLP3J98R7N5E,3087,080303_0.33838383838383845.png,1,49,live
744,A321HI9J8MLQN4:3DBQWDE4Y856WYBDMRJLP3J98R7N5E,2607,153739_0.3585858585858587.png,7,50,live
745,A321HI9J8MLQN4:3DBQWDE4Y856WYBDMRJLP3J98R7N5E,6088,030112_0.48989898989898994.png,8,51,live
746,A321HI9J8MLQN4:3DBQWDE4Y856WYBDMRJLP3J98R7N5E,4957,147787_-0.16666666666666663.png,5,52,live
747,A321HI9J8MLQN4:3DBQWDE4Y856WYBDMRJLP3J98R7N5E,2175,059261_0.15656565656565657.png,2,53,live
748,A321HI9J8MLQN4:3DBQWDE4Y856WYBDMRJLP3J98R7N5E,3703,003828_-0.10606060606060602.png,2,54,live
749,A321HI9J8MLQN4:3DBQWDE4Y856WYBDMRJLP3J98R7N5E,1599,069574_0.3080808080808082.png,1,55,live
750,A321HI9J8MLQN4:3DBQWDE4Y856WYBDMRJLP3J98R7N5E,2421,020995_-0.09595959595959591.png,1,57,live
751,A321HI9J8MLQN4:3DBQWDE4Y856WYBDMRJLP3J98R7N5E,1831,080303_0.33838383838383845.png,1,58,live
752,A321HI9J8MLQN4:3DBQWDE4Y856WYBDMRJLP3J98R7N5E,2095,094401_-0.20707070707070707.png,1,59,live
753,A321HI9J8MLQN4:3DBQWDE4Y856WYBDMRJLP3J98R7N5E,2582,132296_-0.1464646464646464.png,4,60,live
754,A321HI9J8MLQN4:3DBQWDE4Y856WYBDMRJLP3J98R7N5E,2951,141797_-0.045454545454545414.png,8,61,live
755,A321HI9J8MLQN4:3DBQWDE4Y856WYBDMRJLP3J98R7N5E,3823,163069_-0.3282828282828283.png,9,62,live
756,A321HI9J8MLQN4:3DBQWDE4Y856WYBDMRJLP3J98R7N5E,3023,113221_-0.3484848484848485.png,9,63,live
757,A321HI9J8MLQN4:3DBQWDE4Y856WYBDMRJLP3J98R7N5E,2327,110741_-0.23737373737373735.png,2,64,live
758,A321HI9J8MLQN4:3DBQWDE4Y856WYBDMRJLP3J98R7N5E,2455,145045_-0.07575757575757575.png,1,65,live
759,A321HI9J8MLQN4:3DBQWDE4Y856WYBDMRJLP3J98R7N5E,2640,152726_0.2777777777777778.png,1,66,live
760,A321HI9J8MLQN4:3DBQWDE4Y856WYBDMRJLP3J98R7N5E,2292,038062_-0.28787878787878785.png,2,68,live
761,A321HI9J8MLQN4:3DBQWDE4Y856WYBDMRJLP3J98R7N5E,2526,034808_-0.025252525252525193.png,1,69,live
762,A321HI9J8MLQN4:3DBQWDE4Y856WYBDMRJLP3J98R7N5E,2446,153739_0.3585858585858587.png,1,70,live
763,A321HI9J8MLQN4:3DBQWDE4Y856WYBDMRJLP3J98R7N5E,2455,037153_0.09595959595959602.png,6,71,live
764,A321HI9J8MLQN4:3DBQWDE4Y856WYBDMRJLP3J98R7N5E,4048,092972_0.21717171717171724.png,8,72,live
765,A321HI9J8MLQN4:3DBQWDE4Y856WYBDMRJLP3J98R7N5E,2655,067113_0.015151515151515249.png,3,73,live
766,A321HI9J8MLQN4:3DBQWDE4Y856WYBDMRJLP3J98R7N5E,1414,181258_-0.11616161616161613.png,3,74,live
767,A321HI9J8MLQN4:3DBQWDE4Y856WYBDMRJLP3J98R7N5E,2192,093413_-0.3888888888888889.png,6,75,live
768,A321HI9J8MLQN4:3DBQWDE4Y856WYBDMRJLP3J98R7N5E,2669,167751_-0.3686868686868687.png,3,76,live
769,A321HI9J8MLQN4:3DBQWDE4Y856WYBDMRJLP3J98R7N5E,4438,092972_0.21717171717171724.png,2,77,live
770,A321HI9J8MLQN4:3DBQWDE4Y856WYBDMRJLP3J98R7N5E,2194,176556_-0.35858585858585856.png,1,79,live
771,A321HI9J8MLQN4:3DBQWDE4Y856WYBDMRJLP3J98R7N5E,2423,065726_0.2575757575757577.png,5,80,live
772,A321HI9J8MLQN4:3DBQWDE4Y856WYBDMRJLP3J98R7N5E,8703,087975_-0.29797979797979796.png,1,81,live
773,A321HI9J8MLQN4:3DBQWDE4Y856WYBDMRJLP3J98R7N5E,2038,083159_-0.4696969696969697.png,2,82,live
774,A321HI9J8MLQN4:3DBQWDE4Y856WYBDMRJLP3J98R7N5E,25823,152768_0.4494949494949496.png,1,83,live
775,A321HI9J8MLQN4:3DBQWDE4Y856WYBDMRJLP3J98R7N5E,2398,097133_0.03535353535353536.png,1,84,live
776,A321HI9J8MLQN4:3DBQWDE4Y856WYBDMRJLP3J98R7N5E,2527,021469_-0.2676767676767676.png,1,85,live
777,A321HI9J8MLQN4:3DBQWDE4Y856WYBDMRJLP3J98R7N5E,3631,113061_-0.13636363636363635.png,5,86,live
778,A321HI9J8MLQN4:3DBQWDE4Y856WYBDMRJLP3J98R7N5E,2526,156901_-0.41919191919191917.png,1,87,live
779,A321HI9J8MLQN4:3DBQWDE4Y856WYBDMRJLP3J98R7N5E,2166,093413_-0.3888888888888889.png,7,88,live
780,A321HI9J8MLQN4:3DBQWDE4Y856WYBDMRJLP3J98R7N5E,2669,112709_0.28787878787878796.png,8,90,live
781,A321HI9J8MLQN4:3DBQWDE4Y856WYBDMRJLP3J98R7N5E,2566,065004_0.5.png,3,91,live
782,A321HI9J8MLQN4:3DBQWDE4Y856WYBDMRJLP3J98R7N5E,2430,177845_0.4191919191919192.png,1,92,live
783,A321HI9J8MLQN4:3DBQWDE4Y856WYBDMRJLP3J98R7N5E,3016,130683_-0.19696969696969696.png,1,93,live
784,A321HI9J8MLQN4:3DBQWDE4Y856WYBDMRJLP3J98R7N5E,1951,062124_-0.25757575757575757.png,1,94,live
785,A321HI9J8MLQN4:3DBQWDE4Y856WYBDMRJLP3J98R7N5E,3103,190655_0.025252525252525304.png,8,95,live
786,A321HI9J8MLQN4:3DBQWDE4Y856WYBDMRJLP3J98R7N5E,2199,151012_0.11616161616161624.png,1,96,live
787,A321HI9J8MLQN4:3DBQWDE4Y856WYBDMRJLP3J98R7N5E,2702,037153_0.09595959595959602.png,6,97,live
788,A321HI9J8MLQN4:3DBQWDE4Y856WYBDMRJLP3J98R7N5E,7240,174771_0.10606060606060608.png,8,98,live
789,A321HI9J8MLQN4:3DBQWDE4Y856WYBDMRJLP3J98R7N5E,5576,161186_-0.24747474747474746.png,5,99,live
790,A321HI9J8MLQN4:3DBQWDE4Y856WYBDMRJLP3J98R7N5E,4385,178658_0.4292929292929294.png,9,101,live
791,A321HI9J8MLQN4:3DBQWDE4Y856WYBDMRJLP3J98R7N5E,18263,103215_-0.4292929292929293.png,1,102,live
792,A321HI9J8MLQN4:3DBQWDE4Y856WYBDMRJLP3J98R7N5E,3110,064390_0.3787878787878789.png,1,103,live
793,A321HI9J8MLQN4:3DBQWDE4Y856WYBDMRJLP3J98R7N5E,2838,080357_-0.055555555555555525.png,5,104,live
794,A321HI9J8MLQN4:3DBQWDE4Y856WYBDMRJLP3J98R7N5E,1887,006062_0.4797979797979799.png,7,105,live
795,A321HI9J8MLQN4:3DBQWDE4Y856WYBDMRJLP3J98R7N5E,3152,041733_0.3989898989898991.png,7,106,live
796,A321HI9J8MLQN4:3DBQWDE4Y856WYBDMRJLP3J98R7N5E,2487,110741_-0.23737373737373735.png,4,107,live
797,A321HI9J8MLQN4:3DBQWDE4Y856WYBDMRJLP3J98R7N5E,2927,121258_-0.398989898989899.png,7,108,live
798,A321HI9J8MLQN4:3DBQWDE4Y856WYBDMRJLP3J98R7N5E,5431,190639_-0.21717171717171713.png,7,109,live
799,A321HI9J8MLQN4:3DBQWDE4Y856WYBDMRJLP3J98R7N5E,9703,067113_0.015151515151515249.png,2,110,live
800,A323RBOHUTRW53:3IAEQB9FMGRRN5ZKTYSRJYKSEKAWDN,7325,152768_0.4494949494949496.png,2,2,live
801,A323RBOHUTRW53:3IAEQB9FMGRRN5ZKTYSRJYKSEKAWDN,3244,030112_0.48989898989898994.png,8,3,live
802,A323RBOHUTRW53:3IAEQB9FMGRRN5ZKTYSRJYKSEKAWDN,3434,087975_-0.29797979797979796.png,1,4,live
803,A323RBOHUTRW53:3IAEQB9FMGRRN5ZKTYSRJYKSEKAWDN,2473,181258_-0.11616161616161613.png,8,5,live
804,A323RBOHUTRW53:3IAEQB9FMGRRN5ZKTYSRJYKSEKAWDN,2598,122021_0.24747474747474751.png,3,6,live
805,A323RBOHUTRW53:3IAEQB9FMGRRN5ZKTYSRJYKSEKAWDN,2387,142628_-0.30808080808080807.png,5,7,live
806,A323RBOHUTRW53:3IAEQB9FMGRRN5ZKTYSRJYKSEKAWDN,3470,041733_0.3989898989898991.png,6,8,live
807,A323RBOHUTRW53:3IAEQB9FMGRRN5ZKTYSRJYKSEKAWDN,3424,020995_-0.09595959595959591.png,4,9,live
808,A323RBOHUTRW53:3IAEQB9FMGRRN5ZKTYSRJYKSEKAWDN,2623,153739_0.3585858585858587.png,9,10,live
809,A323RBOHUTRW53:3IAEQB9FMGRRN5ZKTYSRJYKSEKAWDN,4188,140496_-0.06565656565656564.png,2,11,live
810,A323RBOHUTRW53:3IAEQB9FMGRRN5ZKTYSRJYKSEKAWDN,3384,092972_0.21717171717171724.png,6,13,live
811,A323RBOHUTRW53:3IAEQB9FMGRRN5ZKTYSRJYKSEKAWDN,4722,190655_0.025252525252525304.png,5,14,live
812,A323RBOHUTRW53:3IAEQB9FMGRRN5ZKTYSRJYKSEKAWDN,3607,050496_-0.4898989898989899.png,5,15,live
813,A323RBOHUTRW53:3IAEQB9FMGRRN5ZKTYSRJYKSEKAWDN,2152,174771_0.10606060606060608.png,4,16,live
814,A323RBOHUTRW53:3IAEQB9FMGRRN5ZKTYSRJYKSEKAWDN,3765,113061_-0.13636363636363635.png,6,17,live
815,A323RBOHUTRW53:3IAEQB9FMGRRN5ZKTYSRJYKSEKAWDN,3863,147787_-0.16666666666666663.png,7,18,live
816,A323RBOHUTRW53:3IAEQB9FMGRRN5ZKTYSRJYKSEKAWDN,2337,080303_0.33838383838383845.png,3,19,live
817,A323RBOHUTRW53:3IAEQB9FMGRRN5ZKTYSRJYKSEKAWDN,2213,084706_-0.12626262626262624.png,8,20,live
818,A323RBOHUTRW53:3IAEQB9FMGRRN5ZKTYSRJYKSEKAWDN,2108,110741_-0.23737373737373735.png,5,21,live
819,A323RBOHUTRW53:3IAEQB9FMGRRN5ZKTYSRJYKSEKAWDN,2028,119128_0.36868686868686873.png,6,22,live
820,A323RBOHUTRW53:3IAEQB9FMGRRN5ZKTYSRJYKSEKAWDN,2465,069574_0.3080808080808082.png,8,24,live
821,A323RBOHUTRW53:3IAEQB9FMGRRN5ZKTYSRJYKSEKAWDN,2115,152726_0.2777777777777778.png,7,25,live
822,A323RBOHUTRW53:3IAEQB9FMGRRN5ZKTYSRJYKSEKAWDN,3185,132296_-0.1464646464646464.png,5,26,live
823,A323RBOHUTRW53:3IAEQB9FMGRRN5ZKTYSRJYKSEKAWDN,2198,167751_-0.3686868686868687.png,6,27,live
824,A323RBOHUTRW53:3IAEQB9FMGRRN5ZKTYSRJYKSEKAWDN,1958,130683_-0.19696969696969696.png,4,28,live
825,A323RBOHUTRW53:3IAEQB9FMGRRN5ZKTYSRJYKSEKAWDN,2650,021469_-0.2676767676767676.png,8,29,live
826,A323RBOHUTRW53:3IAEQB9FMGRRN5ZKTYSRJYKSEKAWDN,2389,081495_-0.17676767676767674.png,4,30,live
827,A323RBOHUTRW53:3IAEQB9FMGRRN5ZKTYSRJYKSEKAWDN,2107,084650_0.40909090909090917.png,7,31,live
828,A323RBOHUTRW53:3IAEQB9FMGRRN5ZKTYSRJYKSEKAWDN,2039,152768_0.4494949494949496.png,2,32,live
829,A323RBOHUTRW53:3IAEQB9FMGRRN5ZKTYSRJYKSEKAWDN,2636,038062_-0.28787878787878785.png,4,33,live
830,A323RBOHUTRW53:3IAEQB9FMGRRN5ZKTYSRJYKSEKAWDN,2814,190639_-0.21717171717171713.png,7,35,live
831,A323RBOHUTRW53:3IAEQB9FMGRRN5ZKTYSRJYKSEKAWDN,2410,173471_0.045454545454545525.png,6,36,live
832,A323RBOHUTRW53:3IAEQB9FMGRRN5ZKTYSRJYKSEKAWDN,1860,069574_0.3080808080808082.png,8,37,live
833,A323RBOHUTRW53:3IAEQB9FMGRRN5ZKTYSRJYKSEKAWDN,2928,064390_0.3787878787878789.png,3,38,live
834,A323RBOHUTRW53:3IAEQB9FMGRRN5ZKTYSRJYKSEKAWDN,1857,141797_-0.045454545454545414.png,6,39,live
835,A323RBOHUTRW53:3IAEQB9FMGRRN5ZKTYSRJYKSEKAWDN,2023,006062_0.4797979797979799.png,7,40,live
836,A323RBOHUTRW53:3IAEQB9FMGRRN5ZKTYSRJYKSEKAWDN,2794,167120_0.14646464646464652.png,8,41,live
837,A323RBOHUTRW53:3IAEQB9FMGRRN5ZKTYSRJYKSEKAWDN,2636,092972_0.21717171717171724.png,7,42,live
838,A323RBOHUTRW53:3IAEQB9FMGRRN5ZKTYSRJYKSEKAWDN,3203,178658_0.4292929292929294.png,7,43,live
839,A323RBOHUTRW53:3IAEQB9FMGRRN5ZKTYSRJYKSEKAWDN,2452,062124_-0.25757575757575757.png,5,44,live
840,A323RBOHUTRW53:3IAEQB9FMGRRN5ZKTYSRJYKSEKAWDN,3838,161186_-0.24747474747474746.png,6,46,live
841,A323RBOHUTRW53:3IAEQB9FMGRRN5ZKTYSRJYKSEKAWDN,2018,201865_0.20707070707070718.png,5,47,live
842,A323RBOHUTRW53:3IAEQB9FMGRRN5ZKTYSRJYKSEKAWDN,2397,181258_-0.11616161616161613.png,8,48,live
843,A323RBOHUTRW53:3IAEQB9FMGRRN5ZKTYSRJYKSEKAWDN,27963,065726_0.2575757575757577.png,7,49,live
844,A323RBOHUTRW53:3IAEQB9FMGRRN5ZKTYSRJYKSEKAWDN,2062,081495_-0.17676767676767674.png,4,50,live
845,A323RBOHUTRW53:3IAEQB9FMGRRN5ZKTYSRJYKSEKAWDN,2866,112709_0.28787878787878796.png,5,51,live
846,A323RBOHUTRW53:3IAEQB9FMGRRN5ZKTYSRJYKSEKAWDN,2179,145045_-0.07575757575757575.png,6,52,live
847,A323RBOHUTRW53:3IAEQB9FMGRRN5ZKTYSRJYKSEKAWDN,2333,080303_0.33838383838383845.png,3,53,live
848,A323RBOHUTRW53:3IAEQB9FMGRRN5ZKTYSRJYKSEKAWDN,2064,015763_0.18686868686868696.png,8,54,live
849,A323RBOHUTRW53:3IAEQB9FMGRRN5ZKTYSRJYKSEKAWDN,3165,103215_-0.4292929292929293.png,3,55,live
850,A323RBOHUTRW53:3IAEQB9FMGRRN5ZKTYSRJYKSEKAWDN,1875,003828_-0.10606060606060602.png,8,57,live
851,A323RBOHUTRW53:3IAEQB9FMGRRN5ZKTYSRJYKSEKAWDN,2643,153739_0.3585858585858587.png,9,58,live
852,A323RBOHUTRW53:3IAEQB9FMGRRN5ZKTYSRJYKSEKAWDN,2467,121258_-0.398989898989899.png,4,59,live
853,A323RBOHUTRW53:3IAEQB9FMGRRN5ZKTYSRJYKSEKAWDN,2845,115024_-0.33838383838383834.png,6,60,live
854,A323RBOHUTRW53:3IAEQB9FMGRRN5ZKTYSRJYKSEKAWDN,1980,037153_0.09595959595959602.png,5,61,live
855,A323RBOHUTRW53:3IAEQB9FMGRRN5ZKTYSRJYKSEKAWDN,2013,059261_0.15656565656565657.png,6,62,live
856,A323RBOHUTRW53:3IAEQB9FMGRRN5ZKTYSRJYKSEKAWDN,2300,083159_-0.4696969696969697.png,5,63,live
857,A323RBOHUTRW53:3IAEQB9FMGRRN5ZKTYSRJYKSEKAWDN,3606,156901_-0.41919191919191917.png,2,64,live
858,A323RBOHUTRW53:3IAEQB9FMGRRN5ZKTYSRJYKSEKAWDN,3124,195445_0.297979797979798.png,5,65,live
859,A323RBOHUTRW53:3IAEQB9FMGRRN5ZKTYSRJYKSEKAWDN,2909,142628_-0.30808080808080807.png,4,66,live
860,A323RBOHUTRW53:3IAEQB9FMGRRN5ZKTYSRJYKSEKAWDN,4318,130683_-0.19696969696969696.png,3,68,live
861,A323RBOHUTRW53:3IAEQB9FMGRRN5ZKTYSRJYKSEKAWDN,2472,067113_0.015151515151515249.png,4,69,live
862,A323RBOHUTRW53:3IAEQB9FMGRRN5ZKTYSRJYKSEKAWDN,2122,028632_0.31818181818181823.png,6,70,live
863,A323RBOHUTRW53:3IAEQB9FMGRRN5ZKTYSRJYKSEKAWDN,1905,190639_-0.21717171717171713.png,7,71,live
864,A323RBOHUTRW53:3IAEQB9FMGRRN5ZKTYSRJYKSEKAWDN,2302,072205_0.4696969696969697.png,5,72,live
865,A323RBOHUTRW53:3IAEQB9FMGRRN5ZKTYSRJYKSEKAWDN,3851,047685_-0.5.png,4,73,live
866,A323RBOHUTRW53:3IAEQB9FMGRRN5ZKTYSRJYKSEKAWDN,2610,023665_0.005050505050505083.png,3,74,live
867,A323RBOHUTRW53:3IAEQB9FMGRRN5ZKTYSRJYKSEKAWDN,2071,003820_0.2272727272727273.png,7,75,live
868,A323RBOHUTRW53:3IAEQB9FMGRRN5ZKTYSRJYKSEKAWDN,2572,067113_0.015151515151515249.png,5,76,live
869,A323RBOHUTRW53:3IAEQB9FMGRRN5ZKTYSRJYKSEKAWDN,2006,093413_-0.3888888888888889.png,4,77,live
870,A323RBOHUTRW53:3IAEQB9FMGRRN5ZKTYSRJYKSEKAWDN,2853,054707_0.45959595959595967.png,6,79,live
871,A323RBOHUTRW53:3IAEQB9FMGRRN5ZKTYSRJYKSEKAWDN,1893,065364_0.23737373737373746.png,7,80,live
872,A323RBOHUTRW53:3IAEQB9FMGRRN5ZKTYSRJYKSEKAWDN,1699,110741_-0.23737373737373735.png,5,81,live
873,A323RBOHUTRW53:3IAEQB9FMGRRN5ZKTYSRJYKSEKAWDN,3767,093413_-0.3888888888888889.png,4,82,live
874,A323RBOHUTRW53:3IAEQB9FMGRRN5ZKTYSRJYKSEKAWDN,2203,177845_0.4191919191919192.png,5,83,live
875,A323RBOHUTRW53:3IAEQB9FMGRRN5ZKTYSRJYKSEKAWDN,2681,080357_-0.055555555555555525.png,3,84,live
876,A323RBOHUTRW53:3IAEQB9FMGRRN5ZKTYSRJYKSEKAWDN,2528,186181_0.43939393939393945.png,4,85,live
877,A323RBOHUTRW53:3IAEQB9FMGRRN5ZKTYSRJYKSEKAWDN,3475,186181_0.43939393939393945.png,3,86,live
878,A323RBOHUTRW53:3IAEQB9FMGRRN5ZKTYSRJYKSEKAWDN,2164,151012_0.11616161616161624.png,5,87,live
879,A323RBOHUTRW53:3IAEQB9FMGRRN5ZKTYSRJYKSEKAWDN,3094,037387_-0.015151515151515138.png,2,88,live
880,A323RBOHUTRW53:3IAEQB9FMGRRN5ZKTYSRJYKSEKAWDN,2261,077214_-0.3787878787878788.png,6,90,live
881,A323RBOHUTRW53:3IAEQB9FMGRRN5ZKTYSRJYKSEKAWDN,2411,006062_0.4797979797979799.png,8,91,live
882,A323RBOHUTRW53:3IAEQB9FMGRRN5ZKTYSRJYKSEKAWDN,2961,034808_-0.025252525252525193.png,5,92,live
883,A323RBOHUTRW53:3IAEQB9FMGRRN5ZKTYSRJYKSEKAWDN,1773,097133_0.03535353535353536.png,5,93,live
884,A323RBOHUTRW53:3IAEQB9FMGRRN5ZKTYSRJYKSEKAWDN,2508,177574_0.13636363636363646.png,7,94,live
885,A323RBOHUTRW53:3IAEQB9FMGRRN5ZKTYSRJYKSEKAWDN,2239,062124_-0.25757575757575757.png,5,95,live
886,A323RBOHUTRW53:3IAEQB9FMGRRN5ZKTYSRJYKSEKAWDN,3027,019861_0.38888888888888895.png,6,96,live
887,A323RBOHUTRW53:3IAEQB9FMGRRN5ZKTYSRJYKSEKAWDN,2464,049568_-0.4595959595959596.png,3,97,live
888,A323RBOHUTRW53:3IAEQB9FMGRRN5ZKTYSRJYKSEKAWDN,2521,113221_-0.3484848484848485.png,6,98,live
889,A323RBOHUTRW53:3IAEQB9FMGRRN5ZKTYSRJYKSEKAWDN,3281,037153_0.09595959595959602.png,7,99,live
890,A323RBOHUTRW53:3IAEQB9FMGRRN5ZKTYSRJYKSEKAWDN,2454,176556_-0.35858585858585856.png,5,101,live
891,A323RBOHUTRW53:3IAEQB9FMGRRN5ZKTYSRJYKSEKAWDN,1841,145045_-0.07575757575757575.png,6,102,live
892,A323RBOHUTRW53:3IAEQB9FMGRRN5ZKTYSRJYKSEKAWDN,2757,065004_0.5.png,4,103,live
893,A323RBOHUTRW53:3IAEQB9FMGRRN5ZKTYSRJYKSEKAWDN,2985,069583_0.16666666666666674.png,5,104,live
894,A323RBOHUTRW53:3IAEQB9FMGRRN5ZKTYSRJYKSEKAWDN,2035,087975_-0.29797979797979796.png,2,105,live
895,A323RBOHUTRW53:3IAEQB9FMGRRN5ZKTYSRJYKSEKAWDN,2036,163069_-0.3282828282828283.png,5,106,live
896,A323RBOHUTRW53:3IAEQB9FMGRRN5ZKTYSRJYKSEKAWDN,1814,094401_-0.20707070707070707.png,7,107,live
897,A323RBOHUTRW53:3IAEQB9FMGRRN5ZKTYSRJYKSEKAWDN,2661,139558_0.1262626262626263.png,6,108,live
898,A323RBOHUTRW53:3IAEQB9FMGRRN5ZKTYSRJYKSEKAWDN,3827,156901_-0.41919191919191917.png,2,109,live
899,A323RBOHUTRW53:3IAEQB9FMGRRN5ZKTYSRJYKSEKAWDN,1826,097347_0.05555555555555558.png,5,110,live
900,AI57RR8OF4MR7:3IXEICO794Q0AFGBO6F2Q831T5Q6T2,6670,181258_-0.11616161616161613.png,7,2,live
901,AI57RR8OF4MR7:3IXEICO794Q0AFGBO6F2Q831T5Q6T2,2606,110741_-0.23737373737373735.png,6,3,live
902,AI57RR8OF4MR7:3IXEICO794Q0AFGBO6F2Q831T5Q6T2,3352,195445_0.297979797979798.png,6,4,live
903,AI57RR8OF4MR7:3IXEICO794Q0AFGBO6F2Q831T5Q6T2,3579,037153_0.09595959595959602.png,8,5,live
904,AI57RR8OF4MR7:3IXEICO794Q0AFGBO6F2Q831T5Q6T2,2943,142628_-0.30808080808080807.png,6,6,live
905,AI57RR8OF4MR7:3IXEICO794Q0AFGBO6F2Q831T5Q6T2,3309,003820_0.2272727272727273.png,5,7,live
906,AI57RR8OF4MR7:3IXEICO794Q0AFGBO6F2Q831T5Q6T2,3174,064390_0.3787878787878789.png,7,8,live
907,AI57RR8OF4MR7:3IXEICO794Q0AFGBO6F2Q831T5Q6T2,3158,054707_0.45959595959595967.png,3,9,live
908,AI57RR8OF4MR7:3IXEICO794Q0AFGBO6F2Q831T5Q6T2,4078,072205_0.4696969696969697.png,7,10,live
909,AI57RR8OF4MR7:3IXEICO794Q0AFGBO6F2Q831T5Q6T2,2511,015763_0.18686868686868696.png,7,11,live
910,AI57RR8OF4MR7:3IXEICO794Q0AFGBO6F2Q831T5Q6T2,5442,037153_0.09595959595959602.png,6,13,live
911,AI57RR8OF4MR7:3IXEICO794Q0AFGBO6F2Q831T5Q6T2,5550,115024_-0.33838383838383834.png,6,14,live
912,AI57RR8OF4MR7:3IXEICO794Q0AFGBO6F2Q831T5Q6T2,2485,097133_0.03535353535353536.png,7,15,live
913,AI57RR8OF4MR7:3IXEICO794Q0AFGBO6F2Q831T5Q6T2,2558,153739_0.3585858585858587.png,9,16,live
914,AI57RR8OF4MR7:3IXEICO794Q0AFGBO6F2Q831T5Q6T2,2543,177574_0.13636363636363646.png,7,17,live
915,AI57RR8OF4MR7:3IXEICO794Q0AFGBO6F2Q831T5Q6T2,2414,065726_0.2575757575757577.png,7,18,live
916,AI57RR8OF4MR7:3IXEICO794Q0AFGBO6F2Q831T5Q6T2,1871,081495_-0.17676767676767674.png,5,19,live
917,AI57RR8OF4MR7:3IXEICO794Q0AFGBO6F2Q831T5Q6T2,2550,069574_0.3080808080808082.png,6,20,live
918,AI57RR8OF4MR7:3IXEICO794Q0AFGBO6F2Q831T5Q6T2,3959,145045_-0.07575757575757575.png,7,21,live
919,AI57RR8OF4MR7:3IXEICO794Q0AFGBO6F2Q831T5Q6T2,2733,037387_-0.015151515151515138.png,6,22,live
920,AI57RR8OF4MR7:3IXEICO794Q0AFGBO6F2Q831T5Q6T2,2180,153739_0.3585858585858587.png,9,24,live
921,AI57RR8OF4MR7:3IXEICO794Q0AFGBO6F2Q831T5Q6T2,1742,069574_0.3080808080808082.png,6,25,live
922,AI57RR8OF4MR7:3IXEICO794Q0AFGBO6F2Q831T5Q6T2,2798,087975_-0.29797979797979796.png,5,26,live
923,AI57RR8OF4MR7:3IXEICO794Q0AFGBO6F2Q831T5Q6T2,2774,173471_0.045454545454545525.png,6,27,live
924,AI57RR8OF4MR7:3IXEICO794Q0AFGBO6F2Q831T5Q6T2,3350,190655_0.025252525252525304.png,6,28,live
925,AI57RR8OF4MR7:3IXEICO794Q0AFGBO6F2Q831T5Q6T2,2398,097347_0.05555555555555558.png,7,29,live
926,AI57RR8OF4MR7:3IXEICO794Q0AFGBO6F2Q831T5Q6T2,2086,050496_-0.4898989898989899.png,7,30,live
927,AI57RR8OF4MR7:3IXEICO794Q0AFGBO6F2Q831T5Q6T2,2606,190639_-0.21717171717171713.png,5,31,live
928,AI57RR8OF4MR7:3IXEICO794Q0AFGBO6F2Q831T5Q6T2,3878,077214_-0.3787878787878788.png,6,32,live
929,AI57RR8OF4MR7:3IXEICO794Q0AFGBO6F2Q831T5Q6T2,4078,201865_0.20707070707070718.png,8,33,live
930,AI57RR8OF4MR7:3IXEICO794Q0AFGBO6F2Q831T5Q6T2,4305,062124_-0.25757575757575757.png,7,35,live
931,AI57RR8OF4MR7:3IXEICO794Q0AFGBO6F2Q831T5Q6T2,2790,174771_0.10606060606060608.png,7,36,live
932,AI57RR8OF4MR7:3IXEICO794Q0AFGBO6F2Q831T5Q6T2,3078,176556_-0.35858585858585856.png,6,37,live
933,AI57RR8OF4MR7:3IXEICO794Q0AFGBO6F2Q831T5Q6T2,2430,177845_0.4191919191919192.png,4,38,live
934,AI57RR8OF4MR7:3IXEICO794Q0AFGBO6F2Q831T5Q6T2,2166,067113_0.015151515151515249.png,6,39,live
935,AI57RR8OF4MR7:3IXEICO794Q0AFGBO6F2Q831T5Q6T2,2413,067113_0.015151515151515249.png,6,40,live
936,AI57RR8OF4MR7:3IXEICO794Q0AFGBO6F2Q831T5Q6T2,3382,141797_-0.045454545454545414.png,7,41,live
937,AI57RR8OF4MR7:3IXEICO794Q0AFGBO6F2Q831T5Q6T2,4326,041733_0.3989898989898991.png,3,42,live
938,AI57RR8OF4MR7:3IXEICO794Q0AFGBO6F2Q831T5Q6T2,1789,093413_-0.3888888888888889.png,4,43,live
939,AI57RR8OF4MR7:3IXEICO794Q0AFGBO6F2Q831T5Q6T2,3897,147787_-0.16666666666666663.png,4,44,live
940,AI57RR8OF4MR7:3IXEICO794Q0AFGBO6F2Q831T5Q6T2,1808,110741_-0.23737373737373735.png,6,46,live
941,AI57RR8OF4MR7:3IXEICO794Q0AFGBO6F2Q831T5Q6T2,2262,019861_0.38888888888888895.png,7,47,live
942,AI57RR8OF4MR7:3IXEICO794Q0AFGBO6F2Q831T5Q6T2,3734,021469_-0.2676767676767676.png,6,48,live
943,AI57RR8OF4MR7:3IXEICO794Q0AFGBO6F2Q831T5Q6T2,2334,119128_0.36868686868686873.png,8,49,live
944,AI57RR8OF4MR7:3IXEICO794Q0AFGBO6F2Q831T5Q6T2,2966,083159_-0.4696969696969697.png,6,50,live
945,AI57RR8OF4MR7:3IXEICO794Q0AFGBO6F2Q831T5Q6T2,3239,156901_-0.41919191919191917.png,4,51,live
946,AI57RR8OF4MR7:3IXEICO794Q0AFGBO6F2Q831T5Q6T2,2095,030112_0.48989898989898994.png,5,52,live
947,AI57RR8OF4MR7:3IXEICO794Q0AFGBO6F2Q831T5Q6T2,2462,080303_0.33838383838383845.png,3,53,live
948,AI57RR8OF4MR7:3IXEICO794Q0AFGBO6F2Q831T5Q6T2,4111,152768_0.4494949494949496.png,2,54,live
949,AI57RR8OF4MR7:3IXEICO794Q0AFGBO6F2Q831T5Q6T2,2159,065364_0.23737373737373746.png,7,55,live
950,AI57RR8OF4MR7:3IXEICO794Q0AFGBO6F2Q831T5Q6T2,2240,069583_0.16666666666666674.png,7,57,live
951,AI57RR8OF4MR7:3IXEICO794Q0AFGBO6F2Q831T5Q6T2,3245,178658_0.4292929292929294.png,6,58,live
952,AI57RR8OF4MR7:3IXEICO794Q0AFGBO6F2Q831T5Q6T2,3631,087975_-0.29797979797979796.png,5,59,live
953,AI57RR8OF4MR7:3IXEICO794Q0AFGBO6F2Q831T5Q6T2,4278,190639_-0.21717171717171713.png,6,60,live
954,AI57RR8OF4MR7:3IXEICO794Q0AFGBO6F2Q831T5Q6T2,3831,038062_-0.28787878787878785.png,4,61,live
955,AI57RR8OF4MR7:3IXEICO794Q0AFGBO6F2Q831T5Q6T2,3486,113221_-0.3484848484848485.png,6,62,live
956,AI57RR8OF4MR7:3IXEICO794Q0AFGBO6F2Q831T5Q6T2,2462,080357_-0.055555555555555525.png,6,63,live
957,AI57RR8OF4MR7:3IXEICO794Q0AFGBO6F2Q831T5Q6T2,2407,186181_0.43939393939393945.png,5,64,live
958,AI57RR8OF4MR7:3IXEICO794Q0AFGBO6F2Q831T5Q6T2,2222,167120_0.14646464646464652.png,7,65,live
959,AI57RR8OF4MR7:3IXEICO794Q0AFGBO6F2Q831T5Q6T2,1590,006062_0.4797979797979799.png,7,66,live
960,AI57RR8OF4MR7:3IXEICO794Q0AFGBO6F2Q831T5Q6T2,3784,028632_0.31818181818181823.png,8,68,live
961,AI57RR8OF4MR7:3IXEICO794Q0AFGBO6F2Q831T5Q6T2,2933,151012_0.11616161616161624.png,7,69,live
962,AI57RR8OF4MR7:3IXEICO794Q0AFGBO6F2Q831T5Q6T2,2103,065004_0.5.png,7,70,live
963,AI57RR8OF4MR7:3IXEICO794Q0AFGBO6F2Q831T5Q6T2,2558,084650_0.40909090909090917.png,7,71,live
964,AI57RR8OF4MR7:3IXEICO794Q0AFGBO6F2Q831T5Q6T2,1879,152726_0.2777777777777778.png,7,72,live
965,AI57RR8OF4MR7:3IXEICO794Q0AFGBO6F2Q831T5Q6T2,2191,062124_-0.25757575757575757.png,6,73,live
966,AI57RR8OF4MR7:3IXEICO794Q0AFGBO6F2Q831T5Q6T2,2527,167751_-0.3686868686868687.png,6,74,live
967,AI57RR8OF4MR7:3IXEICO794Q0AFGBO6F2Q831T5Q6T2,9029,047685_-0.5.png,7,75,live
968,AI57RR8OF4MR7:3IXEICO794Q0AFGBO6F2Q831T5Q6T2,3391,122021_0.24747474747474751.png,4,76,live
969,AI57RR8OF4MR7:3IXEICO794Q0AFGBO6F2Q831T5Q6T2,2294,152768_0.4494949494949496.png,2,77,live
970,AI57RR8OF4MR7:3IXEICO794Q0AFGBO6F2Q831T5Q6T2,20941,163069_-0.3282828282828283.png,4,79,live
971,AI57RR8OF4MR7:3IXEICO794Q0AFGBO6F2Q831T5Q6T2,1839,093413_-0.3888888888888889.png,3,80,live
972,AI57RR8OF4MR7:3IXEICO794Q0AFGBO6F2Q831T5Q6T2,4238,003828_-0.10606060606060602.png,8,81,live
973,AI57RR8OF4MR7:3IXEICO794Q0AFGBO6F2Q831T5Q6T2,2317,140496_-0.06565656565656564.png,2,82,live
974,AI57RR8OF4MR7:3IXEICO794Q0AFGBO6F2Q831T5Q6T2,3566,080303_0.33838383838383845.png,4,83,live
975,AI57RR8OF4MR7:3IXEICO794Q0AFGBO6F2Q831T5Q6T2,1806,092972_0.21717171717171724.png,6,84,live
976,AI57RR8OF4MR7:3IXEICO794Q0AFGBO6F2Q831T5Q6T2,1669,186181_0.43939393939393945.png,5,85,live
977,AI57RR8OF4MR7:3IXEICO794Q0AFGBO6F2Q831T5Q6T2,4734,112709_0.28787878787878796.png,4,86,live
978,AI57RR8OF4MR7:3IXEICO794Q0AFGBO6F2Q831T5Q6T2,1782,081495_-0.17676767676767674.png,5,87,live
979,AI57RR8OF4MR7:3IXEICO794Q0AFGBO6F2Q831T5Q6T2,2407,130683_-0.19696969696969696.png,6,88,live
980,AI57RR8OF4MR7:3IXEICO794Q0AFGBO6F2Q831T5Q6T2,3612,094401_-0.20707070707070707.png,8,90,live
981,AI57RR8OF4MR7:3IXEICO794Q0AFGBO6F2Q831T5Q6T2,16069,121258_-0.398989898989899.png,6,91,live
982,AI57RR8OF4MR7:3IXEICO794Q0AFGBO6F2Q831T5Q6T2,1775,130683_-0.19696969696969696.png,6,92,live
983,AI57RR8OF4MR7:3IXEICO794Q0AFGBO6F2Q831T5Q6T2,3614,023665_0.005050505050505083.png,8,93,live
984,AI57RR8OF4MR7:3IXEICO794Q0AFGBO6F2Q831T5Q6T2,3462,049568_-0.4595959595959596.png,5,94,live
985,AI57RR8OF4MR7:3IXEICO794Q0AFGBO6F2Q831T5Q6T2,3654,113061_-0.13636363636363635.png,4,95,live
986,AI57RR8OF4MR7:3IXEICO794Q0AFGBO6F2Q831T5Q6T2,2446,034808_-0.025252525252525193.png,4,96,live
987,AI57RR8OF4MR7:3IXEICO794Q0AFGBO6F2Q831T5Q6T2,3087,006062_0.4797979797979799.png,6,97,live
988,AI57RR8OF4MR7:3IXEICO794Q0AFGBO6F2Q831T5Q6T2,2134,145045_-0.07575757575757575.png,7,98,live
989,AI57RR8OF4MR7:3IXEICO794Q0AFGBO6F2Q831T5Q6T2,1749,181258_-0.11616161616161613.png,7,99,live
990,AI57RR8OF4MR7:3IXEICO794Q0AFGBO6F2Q831T5Q6T2,2909,156901_-0.41919191919191917.png,4,101,live
991,AI57RR8OF4MR7:3IXEICO794Q0AFGBO6F2Q831T5Q6T2,2383,059261_0.15656565656565657.png,8,102,live
992,AI57RR8OF4MR7:3IXEICO794Q0AFGBO6F2Q831T5Q6T2,1951,020995_-0.09595959595959591.png,5,103,live
993,AI57RR8OF4MR7:3IXEICO794Q0AFGBO6F2Q831T5Q6T2,1862,084706_-0.12626262626262624.png,7,104,live
994,AI57RR8OF4MR7:3IXEICO794Q0AFGBO6F2Q831T5Q6T2,2095,142628_-0.30808080808080807.png,4,105,live
995,AI57RR8OF4MR7:3IXEICO794Q0AFGBO6F2Q831T5Q6T2,1877,132296_-0.1464646464646464.png,6,106,live
996,AI57RR8OF4MR7:3IXEICO794Q0AFGBO6F2Q831T5Q6T2,2157,103215_-0.4292929292929293.png,4,107,live
997,AI57RR8OF4MR7:3IXEICO794Q0AFGBO6F2Q831T5Q6T2,1694,092972_0.21717171717171724.png,6,108,live
998,AI57RR8OF4MR7:3IXEICO794Q0AFGBO6F2Q831T5Q6T2,1687,139558_0.1262626262626263.png,7,109,live
999,AI57RR8OF4MR7:3IXEICO794Q0AFGBO6F2Q831T5Q6T2,2830,161186_-0.24747474747474746.png,6,110,live
1000,A3IN3VIEUUENV9:36NEMU28XHKURZ5X6RRU2O7MNYLMWE,5554,176556_-0.35858585858585856.png,3,2,live
1001,A3IN3VIEUUENV9:36NEMU28XHKURZ5X6RRU2O7MNYLMWE,3287,110741_-0.23737373737373735.png,5,3,live
1002,A3IN3VIEUUENV9:36NEMU28XHKURZ5X6RRU2O7MNYLMWE,4007,097347_0.05555555555555558.png,5,4,live
1003,A3IN3VIEUUENV9:36NEMU28XHKURZ5X6RRU2O7MNYLMWE,2924,113061_-0.13636363636363635.png,6,5,live
1004,A3IN3VIEUUENV9:36NEMU28XHKURZ5X6RRU2O7MNYLMWE,3509,067113_0.015151515151515249.png,4,6,live
1005,A3IN3VIEUUENV9:36NEMU28XHKURZ5X6RRU2O7MNYLMWE,5665,152768_0.4494949494949496.png,3,7,live
1006,A3IN3VIEUUENV9:36NEMU28XHKURZ5X6RRU2O7MNYLMWE,2360,020995_-0.09595959595959591.png,3,8,live
1007,A3IN3VIEUUENV9:36NEMU28XHKURZ5X6RRU2O7MNYLMWE,2542,041733_0.3989898989898991.png,3,9,live
1008,A3IN3VIEUUENV9:36NEMU28XHKURZ5X6RRU2O7MNYLMWE,1777,152768_0.4494949494949496.png,3,10,live
1009,A3IN3VIEUUENV9:36NEMU28XHKURZ5X6RRU2O7MNYLMWE,3306,069574_0.3080808080808082.png,6,11,live
1010,A3IN3VIEUUENV9:36NEMU28XHKURZ5X6RRU2O7MNYLMWE,4655,201865_0.20707070707070718.png,3,13,live
1011,A3IN3VIEUUENV9:36NEMU28XHKURZ5X6RRU2O7MNYLMWE,2500,065004_0.5.png,4,14,live
1012,A3IN3VIEUUENV9:36NEMU28XHKURZ5X6RRU2O7MNYLMWE,2074,023665_0.005050505050505083.png,4,15,live
1013,A3IN3VIEUUENV9:36NEMU28XHKURZ5X6RRU2O7MNYLMWE,2216,142628_-0.30808080808080807.png,3,16,live
1014,A3IN3VIEUUENV9:36NEMU28XHKURZ5X6RRU2O7MNYLMWE,2035,080303_0.33838383838383845.png,3,17,live
1015,A3IN3VIEUUENV9:36NEMU28XHKURZ5X6RRU2O7MNYLMWE,2207,049568_-0.4595959595959596.png,5,18,live
1016,A3IN3VIEUUENV9:36NEMU28XHKURZ5X6RRU2O7MNYLMWE,4553,190639_-0.21717171717171713.png,3,19,live
1017,A3IN3VIEUUENV9:36NEMU28XHKURZ5X6RRU2O7MNYLMWE,2656,190639_-0.21717171717171713.png,3,20,live
1018,A3IN3VIEUUENV9:36NEMU28XHKURZ5X6RRU2O7MNYLMWE,2349,186181_0.43939393939393945.png,5,21,live
1019,A3IN3VIEUUENV9:36NEMU28XHKURZ5X6RRU2O7MNYLMWE,2312,190655_0.025252525252525304.png,3,22,live
1020,A3IN3VIEUUENV9:36NEMU28XHKURZ5X6RRU2O7MNYLMWE,2426,062124_-0.25757575757575757.png,3,24,live
1021,A3IN3VIEUUENV9:36NEMU28XHKURZ5X6RRU2O7MNYLMWE,2161,087975_-0.29797979797979796.png,2,25,live
1022,A3IN3VIEUUENV9:36NEMU28XHKURZ5X6RRU2O7MNYLMWE,2054,047685_-0.5.png,6,26,live
1023,A3IN3VIEUUENV9:36NEMU28XHKURZ5X6RRU2O7MNYLMWE,2133,119128_0.36868686868686873.png,7,27,live
1024,A3IN3VIEUUENV9:36NEMU28XHKURZ5X6RRU2O7MNYLMWE,2712,145045_-0.07575757575757575.png,5,28,live
1025,A3IN3VIEUUENV9:36NEMU28XHKURZ5X6RRU2O7MNYLMWE,1653,186181_0.43939393939393945.png,6,29,live
1026,A3IN3VIEUUENV9:36NEMU28XHKURZ5X6RRU2O7MNYLMWE,1710,145045_-0.07575757575757575.png,5,30,live
1027,A3IN3VIEUUENV9:36NEMU28XHKURZ5X6RRU2O7MNYLMWE,2609,037153_0.09595959595959602.png,8,31,live
1028,A3IN3VIEUUENV9:36NEMU28XHKURZ5X6RRU2O7MNYLMWE,3155,092972_0.21717171717171724.png,9,32,live
1029,A3IN3VIEUUENV9:36NEMU28XHKURZ5X6RRU2O7MNYLMWE,2023,050496_-0.4898989898989899.png,6,33,live
1030,A3IN3VIEUUENV9:36NEMU28XHKURZ5X6RRU2O7MNYLMWE,1987,152726_0.2777777777777778.png,4,35,live
1031,A3IN3VIEUUENV9:36NEMU28XHKURZ5X6RRU2O7MNYLMWE,2238,083159_-0.4696969696969697.png,8,36,live
1032,A3IN3VIEUUENV9:36NEMU28XHKURZ5X6RRU2O7MNYLMWE,2409,153739_0.3585858585858587.png,9,37,live
1033,A3IN3VIEUUENV9:36NEMU28XHKURZ5X6RRU2O7MNYLMWE,1951,072205_0.4696969696969697.png,4,38,live
1034,A3IN3VIEUUENV9:36NEMU28XHKURZ5X6RRU2O7MNYLMWE,2302,006062_0.4797979797979799.png,7,39,live
1035,A3IN3VIEUUENV9:36NEMU28XHKURZ5X6RRU2O7MNYLMWE,3421,140496_-0.06565656565656564.png,2,40,live
1036,A3IN3VIEUUENV9:36NEMU28XHKURZ5X6RRU2O7MNYLMWE,2848,195445_0.297979797979798.png,3,41,live
1037,A3IN3VIEUUENV9:36NEMU28XHKURZ5X6RRU2O7MNYLMWE,2167,065364_0.23737373737373746.png,7,42,live
1038,A3IN3VIEUUENV9:36NEMU28XHKURZ5X6RRU2O7MNYLMWE,3095,181258_-0.11616161616161613.png,7,43,live
1039,A3IN3VIEUUENV9:36NEMU28XHKURZ5X6RRU2O7MNYLMWE,2562,015763_0.18686868686868696.png,8,44,live
1040,A3IN3VIEUUENV9:36NEMU28XHKURZ5X6RRU2O7MNYLMWE,3326,151012_0.11616161616161624.png,4,46,live
1041,A3IN3VIEUUENV9:36NEMU28XHKURZ5X6RRU2O7MNYLMWE,2381,093413_-0.3888888888888889.png,3,47,live
1042,A3IN3VIEUUENV9:36NEMU28XHKURZ5X6RRU2O7MNYLMWE,1938,077214_-0.3787878787878788.png,5,48,live
1043,A3IN3VIEUUENV9:36NEMU28XHKURZ5X6RRU2O7MNYLMWE,2042,178658_0.4292929292929294.png,6,49,live
1044,A3IN3VIEUUENV9:36NEMU28XHKURZ5X6RRU2O7MNYLMWE,1939,006062_0.4797979797979799.png,7,50,live
