A1QVNF19XSRSD7:3IAS3U3I0HNCWS3T1ICE01G37R12B0,0,1548274508678,"{""rt"": 26003, ""trial_type"": ""instructions"", ""view_history"": ""[{\""page_index\"":0,\""viewing_time\"":24367},{\""page_index\"":1,\""viewing_time\"":888},{\""page_index\"":2,\""viewing_time\"":748}]"", ""task_type"": ""instruction"", ""task_payment"": 1, ""task_version"": 1, ""internal_node_id"": ""0.0-0.0"", ""time_elapsed"": 26005, ""debug_mode"": ""live"", ""task_name"": ""trustworthy-modifae-single"", ""task_unique_trial"": 100, ""trial_index"": 0}"
A1QVNF19XSRSD7:3IAS3U3I0HNCWS3T1ICE01G37R12B0,1,1548274520197,"{""rt"": 11511, ""trial_type"": ""survey-multi-choice"", ""task_type"": ""demographic-multichoice"", ""responses"": ""{\""Q0\"":\""26-35\"",\""Q1\"":\""Male\"",\""Q2\"":\""No\"",\""Q3\"":\""4\"",\""Q4\"":\""White\"",\""Q5\"":\""Bachelor&#8217;s degree (e.g. BA, BS) or above\"",\""Q6\"":\""Less than $20,000\""}"", ""task_payment"": 1, ""task_version"": 1, ""time_elapsed"": 37525, ""sanity_check_1_continue"": true, ""random_num"": 4, ""debug_mode"": ""live"", ""questions"": ""[{\""prompt\"":\""What is your age?\"",\""options\"":[\""Under 18\"",\""18-25\"",\""26-35\"",\""36-45\"",\""46-55\"",\""56+\""],\""required\"":true},{\""prompt\"":\""What is your gender?\"",\""options\"":[\""Male\"",\""Female\"",\""Other/Prefer not to say\""],\""required\"":true},{\""prompt\"":\""Are you of Hispanic, Latino, or Spanish origin?\"",\""options\"":[\""Yes\"",\""No\""],\""required\"":true},{\""prompt\"":\""Please choose the option that matches the number here: 4\"",\""options\"":[\""1\"",\""2\"",\""3\"",\""4\""],\""required\"":true},{\""prompt\"":\""How would you describe yourself?\"",\""options\"":[\""American Indian or Alaskan Native\"",\""Asian\"",\""Black or African-American\"",\""Native Hawaiian or Other Pacific Islander\"",\""White\""],\""required\"":true},{\""prompt\"":\""What is the highest degree or level of school you have completed? (If you&#8217;re currently enrolled in school, please indicate the highest degree you have received)\"",\""options\"":[\""Less than a high school diploma\"",\""High school degree or equivalent (e.g. GED)\"",\""Some college, no degree\"",\""Associate degree (e.g. AA, AS)\"",\""Bachelor&#8217;s degree (e.g. BA, BS) or above\""],\""required\"":true},{\""prompt\"":\""What is the total income of all members of your household?\"",\""options\"":[\""Less than $20,000\"",\""$20,000  - $49,999\"",\""$50,000 - $74,999\"",\""$75,000 and above\""],\""required\"":true}]"", ""internal_node_id"": ""0.0-1.0-0.0"", ""task_unique_trial"": 100, ""task_name"": ""trustworthy-modifae-single"", ""trial_index"": 1}"
A1QVNF19XSRSD7:3IAS3U3I0HNCWS3T1ICE01G37R12B0,2,1548274524015,"{""rt"": 3812, ""trial_type"": ""face-likert-amanda"", ""debug_mode"": ""live"", ""task_type"": ""face trials"", ""responses"": ""{\""Q0\"":5}"", ""task_payment"": 1, ""task_version"": 1, ""internal_node_id"": ""0.0-2.0-0.0-0.0"", ""time_elapsed"": 41343, ""imgName"": ""/static/images/modifae_new_linspace/trustworthy/067113_0.015151515151515249.png"", ""questions"": ""[{\""prompt\"":\""<p>How <b>trustworthy</b> does this person look to <b>most people</b>? Rate from 1-9</p>\"",\""labels\"":[\""1 <br/><b>Not trustworthy at all</b>\"",\""2\"",\""3\"",\""4\"",\""5\"",\""6\"",\""7\"",\""8\"",\""9  <br/><b>Extremely trustworthy</b>\""],\""required\"":true}]"", ""task_unique_trial"": 100, ""task_name"": ""trustworthy-modifae-single"", ""trial_index"": 2, ""isRepeat"": 0}"
A1QVNF19XSRSD7:3IAS3U3I0HNCWS3T1ICE01G37R12B0,3,1548274526057,"{""rt"": 2039, ""trial_type"": ""face-likert-amanda"", ""debug_mode"": ""live"", ""task_type"": ""face trials"", ""responses"": ""{\""Q0\"":6}"", ""task_payment"": 1, ""task_version"": 1, ""internal_node_id"": ""0.0-2.0-0.0-1.0"", ""time_elapsed"": 43385, ""imgName"": ""/static/images/modifae_new_linspace/trustworthy/140496_-0.06565656565656564.png"", ""questions"": ""[{\""prompt\"":\""<p>How <b>trustworthy</b> does this person look to <b>most people</b>? Rate from 1-9</p>\"",\""labels\"":[\""1 <br/><b>Not trustworthy at all</b>\"",\""2\"",\""3\"",\""4\"",\""5\"",\""6\"",\""7\"",\""8\"",\""9  <br/><b>Extremely trustworthy</b>\""],\""required\"":true}]"", ""task_unique_trial"": 100, ""task_name"": ""trustworthy-modifae-single"", ""trial_index"": 3, ""isRepeat"": 0}"
A1QVNF19XSRSD7:3IAS3U3I0HNCWS3T1ICE01G37R12B0,4,1548274527841,"{""rt"": 1781, ""trial_type"": ""face-likert-amanda"", ""debug_mode"": ""live"", ""task_type"": ""face trials"", ""responses"": ""{\""Q0\"":2}"", ""task_payment"": 1, ""task_version"": 1, ""internal_node_id"": ""0.0-2.0-0.0-2.0"", ""time_elapsed"": 45169, ""imgName"": ""/static/images/modifae_new_linspace/trustworthy/173471_0.045454545454545525.png"", ""questions"": ""[{\""prompt\"":\""<p>How <b>trustworthy</b> does this person look to <b>most people</b>? Rate from 1-9</p>\"",\""labels\"":[\""1 <br/><b>Not trustworthy at all</b>\"",\""2\"",\""3\"",\""4\"",\""5\"",\""6\"",\""7\"",\""8\"",\""9  <br/><b>Extremely trustworthy</b>\""],\""required\"":true}]"", ""task_unique_trial"": 100, ""task_name"": ""trustworthy-modifae-single"", ""trial_index"": 4, ""isRepeat"": 0}"
A1QVNF19XSRSD7:3IAS3U3I0HNCWS3T1ICE01G37R12B0,5,1548274530881,"{""rt"": 3038, ""trial_type"": ""face-likert-amanda"", ""debug_mode"": ""live"", ""task_type"": ""face trials"", ""responses"": ""{\""Q0\"":3}"", ""task_payment"": 1, ""task_version"": 1, ""internal_node_id"": ""0.0-2.0-0.0-3.0"", ""time_elapsed"": 48209, ""imgName"": ""/static/images/modifae_new_linspace/trustworthy/047685_-0.5.png"", ""questions"": ""[{\""prompt\"":\""<p>How <b>trustworthy</b> does this person look to <b>most people</b>? Rate from 1-9</p>\"",\""labels\"":[\""1 <br/><b>Not trustworthy at all</b>\"",\""2\"",\""3\"",\""4\"",\""5\"",\""6\"",\""7\"",\""8\"",\""9  <br/><b>Extremely trustworthy</b>\""],\""required\"":true}]"", ""task_unique_trial"": 100, ""task_name"": ""trustworthy-modifae-single"", ""trial_index"": 5, ""isRepeat"": 0}"
A1QVNF19XSRSD7:3IAS3U3I0HNCWS3T1ICE01G37R12B0,6,1548274532782,"{""rt"": 1897, ""trial_type"": ""face-likert-amanda"", ""debug_mode"": ""live"", ""task_type"": ""face trials"", ""responses"": ""{\""Q0\"":2}"", ""task_payment"": 1, ""task_version"": 1, ""internal_node_id"": ""0.0-2.0-0.0-4.0"", ""time_elapsed"": 50110, ""imgName"": ""/static/images/modifae_new_linspace/trustworthy/069583_0.16666666666666674.png"", ""questions"": ""[{\""prompt\"":\""<p>How <b>trustworthy</b> does this person look to <b>most people</b>? Rate from 1-9</p>\"",\""labels\"":[\""1 <br/><b>Not trustworthy at all</b>\"",\""2\"",\""3\"",\""4\"",\""5\"",\""6\"",\""7\"",\""8\"",\""9  <br/><b>Extremely trustworthy</b>\""],\""required\"":true}]"", ""task_unique_trial"": 100, ""task_name"": ""trustworthy-modifae-single"", ""trial_index"": 6, ""isRepeat"": 0}"
A1QVNF19XSRSD7:3IAS3U3I0HNCWS3T1ICE01G37R12B0,7,1548274534381,"{""rt"": 1596, ""trial_type"": ""face-likert-amanda"", ""debug_mode"": ""live"", ""task_type"": ""face trials"", ""responses"": ""{\""Q0\"":3}"", ""task_payment"": 1, ""task_version"": 1, ""internal_node_id"": ""0.0-2.0-0.0-5.0"", ""time_elapsed"": 51709, ""imgName"": ""/static/images/modifae_new_linspace/trustworthy/037153_0.09595959595959602.png"", ""questions"": ""[{\""prompt\"":\""<p>How <b>trustworthy</b> does this person look to <b>most people</b>? Rate from 1-9</p>\"",\""labels\"":[\""1 <br/><b>Not trustworthy at all</b>\"",\""2\"",\""3\"",\""4\"",\""5\"",\""6\"",\""7\"",\""8\"",\""9  <br/><b>Extremely trustworthy</b>\""],\""required\"":true}]"", ""task_unique_trial"": 100, ""task_name"": ""trustworthy-modifae-single"", ""trial_index"": 7, ""isRepeat"": 0}"
A1QVNF19XSRSD7:3IAS3U3I0HNCWS3T1ICE01G37R12B0,8,1548274535998,"{""rt"": 1615, ""trial_type"": ""face-likert-amanda"", ""debug_mode"": ""live"", ""task_type"": ""face trials"", ""responses"": ""{\""Q0\"":4}"", ""task_payment"": 1, ""task_version"": 1, ""internal_node_id"": ""0.0-2.0-0.0-6.0"", ""time_elapsed"": 53326, ""imgName"": ""/static/images/modifae_new_linspace/trustworthy/006062_0.4797979797979799.png"", ""questions"": ""[{\""prompt\"":\""<p>How <b>trustworthy</b> does this person look to <b>most people</b>? Rate from 1-9</p>\"",\""labels\"":[\""1 <br/><b>Not trustworthy at all</b>\"",\""2\"",\""3\"",\""4\"",\""5\"",\""6\"",\""7\"",\""8\"",\""9  <br/><b>Extremely trustworthy</b>\""],\""required\"":true}]"", ""task_unique_trial"": 100, ""task_name"": ""trustworthy-modifae-single"", ""trial_index"": 8, ""isRepeat"": 0}"
A1QVNF19XSRSD7:3IAS3U3I0HNCWS3T1ICE01G37R12B0,9,1548274537883,"{""rt"": 1884, ""trial_type"": ""face-likert-amanda"", ""debug_mode"": ""live"", ""task_type"": ""face trials"", ""responses"": ""{\""Q0\"":2}"", ""task_payment"": 1, ""task_version"": 1, ""internal_node_id"": ""0.0-2.0-0.0-7.0"", ""time_elapsed"": 55211, ""imgName"": ""/static/images/modifae_new_linspace/trustworthy/084706_-0.12626262626262624.png"", ""questions"": ""[{\""prompt\"":\""<p>How <b>trustworthy</b> does this person look to <b>most people</b>? Rate from 1-9</p>\"",\""labels\"":[\""1 <br/><b>Not trustworthy at all</b>\"",\""2\"",\""3\"",\""4\"",\""5\"",\""6\"",\""7\"",\""8\"",\""9  <br/><b>Extremely trustworthy</b>\""],\""required\"":true}]"", ""task_unique_trial"": 100, ""task_name"": ""trustworthy-modifae-single"", ""trial_index"": 9, ""isRepeat"": 0}"
A1QVNF19XSRSD7:3IAS3U3I0HNCWS3T1ICE01G37R12B0,10,1548274539604,"{""rt"": 1720, ""trial_type"": ""face-likert-amanda"", ""debug_mode"": ""live"", ""task_type"": ""face trials"", ""responses"": ""{\""Q0\"":2}"", ""task_payment"": 1, ""task_version"": 1, ""internal_node_id"": ""0.0-2.0-0.0-8.0"", ""time_elapsed"": 56932, ""imgName"": ""/static/images/modifae_new_linspace/trustworthy/147787_-0.16666666666666663.png"", ""questions"": ""[{\""prompt\"":\""<p>How <b>trustworthy</b> does this person look to <b>most people</b>? Rate from 1-9</p>\"",\""labels\"":[\""1 <br/><b>Not trustworthy at all</b>\"",\""2\"",\""3\"",\""4\"",\""5\"",\""6\"",\""7\"",\""8\"",\""9  <br/><b>Extremely trustworthy</b>\""],\""required\"":true}]"", ""task_unique_trial"": 100, ""task_name"": ""trustworthy-modifae-single"", ""trial_index"": 10, ""isRepeat"": 0}"
A1QVNF19XSRSD7:3IAS3U3I0HNCWS3T1ICE01G37R12B0,11,1548274541232,"{""rt"": 1625, ""trial_type"": ""face-likert-amanda"", ""debug_mode"": ""live"", ""task_type"": ""face trials"", ""responses"": ""{\""Q0\"":3}"", ""task_payment"": 1, ""task_version"": 1, ""internal_node_id"": ""0.0-2.0-0.0-9.0"", ""time_elapsed"": 58560, ""imgName"": ""/static/images/modifae_new_linspace/trustworthy/186181_0.43939393939393945.png"", ""questions"": ""[{\""prompt\"":\""<p>How <b>trustworthy</b> does this person look to <b>most people</b>? Rate from 1-9</p>\"",\""labels\"":[\""1 <br/><b>Not trustworthy at all</b>\"",\""2\"",\""3\"",\""4\"",\""5\"",\""6\"",\""7\"",\""8\"",\""9  <br/><b>Extremely trustworthy</b>\""],\""required\"":true}]"", ""task_unique_trial"": 100, ""task_name"": ""trustworthy-modifae-single"", ""trial_index"": 11, ""isRepeat"": 0}"
A1QVNF19XSRSD7:3IAS3U3I0HNCWS3T1ICE01G37R12B0,12,1548274542234,"{""rt"": null, ""trial_type"": ""html-keyboard-response"", ""task_unique_trial"": 100, ""stimulus"": ""<p>Good job!</p>"", ""task_version"": 1, ""internal_node_id"": ""0.0-2.0-1.0"", ""task_payment"": 1, ""time_elapsed"": 59562, ""debug_mode"": ""live"", ""key_press"": null, ""task_name"": ""trustworthy-modifae-single"", ""trial_index"": 12}"
A1QVNF19XSRSD7:3IAS3U3I0HNCWS3T1ICE01G37R12B0,13,1548274544355,"{""rt"": 2116, ""trial_type"": ""face-likert-amanda"", ""debug_mode"": ""live"", ""task_type"": ""face trials"", ""responses"": ""{\""Q0\"":5}"", ""task_payment"": 1, ""task_version"": 1, ""internal_node_id"": ""0.0-3.0-0.0-0.0"", ""time_elapsed"": 61683, ""imgName"": ""/static/images/modifae_new_linspace/trustworthy/034808_-0.025252525252525193.png"", ""questions"": ""[{\""prompt\"":\""<p>How <b>trustworthy</b> does this person look to <b>most people</b>? Rate from 1-9</p>\"",\""labels\"":[\""1 <br/><b>Not trustworthy at all</b>\"",\""2\"",\""3\"",\""4\"",\""5\"",\""6\"",\""7\"",\""8\"",\""9  <br/><b>Extremely trustworthy</b>\""],\""required\"":true}]"", ""task_unique_trial"": 100, ""task_name"": ""trustworthy-modifae-single"", ""trial_index"": 13, ""isRepeat"": 0}"
A1QVNF19XSRSD7:3IAS3U3I0HNCWS3T1ICE01G37R12B0,14,1548274557424,"{""rt"": 13066, ""trial_type"": ""face-likert-amanda"", ""debug_mode"": ""live"", ""task_type"": ""face trials"", ""responses"": ""{\""Q0\"":5}"", ""task_payment"": 1, ""task_version"": 1, ""internal_node_id"": ""0.0-3.0-0.0-1.0"", ""time_elapsed"": 74752, ""imgName"": ""/static/images/modifae_new_linspace/trustworthy/030112_0.48989898989898994.png"", ""questions"": ""[{\""prompt\"":\""<p>How <b>trustworthy</b> does this person look to <b>most people</b>? Rate from 1-9</p>\"",\""labels\"":[\""1 <br/><b>Not trustworthy at all</b>\"",\""2\"",\""3\"",\""4\"",\""5\"",\""6\"",\""7\"",\""8\"",\""9  <br/><b>Extremely trustworthy</b>\""],\""required\"":true}]"", ""task_unique_trial"": 100, ""task_name"": ""trustworthy-modifae-single"", ""trial_index"": 14, ""isRepeat"": 0}"
A1QVNF19XSRSD7:3IAS3U3I0HNCWS3T1ICE01G37R12B0,15,1548274559166,"{""rt"": 1740, ""trial_type"": ""face-likert-amanda"", ""debug_mode"": ""live"", ""task_type"": ""face trials"", ""responses"": ""{\""Q0\"":5}"", ""task_payment"": 1, ""task_version"": 1, ""internal_node_id"": ""0.0-3.0-0.0-2.0"", ""time_elapsed"": 76494, ""imgName"": ""/static/images/modifae_new_linspace/trustworthy/190639_-0.21717171717171713.png"", ""questions"": ""[{\""prompt\"":\""<p>How <b>trustworthy</b> does this person look to <b>most people</b>? Rate from 1-9</p>\"",\""labels\"":[\""1 <br/><b>Not trustworthy at all</b>\"",\""2\"",\""3\"",\""4\"",\""5\"",\""6\"",\""7\"",\""8\"",\""9  <br/><b>Extremely trustworthy</b>\""],\""required\"":true}]"", ""task_unique_trial"": 100, ""task_name"": ""trustworthy-modifae-single"", ""trial_index"": 15, ""isRepeat"": 0}"
A1QVNF19XSRSD7:3IAS3U3I0HNCWS3T1ICE01G37R12B0,16,1548274560899,"{""rt"": 1732, ""trial_type"": ""face-likert-amanda"", ""debug_mode"": ""live"", ""task_type"": ""face trials"", ""responses"": ""{\""Q0\"":4}"", ""task_payment"": 1, ""task_version"": 1, ""internal_node_id"": ""0.0-3.0-0.0-3.0"", ""time_elapsed"": 78227, ""imgName"": ""/static/images/modifae_new_linspace/trustworthy/119128_0.36868686868686873.png"", ""questions"": ""[{\""prompt\"":\""<p>How <b>trustworthy</b> does this person look to <b>most people</b>? Rate from 1-9</p>\"",\""labels\"":[\""1 <br/><b>Not trustworthy at all</b>\"",\""2\"",\""3\"",\""4\"",\""5\"",\""6\"",\""7\"",\""8\"",\""9  <br/><b>Extremely trustworthy</b>\""],\""required\"":true}]"", ""task_unique_trial"": 100, ""task_name"": ""trustworthy-modifae-single"", ""trial_index"": 16, ""isRepeat"": 0}"
A1QVNF19XSRSD7:3IAS3U3I0HNCWS3T1ICE01G37R12B0,17,1548274562672,"{""rt"": 1770, ""trial_type"": ""face-likert-amanda"", ""debug_mode"": ""live"", ""task_type"": ""face trials"", ""responses"": ""{\""Q0\"":4}"", ""task_payment"": 1, ""task_version"": 1, ""internal_node_id"": ""0.0-3.0-0.0-4.0"", ""time_elapsed"": 80000, ""imgName"": ""/static/images/modifae_new_linspace/trustworthy/054707_0.45959595959595967.png"", ""questions"": ""[{\""prompt\"":\""<p>How <b>trustworthy</b> does this person look to <b>most people</b>? Rate from 1-9</p>\"",\""labels\"":[\""1 <br/><b>Not trustworthy at all</b>\"",\""2\"",\""3\"",\""4\"",\""5\"",\""6\"",\""7\"",\""8\"",\""9  <br/><b>Extremely trustworthy</b>\""],\""required\"":true}]"", ""task_unique_trial"": 100, ""task_name"": ""trustworthy-modifae-single"", ""trial_index"": 17, ""isRepeat"": 0}"
A1QVNF19XSRSD7:3IAS3U3I0HNCWS3T1ICE01G37R12B0,18,1548274566209,"{""rt"": 3535, ""trial_type"": ""face-likert-amanda"", ""debug_mode"": ""live"", ""task_type"": ""face trials"", ""responses"": ""{\""Q0\"":6}"", ""task_payment"": 1, ""task_version"": 1, ""internal_node_id"": ""0.0-3.0-0.0-5.0"", ""time_elapsed"": 83537, ""imgName"": ""/static/images/modifae_new_linspace/trustworthy/201865_0.20707070707070718.png"", ""questions"": ""[{\""prompt\"":\""<p>How <b>trustworthy</b> does this person look to <b>most people</b>? Rate from 1-9</p>\"",\""labels\"":[\""1 <br/><b>Not trustworthy at all</b>\"",\""2\"",\""3\"",\""4\"",\""5\"",\""6\"",\""7\"",\""8\"",\""9  <br/><b>Extremely trustworthy</b>\""],\""required\"":true}]"", ""task_unique_trial"": 100, ""task_name"": ""trustworthy-modifae-single"", ""trial_index"": 18, ""isRepeat"": 0}"
A1QVNF19XSRSD7:3IAS3U3I0HNCWS3T1ICE01G37R12B0,19,1548274568351,"{""rt"": 2141, ""trial_type"": ""face-likert-amanda"", ""debug_mode"": ""live"", ""task_type"": ""face trials"", ""responses"": ""{\""Q0\"":5}"", ""task_payment"": 1, ""task_version"": 1, ""internal_node_id"": ""0.0-3.0-0.0-6.0"", ""time_elapsed"": 85679, ""imgName"": ""/static/images/modifae_new_linspace/trustworthy/059261_0.15656565656565657.png"", ""questions"": ""[{\""prompt\"":\""<p>How <b>trustworthy</b> does this person look to <b>most people</b>? Rate from 1-9</p>\"",\""labels\"":[\""1 <br/><b>Not trustworthy at all</b>\"",\""2\"",\""3\"",\""4\"",\""5\"",\""6\"",\""7\"",\""8\"",\""9  <br/><b>Extremely trustworthy</b>\""],\""required\"":true}]"", ""task_unique_trial"": 100, ""task_name"": ""trustworthy-modifae-single"", ""trial_index"": 19, ""isRepeat"": 0}"
A1QVNF19XSRSD7:3IAS3U3I0HNCWS3T1ICE01G37R12B0,20,1548274570137,"{""rt"": 1783, ""trial_type"": ""face-likert-amanda"", ""debug_mode"": ""live"", ""task_type"": ""face trials"", ""responses"": ""{\""Q0\"":5}"", ""task_payment"": 1, ""task_version"": 1, ""internal_node_id"": ""0.0-3.0-0.0-7.0"", ""time_elapsed"": 87463, ""imgName"": ""/static/images/modifae_new_linspace/trustworthy/092972_0.21717171717171724.png"", ""questions"": ""[{\""prompt\"":\""<p>How <b>trustworthy</b> does this person look to <b>most people</b>? Rate from 1-9</p>\"",\""labels\"":[\""1 <br/><b>Not trustworthy at all</b>\"",\""2\"",\""3\"",\""4\"",\""5\"",\""6\"",\""7\"",\""8\"",\""9  <br/><b>Extremely trustworthy</b>\""],\""required\"":true}]"", ""task_unique_trial"": 100, ""task_name"": ""trustworthy-modifae-single"", ""trial_index"": 20, ""isRepeat"": 0}"
A1QVNF19XSRSD7:3IAS3U3I0HNCWS3T1ICE01G37R12B0,21,1548274572095,"{""rt"": 1955, ""trial_type"": ""face-likert-amanda"", ""debug_mode"": ""live"", ""task_type"": ""face trials"", ""responses"": ""{\""Q0\"":2}"", ""task_payment"": 1, ""task_version"": 1, ""internal_node_id"": ""0.0-3.0-0.0-8.0"", ""time_elapsed"": 89421, ""imgName"": ""/static/images/modifae_new_linspace/trustworthy/065364_0.23737373737373746.png"", ""questions"": ""[{\""prompt\"":\""<p>How <b>trustworthy</b> does this person look to <b>most people</b>? Rate from 1-9</p>\"",\""labels\"":[\""1 <br/><b>Not trustworthy at all</b>\"",\""2\"",\""3\"",\""4\"",\""5\"",\""6\"",\""7\"",\""8\"",\""9  <br/><b>Extremely trustworthy</b>\""],\""required\"":true}]"", ""task_unique_trial"": 100, ""task_name"": ""trustworthy-modifae-single"", ""trial_index"": 21, ""isRepeat"": 0}"
A1QVNF19XSRSD7:3IAS3U3I0HNCWS3T1ICE01G37R12B0,22,1548274573771,"{""rt"": 1675, ""trial_type"": ""face-likert-amanda"", ""debug_mode"": ""live"", ""task_type"": ""face trials"", ""responses"": ""{\""Q0\"":3}"", ""task_payment"": 1, ""task_version"": 1, ""internal_node_id"": ""0.0-3.0-0.0-9.0"", ""time_elapsed"": 91099, ""imgName"": ""/static/images/modifae_new_linspace/trustworthy/195445_0.297979797979798.png"", ""questions"": ""[{\""prompt\"":\""<p>How <b>trustworthy</b> does this person look to <b>most people</b>? Rate from 1-9</p>\"",\""labels\"":[\""1 <br/><b>Not trustworthy at all</b>\"",\""2\"",\""3\"",\""4\"",\""5\"",\""6\"",\""7\"",\""8\"",\""9  <br/><b>Extremely trustworthy</b>\""],\""required\"":true}]"", ""task_unique_trial"": 100, ""task_name"": ""trustworthy-modifae-single"", ""trial_index"": 22, ""isRepeat"": 0}"
A1QVNF19XSRSD7:3IAS3U3I0HNCWS3T1ICE01G37R12B0,23,1548274575772,"{""rt"": null, ""trial_type"": ""html-keyboard-response"", ""task_unique_trial"": 100, ""stimulus"": ""<p>Good job!</p>"", ""task_version"": 1, ""internal_node_id"": ""0.0-3.0-1.0"", ""task_payment"": 1, ""time_elapsed"": 93100, ""debug_mode"": ""live"", ""key_press"": null, ""task_name"": ""trustworthy-modifae-single"", ""trial_index"": 23}"
A1QVNF19XSRSD7:3IAS3U3I0HNCWS3T1ICE01G37R12B0,24,1548274585196,"{""rt"": 9423, ""trial_type"": ""face-likert-amanda"", ""debug_mode"": ""live"", ""task_type"": ""face trials"", ""responses"": ""{\""Q0\"":5}"", ""task_payment"": 1, ""task_version"": 1, ""internal_node_id"": ""0.0-4.0-0.0-0.0"", ""time_elapsed"": 102524, ""imgName"": ""/static/images/modifae_new_linspace/trustworthy/177574_0.13636363636363646.png"", ""questions"": ""[{\""prompt\"":\""<p>How <b>trustworthy</b> does this person look to <b>most people</b>? Rate from 1-9</p>\"",\""labels\"":[\""1 <br/><b>Not trustworthy at all</b>\"",\""2\"",\""3\"",\""4\"",\""5\"",\""6\"",\""7\"",\""8\"",\""9  <br/><b>Extremely trustworthy</b>\""],\""required\"":true}]"", ""task_unique_trial"": 100, ""task_name"": ""trustworthy-modifae-single"", ""trial_index"": 24, ""isRepeat"": 0}"
A1QVNF19XSRSD7:3IAS3U3I0HNCWS3T1ICE01G37R12B0,25,1548274586915,"{""rt"": 1717, ""trial_type"": ""face-likert-amanda"", ""debug_mode"": ""live"", ""task_type"": ""face trials"", ""responses"": ""{\""Q0\"":6}"", ""task_payment"": 1, ""task_version"": 1, ""internal_node_id"": ""0.0-4.0-0.0-1.0"", ""time_elapsed"": 104243, ""imgName"": ""/static/images/modifae_new_linspace/trustworthy/037153_0.09595959595959602.png"", ""questions"": ""[{\""prompt\"":\""<p>How <b>trustworthy</b> does this person look to <b>most people</b>? Rate from 1-9</p>\"",\""labels\"":[\""1 <br/><b>Not trustworthy at all</b>\"",\""2\"",\""3\"",\""4\"",\""5\"",\""6\"",\""7\"",\""8\"",\""9  <br/><b>Extremely trustworthy</b>\""],\""required\"":true}]"", ""task_unique_trial"": 100, ""task_name"": ""trustworthy-modifae-single"", ""trial_index"": 25, ""isRepeat"": 0}"
A1QVNF19XSRSD7:3IAS3U3I0HNCWS3T1ICE01G37R12B0,26,1548274588668,"{""rt"": 1751, ""trial_type"": ""face-likert-amanda"", ""debug_mode"": ""live"", ""task_type"": ""face trials"", ""responses"": ""{\""Q0\"":5}"", ""task_payment"": 1, ""task_version"": 1, ""internal_node_id"": ""0.0-4.0-0.0-2.0"", ""time_elapsed"": 105996, ""imgName"": ""/static/images/modifae_new_linspace/trustworthy/094401_-0.20707070707070707.png"", ""questions"": ""[{\""prompt\"":\""<p>How <b>trustworthy</b> does this person look to <b>most people</b>? Rate from 1-9</p>\"",\""labels\"":[\""1 <br/><b>Not trustworthy at all</b>\"",\""2\"",\""3\"",\""4\"",\""5\"",\""6\"",\""7\"",\""8\"",\""9  <br/><b>Extremely trustworthy</b>\""],\""required\"":true}]"", ""task_unique_trial"": 100, ""task_name"": ""trustworthy-modifae-single"", ""trial_index"": 26, ""isRepeat"": 0}"
A1QVNF19XSRSD7:3IAS3U3I0HNCWS3T1ICE01G37R12B0,27,1548274590273,"{""rt"": 1601, ""trial_type"": ""face-likert-amanda"", ""debug_mode"": ""live"", ""task_type"": ""face trials"", ""responses"": ""{\""Q0\"":2}"", ""task_payment"": 1, ""task_version"": 1, ""internal_node_id"": ""0.0-4.0-0.0-3.0"", ""time_elapsed"": 107601, ""imgName"": ""/static/images/modifae_new_linspace/trustworthy/142628_-0.30808080808080807.png"", ""questions"": ""[{\""prompt\"":\""<p>How <b>trustworthy</b> does this person look to <b>most people</b>? Rate from 1-9</p>\"",\""labels\"":[\""1 <br/><b>Not trustworthy at all</b>\"",\""2\"",\""3\"",\""4\"",\""5\"",\""6\"",\""7\"",\""8\"",\""9  <br/><b>Extremely trustworthy</b>\""],\""required\"":true}]"", ""task_unique_trial"": 100, ""task_name"": ""trustworthy-modifae-single"", ""trial_index"": 27, ""isRepeat"": 0}"
A1QVNF19XSRSD7:3IAS3U3I0HNCWS3T1ICE01G37R12B0,28,1548274592292,"{""rt"": 2018, ""trial_type"": ""face-likert-amanda"", ""debug_mode"": ""live"", ""task_type"": ""face trials"", ""responses"": ""{\""Q0\"":3}"", ""task_payment"": 1, ""task_version"": 1, ""internal_node_id"": ""0.0-4.0-0.0-4.0"", ""time_elapsed"": 109620, ""imgName"": ""/static/images/modifae_new_linspace/trustworthy/112709_0.28787878787878796.png"", ""questions"": ""[{\""prompt\"":\""<p>How <b>trustworthy</b> does this person look to <b>most people</b>? Rate from 1-9</p>\"",\""labels\"":[\""1 <br/><b>Not trustworthy at all</b>\"",\""2\"",\""3\"",\""4\"",\""5\"",\""6\"",\""7\"",\""8\"",\""9  <br/><b>Extremely trustworthy</b>\""],\""required\"":true}]"", ""task_unique_trial"": 100, ""task_name"": ""trustworthy-modifae-single"", ""trial_index"": 28, ""isRepeat"": 0}"
A1QVNF19XSRSD7:3IAS3U3I0HNCWS3T1ICE01G37R12B0,29,1548274595060,"{""rt"": 2766, ""trial_type"": ""face-likert-amanda"", ""debug_mode"": ""live"", ""task_type"": ""face trials"", ""responses"": ""{\""Q0\"":2}"", ""task_payment"": 1, ""task_version"": 1, ""internal_node_id"": ""0.0-4.0-0.0-5.0"", ""time_elapsed"": 112388, ""imgName"": ""/static/images/modifae_new_linspace/trustworthy/097347_0.05555555555555558.png"", ""questions"": ""[{\""prompt\"":\""<p>How <b>trustworthy</b> does this person look to <b>most people</b>? Rate from 1-9</p>\"",\""labels\"":[\""1 <br/><b>Not trustworthy at all</b>\"",\""2\"",\""3\"",\""4\"",\""5\"",\""6\"",\""7\"",\""8\"",\""9  <br/><b>Extremely trustworthy</b>\""],\""required\"":true}]"", ""task_unique_trial"": 100, ""task_name"": ""trustworthy-modifae-single"", ""trial_index"": 29, ""isRepeat"": 0}"
A1QVNF19XSRSD7:3IAS3U3I0HNCWS3T1ICE01G37R12B0,30,1548274597417,"{""rt"": 2356, ""trial_type"": ""face-likert-amanda"", ""debug_mode"": ""live"", ""task_type"": ""face trials"", ""responses"": ""{\""Q0\"":6}"", ""task_payment"": 1, ""task_version"": 1, ""internal_node_id"": ""0.0-4.0-0.0-6.0"", ""time_elapsed"": 114745, ""imgName"": ""/static/images/modifae_new_linspace/trustworthy/103215_-0.4292929292929293.png"", ""questions"": ""[{\""prompt\"":\""<p>How <b>trustworthy</b> does this person look to <b>most people</b>? Rate from 1-9</p>\"",\""labels\"":[\""1 <br/><b>Not trustworthy at all</b>\"",\""2\"",\""3\"",\""4\"",\""5\"",\""6\"",\""7\"",\""8\"",\""9  <br/><b>Extremely trustworthy</b>\""],\""required\"":true}]"", ""task_unique_trial"": 100, ""task_name"": ""trustworthy-modifae-single"", ""trial_index"": 30, ""isRepeat"": 0}"
A1QVNF19XSRSD7:3IAS3U3I0HNCWS3T1ICE01G37R12B0,31,1548274599894,"{""rt"": 2476, ""trial_type"": ""face-likert-amanda"", ""debug_mode"": ""live"", ""task_type"": ""face trials"", ""responses"": ""{\""Q0\"":4}"", ""task_payment"": 1, ""task_version"": 1, ""internal_node_id"": ""0.0-4.0-0.0-7.0"", ""time_elapsed"": 117222, ""imgName"": ""/static/images/modifae_new_linspace/trustworthy/062124_-0.25757575757575757.png"", ""questions"": ""[{\""prompt\"":\""<p>How <b>trustworthy</b> does this person look to <b>most people</b>? Rate from 1-9</p>\"",\""labels\"":[\""1 <br/><b>Not trustworthy at all</b>\"",\""2\"",\""3\"",\""4\"",\""5\"",\""6\"",\""7\"",\""8\"",\""9  <br/><b>Extremely trustworthy</b>\""],\""required\"":true}]"", ""task_unique_trial"": 100, ""task_name"": ""trustworthy-modifae-single"", ""trial_index"": 31, ""isRepeat"": 0}"
A1QVNF19XSRSD7:3IAS3U3I0HNCWS3T1ICE01G37R12B0,32,1548274602564,"{""rt"": 2668, ""trial_type"": ""face-likert-amanda"", ""debug_mode"": ""live"", ""task_type"": ""face trials"", ""responses"": ""{\""Q0\"":6}"", ""task_payment"": 1, ""task_version"": 1, ""internal_node_id"": ""0.0-4.0-0.0-8.0"", ""time_elapsed"": 119892, ""imgName"": ""/static/images/modifae_new_linspace/trustworthy/110741_-0.23737373737373735.png"", ""questions"": ""[{\""prompt\"":\""<p>How <b>trustworthy</b> does this person look to <b>most people</b>? Rate from 1-9</p>\"",\""labels\"":[\""1 <br/><b>Not trustworthy at all</b>\"",\""2\"",\""3\"",\""4\"",\""5\"",\""6\"",\""7\"",\""8\"",\""9  <br/><b>Extremely trustworthy</b>\""],\""required\"":true}]"", ""task_unique_trial"": 100, ""task_name"": ""trustworthy-modifae-single"", ""trial_index"": 32, ""isRepeat"": 0}"
A1QVNF19XSRSD7:3IAS3U3I0HNCWS3T1ICE01G37R12B0,33,1548274606111,"{""rt"": 3544, ""trial_type"": ""face-likert-amanda"", ""debug_mode"": ""live"", ""task_type"": ""face trials"", ""responses"": ""{\""Q0\"":5}"", ""task_payment"": 1, ""task_version"": 1, ""internal_node_id"": ""0.0-4.0-0.0-9.0"", ""time_elapsed"": 123438, ""imgName"": ""/static/images/modifae_new_linspace/trustworthy/015763_0.18686868686868696.png"", ""questions"": ""[{\""prompt\"":\""<p>How <b>trustworthy</b> does this person look to <b>most people</b>? Rate from 1-9</p>\"",\""labels\"":[\""1 <br/><b>Not trustworthy at all</b>\"",\""2\"",\""3\"",\""4\"",\""5\"",\""6\"",\""7\"",\""8\"",\""9  <br/><b>Extremely trustworthy</b>\""],\""required\"":true}]"", ""task_unique_trial"": 100, ""task_name"": ""trustworthy-modifae-single"", ""trial_index"": 33, ""isRepeat"": 0}"
A1QVNF19XSRSD7:3IAS3U3I0HNCWS3T1ICE01G37R12B0,34,1548274607614,"{""rt"": null, ""trial_type"": ""html-keyboard-response"", ""task_unique_trial"": 100, ""stimulus"": ""<p>Good job!</p>"", ""task_version"": 1, ""internal_node_id"": ""0.0-4.0-1.0"", ""task_payment"": 1, ""time_elapsed"": 124942, ""debug_mode"": ""live"", ""key_press"": null, ""task_name"": ""trustworthy-modifae-single"", ""trial_index"": 34}"
A1QVNF19XSRSD7:3IAS3U3I0HNCWS3T1ICE01G37R12B0,35,1548274609973,"{""rt"": 2358, ""trial_type"": ""face-likert-amanda"", ""debug_mode"": ""live"", ""task_type"": ""face trials"", ""responses"": ""{\""Q0\"":3}"", ""task_payment"": 1, ""task_version"": 1, ""internal_node_id"": ""0.0-5.0-0.0-0.0"", ""time_elapsed"": 127301, ""imgName"": ""/static/images/modifae_new_linspace/trustworthy/065726_0.2575757575757577.png"", ""questions"": ""[{\""prompt\"":\""<p>How <b>trustworthy</b> does this person look to <b>most people</b>? Rate from 1-9</p>\"",\""labels\"":[\""1 <br/><b>Not trustworthy at all</b>\"",\""2\"",\""3\"",\""4\"",\""5\"",\""6\"",\""7\"",\""8\"",\""9  <br/><b>Extremely trustworthy</b>\""],\""required\"":true}]"", ""task_unique_trial"": 100, ""task_name"": ""trustworthy-modifae-single"", ""trial_index"": 35, ""isRepeat"": 0}"
A1QVNF19XSRSD7:3IAS3U3I0HNCWS3T1ICE01G37R12B0,36,1548274613164,"{""rt"": 3187, ""trial_type"": ""face-likert-amanda"", ""debug_mode"": ""live"", ""task_type"": ""face trials"", ""responses"": ""{\""Q0\"":6}"", ""task_payment"": 1, ""task_version"": 1, ""internal_node_id"": ""0.0-5.0-0.0-1.0"", ""time_elapsed"": 130492, ""imgName"": ""/static/images/modifae_new_linspace/trustworthy/132296_-0.1464646464646464.png"", ""questions"": ""[{\""prompt\"":\""<p>How <b>trustworthy</b> does this person look to <b>most people</b>? Rate from 1-9</p>\"",\""labels\"":[\""1 <br/><b>Not trustworthy at all</b>\"",\""2\"",\""3\"",\""4\"",\""5\"",\""6\"",\""7\"",\""8\"",\""9  <br/><b>Extremely trustworthy</b>\""],\""required\"":true}]"", ""task_unique_trial"": 100, ""task_name"": ""trustworthy-modifae-single"", ""trial_index"": 36, ""isRepeat"": 0}"
A1QVNF19XSRSD7:3IAS3U3I0HNCWS3T1ICE01G37R12B0,37,1548274614859,"{""rt"": 1692, ""trial_type"": ""face-likert-amanda"", ""debug_mode"": ""live"", ""task_type"": ""face trials"", ""responses"": ""{\""Q0\"":5}"", ""task_payment"": 1, ""task_version"": 1, ""internal_node_id"": ""0.0-5.0-0.0-2.0"", ""time_elapsed"": 132187, ""imgName"": ""/static/images/modifae_new_linspace/trustworthy/153739_0.3585858585858587.png"", ""questions"": ""[{\""prompt\"":\""<p>How <b>trustworthy</b> does this person look to <b>most people</b>? Rate from 1-9</p>\"",\""labels\"":[\""1 <br/><b>Not trustworthy at all</b>\"",\""2\"",\""3\"",\""4\"",\""5\"",\""6\"",\""7\"",\""8\"",\""9  <br/><b>Extremely trustworthy</b>\""],\""required\"":true}]"", ""task_unique_trial"": 100, ""task_name"": ""trustworthy-modifae-single"", ""trial_index"": 37, ""isRepeat"": 0}"
A1QVNF19XSRSD7:3IAS3U3I0HNCWS3T1ICE01G37R12B0,38,1548274616557,"{""rt"": 1697, ""trial_type"": ""face-likert-amanda"", ""debug_mode"": ""live"", ""task_type"": ""face trials"", ""responses"": ""{\""Q0\"":6}"", ""task_payment"": 1, ""task_version"": 1, ""internal_node_id"": ""0.0-5.0-0.0-3.0"", ""time_elapsed"": 133884, ""imgName"": ""/static/images/modifae_new_linspace/trustworthy/178658_0.4292929292929294.png"", ""questions"": ""[{\""prompt\"":\""<p>How <b>trustworthy</b> does this person look to <b>most people</b>? Rate from 1-9</p>\"",\""labels\"":[\""1 <br/><b>Not trustworthy at all</b>\"",\""2\"",\""3\"",\""4\"",\""5\"",\""6\"",\""7\"",\""8\"",\""9  <br/><b>Extremely trustworthy</b>\""],\""required\"":true}]"", ""task_unique_trial"": 100, ""task_name"": ""trustworthy-modifae-single"", ""trial_index"": 38, ""isRepeat"": 0}"
A1QVNF19XSRSD7:3IAS3U3I0HNCWS3T1ICE01G37R12B0,39,1548274618910,"{""rt"": 2353, ""trial_type"": ""face-likert-amanda"", ""debug_mode"": ""live"", ""task_type"": ""face trials"", ""responses"": ""{\""Q0\"":2}"", ""task_payment"": 1, ""task_version"": 1, ""internal_node_id"": ""0.0-5.0-0.0-4.0"", ""time_elapsed"": 136238, ""imgName"": ""/static/images/modifae_new_linspace/trustworthy/097133_0.03535353535353536.png"", ""questions"": ""[{\""prompt\"":\""<p>How <b>trustworthy</b> does this person look to <b>most people</b>? Rate from 1-9</p>\"",\""labels\"":[\""1 <br/><b>Not trustworthy at all</b>\"",\""2\"",\""3\"",\""4\"",\""5\"",\""6\"",\""7\"",\""8\"",\""9  <br/><b>Extremely trustworthy</b>\""],\""required\"":true}]"", ""task_unique_trial"": 100, ""task_name"": ""trustworthy-modifae-single"", ""trial_index"": 39, ""isRepeat"": 0}"
A1QVNF19XSRSD7:3IAS3U3I0HNCWS3T1ICE01G37R12B0,40,1548274620537,"{""rt"": 1625, ""trial_type"": ""face-likert-amanda"", ""debug_mode"": ""live"", ""task_type"": ""face trials"", ""responses"": ""{\""Q0\"":3}"", ""task_payment"": 1, ""task_version"": 1, ""internal_node_id"": ""0.0-5.0-0.0-5.0"", ""time_elapsed"": 137865, ""imgName"": ""/static/images/modifae_new_linspace/trustworthy/113221_-0.3484848484848485.png"", ""questions"": ""[{\""prompt\"":\""<p>How <b>trustworthy</b> does this person look to <b>most people</b>? Rate from 1-9</p>\"",\""labels\"":[\""1 <br/><b>Not trustworthy at all</b>\"",\""2\"",\""3\"",\""4\"",\""5\"",\""6\"",\""7\"",\""8\"",\""9  <br/><b>Extremely trustworthy</b>\""],\""required\"":true}]"", ""task_unique_trial"": 100, ""task_name"": ""trustworthy-modifae-single"", ""trial_index"": 40, ""isRepeat"": 0}"
A1QVNF19XSRSD7:3IAS3U3I0HNCWS3T1ICE01G37R12B0,41,1548274622718,"{""rt"": 2180, ""trial_type"": ""face-likert-amanda"", ""debug_mode"": ""live"", ""task_type"": ""face trials"", ""responses"": ""{\""Q0\"":1}"", ""task_payment"": 1, ""task_version"": 1, ""internal_node_id"": ""0.0-5.0-0.0-6.0"", ""time_elapsed"": 140046, ""imgName"": ""/static/images/modifae_new_linspace/trustworthy/083159_-0.4696969696969697.png"", ""questions"": ""[{\""prompt\"":\""<p>How <b>trustworthy</b> does this person look to <b>most people</b>? Rate from 1-9</p>\"",\""labels\"":[\""1 <br/><b>Not trustworthy at all</b>\"",\""2\"",\""3\"",\""4\"",\""5\"",\""6\"",\""7\"",\""8\"",\""9  <br/><b>Extremely trustworthy</b>\""],\""required\"":true}]"", ""task_unique_trial"": 100, ""task_name"": ""trustworthy-modifae-single"", ""trial_index"": 41, ""isRepeat"": 0}"
A1QVNF19XSRSD7:3IAS3U3I0HNCWS3T1ICE01G37R12B0,42,1548274624458,"{""rt"": 1739, ""trial_type"": ""face-likert-amanda"", ""debug_mode"": ""live"", ""task_type"": ""face trials"", ""responses"": ""{\""Q0\"":4}"", ""task_payment"": 1, ""task_version"": 1, ""internal_node_id"": ""0.0-5.0-0.0-7.0"", ""time_elapsed"": 141786, ""imgName"": ""/static/images/modifae_new_linspace/trustworthy/177845_0.4191919191919192.png"", ""questions"": ""[{\""prompt\"":\""<p>How <b>trustworthy</b> does this person look to <b>most people</b>? Rate from 1-9</p>\"",\""labels\"":[\""1 <br/><b>Not trustworthy at all</b>\"",\""2\"",\""3\"",\""4\"",\""5\"",\""6\"",\""7\"",\""8\"",\""9  <br/><b>Extremely trustworthy</b>\""],\""required\"":true}]"", ""task_unique_trial"": 100, ""task_name"": ""trustworthy-modifae-single"", ""trial_index"": 42, ""isRepeat"": 0}"
A1QVNF19XSRSD7:3IAS3U3I0HNCWS3T1ICE01G37R12B0,43,1548274626330,"{""rt"": 1871, ""trial_type"": ""face-likert-amanda"", ""debug_mode"": ""live"", ""task_type"": ""face trials"", ""responses"": ""{\""Q0\"":3}"", ""task_payment"": 1, ""task_version"": 1, ""internal_node_id"": ""0.0-5.0-0.0-8.0"", ""time_elapsed"": 143658, ""imgName"": ""/static/images/modifae_new_linspace/trustworthy/062124_-0.25757575757575757.png"", ""questions"": ""[{\""prompt\"":\""<p>How <b>trustworthy</b> does this person look to <b>most people</b>? Rate from 1-9</p>\"",\""labels\"":[\""1 <br/><b>Not trustworthy at all</b>\"",\""2\"",\""3\"",\""4\"",\""5\"",\""6\"",\""7\"",\""8\"",\""9  <br/><b>Extremely trustworthy</b>\""],\""required\"":true}]"", ""task_unique_trial"": 100, ""task_name"": ""trustworthy-modifae-single"", ""trial_index"": 43, ""isRepeat"": 0}"
A1QVNF19XSRSD7:3IAS3U3I0HNCWS3T1ICE01G37R12B0,44,1548274628116,"{""rt"": 1783, ""trial_type"": ""face-likert-amanda"", ""debug_mode"": ""live"", ""task_type"": ""face trials"", ""responses"": ""{\""Q0\"":5}"", ""task_payment"": 1, ""task_version"": 1, ""internal_node_id"": ""0.0-5.0-0.0-9.0"", ""time_elapsed"": 145444, ""imgName"": ""/static/images/modifae_new_linspace/trustworthy/167120_0.14646464646464652.png"", ""questions"": ""[{\""prompt\"":\""<p>How <b>trustworthy</b> does this person look to <b>most people</b>? Rate from 1-9</p>\"",\""labels\"":[\""1 <br/><b>Not trustworthy at all</b>\"",\""2\"",\""3\"",\""4\"",\""5\"",\""6\"",\""7\"",\""8\"",\""9  <br/><b>Extremely trustworthy</b>\""],\""required\"":true}]"", ""task_unique_trial"": 100, ""task_name"": ""trustworthy-modifae-single"", ""trial_index"": 44, ""isRepeat"": 0}"
A1QVNF19XSRSD7:3IAS3U3I0HNCWS3T1ICE01G37R12B0,45,1548274629620,"{""rt"": null, ""trial_type"": ""html-keyboard-response"", ""task_unique_trial"": 100, ""stimulus"": ""<p>Good job!</p>"", ""task_version"": 1, ""internal_node_id"": ""0.0-5.0-1.0"", ""task_payment"": 1, ""time_elapsed"": 146948, ""debug_mode"": ""live"", ""key_press"": null, ""task_name"": ""trustworthy-modifae-single"", ""trial_index"": 45}"
A1QVNF19XSRSD7:3IAS3U3I0HNCWS3T1ICE01G37R12B0,46,1548274632345,"{""rt"": 2722, ""trial_type"": ""face-likert-amanda"", ""debug_mode"": ""live"", ""task_type"": ""face trials"", ""responses"": ""{\""Q0\"":6}"", ""task_payment"": 1, ""task_version"": 1, ""internal_node_id"": ""0.0-6.0-0.0-0.0"", ""time_elapsed"": 149673, ""imgName"": ""/static/images/modifae_new_linspace/trustworthy/072205_0.4696969696969697.png"", ""questions"": ""[{\""prompt\"":\""<p>How <b>trustworthy</b> does this person look to <b>most people</b>? Rate from 1-9</p>\"",\""labels\"":[\""1 <br/><b>Not trustworthy at all</b>\"",\""2\"",\""3\"",\""4\"",\""5\"",\""6\"",\""7\"",\""8\"",\""9  <br/><b>Extremely trustworthy</b>\""],\""required\"":true}]"", ""task_unique_trial"": 100, ""task_name"": ""trustworthy-modifae-single"", ""trial_index"": 46, ""isRepeat"": 0}"
A1QVNF19XSRSD7:3IAS3U3I0HNCWS3T1ICE01G37R12B0,47,1548274634332,"{""rt"": 1985, ""trial_type"": ""face-likert-amanda"", ""debug_mode"": ""live"", ""task_type"": ""face trials"", ""responses"": ""{\""Q0\"":6}"", ""task_payment"": 1, ""task_version"": 1, ""internal_node_id"": ""0.0-6.0-0.0-1.0"", ""time_elapsed"": 151660, ""imgName"": ""/static/images/modifae_new_linspace/trustworthy/080303_0.33838383838383845.png"", ""questions"": ""[{\""prompt\"":\""<p>How <b>trustworthy</b> does this person look to <b>most people</b>? Rate from 1-9</p>\"",\""labels\"":[\""1 <br/><b>Not trustworthy at all</b>\"",\""2\"",\""3\"",\""4\"",\""5\"",\""6\"",\""7\"",\""8\"",\""9  <br/><b>Extremely trustworthy</b>\""],\""required\"":true}]"", ""task_unique_trial"": 100, ""task_name"": ""trustworthy-modifae-single"", ""trial_index"": 47, ""isRepeat"": 0}"
A1QVNF19XSRSD7:3IAS3U3I0HNCWS3T1ICE01G37R12B0,48,1548274636168,"{""rt"": 1834, ""trial_type"": ""face-likert-amanda"", ""debug_mode"": ""live"", ""task_type"": ""face trials"", ""responses"": ""{\""Q0\"":4}"", ""task_payment"": 1, ""task_version"": 1, ""internal_node_id"": ""0.0-6.0-0.0-2.0"", ""time_elapsed"": 153496, ""imgName"": ""/static/images/modifae_new_linspace/trustworthy/186181_0.43939393939393945.png"", ""questions"": ""[{\""prompt\"":\""<p>How <b>trustworthy</b> does this person look to <b>most people</b>? Rate from 1-9</p>\"",\""labels\"":[\""1 <br/><b>Not trustworthy at all</b>\"",\""2\"",\""3\"",\""4\"",\""5\"",\""6\"",\""7\"",\""8\"",\""9  <br/><b>Extremely trustworthy</b>\""],\""required\"":true}]"", ""task_unique_trial"": 100, ""task_name"": ""trustworthy-modifae-single"", ""trial_index"": 48, ""isRepeat"": 0}"
A1QVNF19XSRSD7:3IAS3U3I0HNCWS3T1ICE01G37R12B0,49,1548274638008,"{""rt"": 1837, ""trial_type"": ""face-likert-amanda"", ""debug_mode"": ""live"", ""task_type"": ""face trials"", ""responses"": ""{\""Q0\"":3}"", ""task_payment"": 1, ""task_version"": 1, ""internal_node_id"": ""0.0-6.0-0.0-3.0"", ""time_elapsed"": 155335, ""imgName"": ""/static/images/modifae_new_linspace/trustworthy/181258_-0.11616161616161613.png"", ""questions"": ""[{\""prompt\"":\""<p>How <b>trustworthy</b> does this person look to <b>most people</b>? Rate from 1-9</p>\"",\""labels\"":[\""1 <br/><b>Not trustworthy at all</b>\"",\""2\"",\""3\"",\""4\"",\""5\"",\""6\"",\""7\"",\""8\"",\""9  <br/><b>Extremely trustworthy</b>\""],\""required\"":true}]"", ""task_unique_trial"": 100, ""task_name"": ""trustworthy-modifae-single"", ""trial_index"": 49, ""isRepeat"": 0}"
A1QVNF19XSRSD7:3IAS3U3I0HNCWS3T1ICE01G37R12B0,50,1548274640128,"{""rt"": 2119, ""trial_type"": ""face-likert-amanda"", ""debug_mode"": ""live"", ""task_type"": ""face trials"", ""responses"": ""{\""Q0\"":5}"", ""task_payment"": 1, ""task_version"": 1, ""internal_node_id"": ""0.0-6.0-0.0-4.0"", ""time_elapsed"": 157456, ""imgName"": ""/static/images/modifae_new_linspace/trustworthy/019861_0.38888888888888895.png"", ""questions"": ""[{\""prompt\"":\""<p>How <b>trustworthy</b> does this person look to <b>most people</b>? Rate from 1-9</p>\"",\""labels\"":[\""1 <br/><b>Not trustworthy at all</b>\"",\""2\"",\""3\"",\""4\"",\""5\"",\""6\"",\""7\"",\""8\"",\""9  <br/><b>Extremely trustworthy</b>\""],\""required\"":true}]"", ""task_unique_trial"": 100, ""task_name"": ""trustworthy-modifae-single"", ""trial_index"": 50, ""isRepeat"": 0}"
A1QVNF19XSRSD7:3IAS3U3I0HNCWS3T1ICE01G37R12B0,51,1548274641654,"{""rt"": 1525, ""trial_type"": ""face-likert-amanda"", ""debug_mode"": ""live"", ""task_type"": ""face trials"", ""responses"": ""{\""Q0\"":5}"", ""task_payment"": 1, ""task_version"": 1, ""internal_node_id"": ""0.0-6.0-0.0-5.0"", ""time_elapsed"": 158982, ""imgName"": ""/static/images/modifae_new_linspace/trustworthy/037387_-0.015151515151515138.png"", ""questions"": ""[{\""prompt\"":\""<p>How <b>trustworthy</b> does this person look to <b>most people</b>? Rate from 1-9</p>\"",\""labels\"":[\""1 <br/><b>Not trustworthy at all</b>\"",\""2\"",\""3\"",\""4\"",\""5\"",\""6\"",\""7\"",\""8\"",\""9  <br/><b>Extremely trustworthy</b>\""],\""required\"":true}]"", ""task_unique_trial"": 100, ""task_name"": ""trustworthy-modifae-single"", ""trial_index"": 51, ""isRepeat"": 0}"
A1QVNF19XSRSD7:3IAS3U3I0HNCWS3T1ICE01G37R12B0,52,1548274643313,"{""rt"": 1655, ""trial_type"": ""face-likert-amanda"", ""debug_mode"": ""live"", ""task_type"": ""face trials"", ""responses"": ""{\""Q0\"":4}"", ""task_payment"": 1, ""task_version"": 1, ""internal_node_id"": ""0.0-6.0-0.0-6.0"", ""time_elapsed"": 160641, ""imgName"": ""/static/images/modifae_new_linspace/trustworthy/003828_-0.10606060606060602.png"", ""questions"": ""[{\""prompt\"":\""<p>How <b>trustworthy</b> does this person look to <b>most people</b>? Rate from 1-9</p>\"",\""labels\"":[\""1 <br/><b>Not trustworthy at all</b>\"",\""2\"",\""3\"",\""4\"",\""5\"",\""6\"",\""7\"",\""8\"",\""9  <br/><b>Extremely trustworthy</b>\""],\""required\"":true}]"", ""task_unique_trial"": 100, ""task_name"": ""trustworthy-modifae-single"", ""trial_index"": 52, ""isRepeat"": 0}"
A1QVNF19XSRSD7:3IAS3U3I0HNCWS3T1ICE01G37R12B0,53,1548274646660,"{""rt"": 3345, ""trial_type"": ""face-likert-amanda"", ""debug_mode"": ""live"", ""task_type"": ""face trials"", ""responses"": ""{\""Q0\"":2}"", ""task_payment"": 1, ""task_version"": 1, ""internal_node_id"": ""0.0-6.0-0.0-7.0"", ""time_elapsed"": 163988, ""imgName"": ""/static/images/modifae_new_linspace/trustworthy/152726_0.2777777777777778.png"", ""questions"": ""[{\""prompt\"":\""<p>How <b>trustworthy</b> does this person look to <b>most people</b>? Rate from 1-9</p>\"",\""labels\"":[\""1 <br/><b>Not trustworthy at all</b>\"",\""2\"",\""3\"",\""4\"",\""5\"",\""6\"",\""7\"",\""8\"",\""9  <br/><b>Extremely trustworthy</b>\""],\""required\"":true}]"", ""task_unique_trial"": 100, ""task_name"": ""trustworthy-modifae-single"", ""trial_index"": 53, ""isRepeat"": 0}"
A1QVNF19XSRSD7:3IAS3U3I0HNCWS3T1ICE01G37R12B0,54,1548274649493,"{""rt"": 2831, ""trial_type"": ""face-likert-amanda"", ""debug_mode"": ""live"", ""task_type"": ""face trials"", ""responses"": ""{\""Q0\"":6}"", ""task_payment"": 1, ""task_version"": 1, ""internal_node_id"": ""0.0-6.0-0.0-8.0"", ""time_elapsed"": 166821, ""imgName"": ""/static/images/modifae_new_linspace/trustworthy/167751_-0.3686868686868687.png"", ""questions"": ""[{\""prompt\"":\""<p>How <b>trustworthy</b> does this person look to <b>most people</b>? Rate from 1-9</p>\"",\""labels\"":[\""1 <br/><b>Not trustworthy at all</b>\"",\""2\"",\""3\"",\""4\"",\""5\"",\""6\"",\""7\"",\""8\"",\""9  <br/><b>Extremely trustworthy</b>\""],\""required\"":true}]"", ""task_unique_trial"": 100, ""task_name"": ""trustworthy-modifae-single"", ""trial_index"": 54, ""isRepeat"": 0}"
A1QVNF19XSRSD7:3IAS3U3I0HNCWS3T1ICE01G37R12B0,55,1548274651289,"{""rt"": 1795, ""trial_type"": ""face-likert-amanda"", ""debug_mode"": ""live"", ""task_type"": ""face trials"", ""responses"": ""{\""Q0\"":5}"", ""task_payment"": 1, ""task_version"": 1, ""internal_node_id"": ""0.0-6.0-0.0-9.0"", ""time_elapsed"": 168617, ""imgName"": ""/static/images/modifae_new_linspace/trustworthy/049568_-0.4595959595959596.png"", ""questions"": ""[{\""prompt\"":\""<p>How <b>trustworthy</b> does this person look to <b>most people</b>? Rate from 1-9</p>\"",\""labels\"":[\""1 <br/><b>Not trustworthy at all</b>\"",\""2\"",\""3\"",\""4\"",\""5\"",\""6\"",\""7\"",\""8\"",\""9  <br/><b>Extremely trustworthy</b>\""],\""required\"":true}]"", ""task_unique_trial"": 100, ""task_name"": ""trustworthy-modifae-single"", ""trial_index"": 55, ""isRepeat"": 0}"
A1QVNF19XSRSD7:3IAS3U3I0HNCWS3T1ICE01G37R12B0,56,1548274652790,"{""rt"": null, ""trial_type"": ""html-keyboard-response"", ""task_unique_trial"": 100, ""stimulus"": ""<p>Good job!</p>"", ""task_version"": 1, ""internal_node_id"": ""0.0-6.0-1.0"", ""task_payment"": 1, ""time_elapsed"": 170118, ""debug_mode"": ""live"", ""key_press"": null, ""task_name"": ""trustworthy-modifae-single"", ""trial_index"": 56}"
A1QVNF19XSRSD7:3IAS3U3I0HNCWS3T1ICE01G37R12B0,57,1548274655012,"{""rt"": 2220, ""trial_type"": ""face-likert-amanda"", ""debug_mode"": ""live"", ""task_type"": ""face trials"", ""responses"": ""{\""Q0\"":6}"", ""task_payment"": 1, ""task_version"": 1, ""internal_node_id"": ""0.0-7.0-0.0-0.0"", ""time_elapsed"": 172340, ""imgName"": ""/static/images/modifae_new_linspace/trustworthy/028632_0.31818181818181823.png"", ""questions"": ""[{\""prompt\"":\""<p>How <b>trustworthy</b> does this person look to <b>most people</b>? Rate from 1-9</p>\"",\""labels\"":[\""1 <br/><b>Not trustworthy at all</b>\"",\""2\"",\""3\"",\""4\"",\""5\"",\""6\"",\""7\"",\""8\"",\""9  <br/><b>Extremely trustworthy</b>\""],\""required\"":true}]"", ""task_unique_trial"": 100, ""task_name"": ""trustworthy-modifae-single"", ""trial_index"": 57, ""isRepeat"": 0}"
A1QVNF19XSRSD7:3IAS3U3I0HNCWS3T1ICE01G37R12B0,58,1548274656924,"{""rt"": 1910, ""trial_type"": ""face-likert-amanda"", ""debug_mode"": ""live"", ""task_type"": ""face trials"", ""responses"": ""{\""Q0\"":5}"", ""task_payment"": 1, ""task_version"": 1, ""internal_node_id"": ""0.0-7.0-0.0-1.0"", ""time_elapsed"": 174252, ""imgName"": ""/static/images/modifae_new_linspace/trustworthy/077214_-0.3787878787878788.png"", ""questions"": ""[{\""prompt\"":\""<p>How <b>trustworthy</b> does this person look to <b>most people</b>? Rate from 1-9</p>\"",\""labels\"":[\""1 <br/><b>Not trustworthy at all</b>\"",\""2\"",\""3\"",\""4\"",\""5\"",\""6\"",\""7\"",\""8\"",\""9  <br/><b>Extremely trustworthy</b>\""],\""required\"":true}]"", ""task_unique_trial"": 100, ""task_name"": ""trustworthy-modifae-single"", ""trial_index"": 58, ""isRepeat"": 0}"
A1QVNF19XSRSD7:3IAS3U3I0HNCWS3T1ICE01G37R12B0,59,1548274658923,"{""rt"": 1997, ""trial_type"": ""face-likert-amanda"", ""debug_mode"": ""live"", ""task_type"": ""face trials"", ""responses"": ""{\""Q0\"":6}"", ""task_payment"": 1, ""task_version"": 1, ""internal_node_id"": ""0.0-7.0-0.0-2.0"", ""time_elapsed"": 176251, ""imgName"": ""/static/images/modifae_new_linspace/trustworthy/115024_-0.33838383838383834.png"", ""questions"": ""[{\""prompt\"":\""<p>How <b>trustworthy</b> does this person look to <b>most people</b>? Rate from 1-9</p>\"",\""labels\"":[\""1 <br/><b>Not trustworthy at all</b>\"",\""2\"",\""3\"",\""4\"",\""5\"",\""6\"",\""7\"",\""8\"",\""9  <br/><b>Extremely trustworthy</b>\""],\""required\"":true}]"", ""task_unique_trial"": 100, ""task_name"": ""trustworthy-modifae-single"", ""trial_index"": 59, ""isRepeat"": 0}"
A1QVNF19XSRSD7:3IAS3U3I0HNCWS3T1ICE01G37R12B0,60,1548274660741,"{""rt"": 1817, ""trial_type"": ""face-likert-amanda"", ""debug_mode"": ""live"", ""task_type"": ""face trials"", ""responses"": ""{\""Q0\"":2}"", ""task_payment"": 1, ""task_version"": 1, ""internal_node_id"": ""0.0-7.0-0.0-3.0"", ""time_elapsed"": 178069, ""imgName"": ""/static/images/modifae_new_linspace/trustworthy/145045_-0.07575757575757575.png"", ""questions"": ""[{\""prompt\"":\""<p>How <b>trustworthy</b> does this person look to <b>most people</b>? Rate from 1-9</p>\"",\""labels\"":[\""1 <br/><b>Not trustworthy at all</b>\"",\""2\"",\""3\"",\""4\"",\""5\"",\""6\"",\""7\"",\""8\"",\""9  <br/><b>Extremely trustworthy</b>\""],\""required\"":true}]"", ""task_unique_trial"": 100, ""task_name"": ""trustworthy-modifae-single"", ""trial_index"": 60, ""isRepeat"": 0}"
A1QVNF19XSRSD7:3IAS3U3I0HNCWS3T1ICE01G37R12B0,61,1548274662437,"{""rt"": 1695, ""trial_type"": ""face-likert-amanda"", ""debug_mode"": ""live"", ""task_type"": ""face trials"", ""responses"": ""{\""Q0\"":3}"", ""task_payment"": 1, ""task_version"": 1, ""internal_node_id"": ""0.0-7.0-0.0-4.0"", ""time_elapsed"": 179765, ""imgName"": ""/static/images/modifae_new_linspace/trustworthy/006062_0.4797979797979799.png"", ""questions"": ""[{\""prompt\"":\""<p>How <b>trustworthy</b> does this person look to <b>most people</b>? Rate from 1-9</p>\"",\""labels\"":[\""1 <br/><b>Not trustworthy at all</b>\"",\""2\"",\""3\"",\""4\"",\""5\"",\""6\"",\""7\"",\""8\"",\""9  <br/><b>Extremely trustworthy</b>\""],\""required\"":true}]"", ""task_unique_trial"": 100, ""task_name"": ""trustworthy-modifae-single"", ""trial_index"": 61, ""isRepeat"": 0}"
A1QVNF19XSRSD7:3IAS3U3I0HNCWS3T1ICE01G37R12B0,62,1548274664151,"{""rt"": 1711, ""trial_type"": ""face-likert-amanda"", ""debug_mode"": ""live"", ""task_type"": ""face trials"", ""responses"": ""{\""Q0\"":4}"", ""task_payment"": 1, ""task_version"": 1, ""internal_node_id"": ""0.0-7.0-0.0-5.0"", ""time_elapsed"": 181479, ""imgName"": ""/static/images/modifae_new_linspace/trustworthy/087975_-0.29797979797979796.png"", ""questions"": ""[{\""prompt\"":\""<p>How <b>trustworthy</b> does this person look to <b>most people</b>? Rate from 1-9</p>\"",\""labels\"":[\""1 <br/><b>Not trustworthy at all</b>\"",\""2\"",\""3\"",\""4\"",\""5\"",\""6\"",\""7\"",\""8\"",\""9  <br/><b>Extremely trustworthy</b>\""],\""required\"":true}]"", ""task_unique_trial"": 100, ""task_name"": ""trustworthy-modifae-single"", ""trial_index"": 62, ""isRepeat"": 0}"
A1QVNF19XSRSD7:3IAS3U3I0HNCWS3T1ICE01G37R12B0,63,1548274665892,"{""rt"": 1740, ""trial_type"": ""face-likert-amanda"", ""debug_mode"": ""live"", ""task_type"": ""face trials"", ""responses"": ""{\""Q0\"":5}"", ""task_payment"": 1, ""task_version"": 1, ""internal_node_id"": ""0.0-7.0-0.0-6.0"", ""time_elapsed"": 183220, ""imgName"": ""/static/images/modifae_new_linspace/trustworthy/156901_-0.41919191919191917.png"", ""questions"": ""[{\""prompt\"":\""<p>How <b>trustworthy</b> does this person look to <b>most people</b>? Rate from 1-9</p>\"",\""labels\"":[\""1 <br/><b>Not trustworthy at all</b>\"",\""2\"",\""3\"",\""4\"",\""5\"",\""6\"",\""7\"",\""8\"",\""9  <br/><b>Extremely trustworthy</b>\""],\""required\"":true}]"", ""task_unique_trial"": 100, ""task_name"": ""trustworthy-modifae-single"", ""trial_index"": 63, ""isRepeat"": 0}"
A1QVNF19XSRSD7:3IAS3U3I0HNCWS3T1ICE01G37R12B0,64,1548274667838,"{""rt"": 1944, ""trial_type"": ""face-likert-amanda"", ""debug_mode"": ""live"", ""task_type"": ""face trials"", ""responses"": ""{\""Q0\"":6}"", ""task_payment"": 1, ""task_version"": 1, ""internal_node_id"": ""0.0-7.0-0.0-7.0"", ""time_elapsed"": 185166, ""imgName"": ""/static/images/modifae_new_linspace/trustworthy/176556_-0.35858585858585856.png"", ""questions"": ""[{\""prompt\"":\""<p>How <b>trustworthy</b> does this person look to <b>most people</b>? Rate from 1-9</p>\"",\""labels\"":[\""1 <br/><b>Not trustworthy at all</b>\"",\""2\"",\""3\"",\""4\"",\""5\"",\""6\"",\""7\"",\""8\"",\""9  <br/><b>Extremely trustworthy</b>\""],\""required\"":true}]"", ""task_unique_trial"": 100, ""task_name"": ""trustworthy-modifae-single"", ""trial_index"": 64, ""isRepeat"": 0}"
A1QVNF19XSRSD7:3IAS3U3I0HNCWS3T1ICE01G37R12B0,65,1548274669424,"{""rt"": 1584, ""trial_type"": ""face-likert-amanda"", ""debug_mode"": ""live"", ""task_type"": ""face trials"", ""responses"": ""{\""Q0\"":6}"", ""task_payment"": 1, ""task_version"": 1, ""internal_node_id"": ""0.0-7.0-0.0-8.0"", ""time_elapsed"": 186752, ""imgName"": ""/static/images/modifae_new_linspace/trustworthy/093413_-0.3888888888888889.png"", ""questions"": ""[{\""prompt\"":\""<p>How <b>trustworthy</b> does this person look to <b>most people</b>? Rate from 1-9</p>\"",\""labels\"":[\""1 <br/><b>Not trustworthy at all</b>\"",\""2\"",\""3\"",\""4\"",\""5\"",\""6\"",\""7\"",\""8\"",\""9  <br/><b>Extremely trustworthy</b>\""],\""required\"":true}]"", ""task_unique_trial"": 100, ""task_name"": ""trustworthy-modifae-single"", ""trial_index"": 65, ""isRepeat"": 0}"
A1QVNF19XSRSD7:3IAS3U3I0HNCWS3T1ICE01G37R12B0,66,1548274671128,"{""rt"": 1703, ""trial_type"": ""face-likert-amanda"", ""debug_mode"": ""live"", ""task_type"": ""face trials"", ""responses"": ""{\""Q0\"":3}"", ""task_payment"": 1, ""task_version"": 1, ""internal_node_id"": ""0.0-7.0-0.0-9.0"", ""time_elapsed"": 188456, ""imgName"": ""/static/images/modifae_new_linspace/trustworthy/141797_-0.045454545454545414.png"", ""questions"": ""[{\""prompt\"":\""<p>How <b>trustworthy</b> does this person look to <b>most people</b>? Rate from 1-9</p>\"",\""labels\"":[\""1 <br/><b>Not trustworthy at all</b>\"",\""2\"",\""3\"",\""4\"",\""5\"",\""6\"",\""7\"",\""8\"",\""9  <br/><b>Extremely trustworthy</b>\""],\""required\"":true}]"", ""task_unique_trial"": 100, ""task_name"": ""trustworthy-modifae-single"", ""trial_index"": 66, ""isRepeat"": 0}"
A1QVNF19XSRSD7:3IAS3U3I0HNCWS3T1ICE01G37R12B0,67,1548274673130,"{""rt"": null, ""trial_type"": ""html-keyboard-response"", ""task_unique_trial"": 100, ""stimulus"": ""<p>Good job!</p>"", ""task_version"": 1, ""internal_node_id"": ""0.0-7.0-1.0"", ""task_payment"": 1, ""time_elapsed"": 190458, ""debug_mode"": ""live"", ""key_press"": null, ""task_name"": ""trustworthy-modifae-single"", ""trial_index"": 67}"
A1QVNF19XSRSD7:3IAS3U3I0HNCWS3T1ICE01G37R12B0,68,1548274675421,"{""rt"": 2288, ""trial_type"": ""face-likert-amanda"", ""debug_mode"": ""live"", ""task_type"": ""face trials"", ""responses"": ""{\""Q0\"":4}"", ""task_payment"": 1, ""task_version"": 1, ""internal_node_id"": ""0.0-8.0-0.0-0.0"", ""time_elapsed"": 192749, ""imgName"": ""/static/images/modifae_new_linspace/trustworthy/069574_0.3080808080808082.png"", ""questions"": ""[{\""prompt\"":\""<p>How <b>trustworthy</b> does this person look to <b>most people</b>? Rate from 1-9</p>\"",\""labels\"":[\""1 <br/><b>Not trustworthy at all</b>\"",\""2\"",\""3\"",\""4\"",\""5\"",\""6\"",\""7\"",\""8\"",\""9  <br/><b>Extremely trustworthy</b>\""],\""required\"":true}]"", ""task_unique_trial"": 100, ""task_name"": ""trustworthy-modifae-single"", ""trial_index"": 68, ""isRepeat"": 0}"
A1QVNF19XSRSD7:3IAS3U3I0HNCWS3T1ICE01G37R12B0,69,1548274677168,"{""rt"": 1745, ""trial_type"": ""face-likert-amanda"", ""debug_mode"": ""live"", ""task_type"": ""face trials"", ""responses"": ""{\""Q0\"":5}"", ""task_payment"": 1, ""task_version"": 1, ""internal_node_id"": ""0.0-8.0-0.0-1.0"", ""time_elapsed"": 194496, ""imgName"": ""/static/images/modifae_new_linspace/trustworthy/156901_-0.41919191919191917.png"", ""questions"": ""[{\""prompt\"":\""<p>How <b>trustworthy</b> does this person look to <b>most people</b>? Rate from 1-9</p>\"",\""labels\"":[\""1 <br/><b>Not trustworthy at all</b>\"",\""2\"",\""3\"",\""4\"",\""5\"",\""6\"",\""7\"",\""8\"",\""9  <br/><b>Extremely trustworthy</b>\""],\""required\"":true}]"", ""task_unique_trial"": 100, ""task_name"": ""trustworthy-modifae-single"", ""trial_index"": 69, ""isRepeat"": 0}"
A1QVNF19XSRSD7:3IAS3U3I0HNCWS3T1ICE01G37R12B0,70,1548274679830,"{""rt"": 2661, ""trial_type"": ""face-likert-amanda"", ""debug_mode"": ""live"", ""task_type"": ""face trials"", ""responses"": ""{\""Q0\"":6}"", ""task_payment"": 1, ""task_version"": 1, ""internal_node_id"": ""0.0-8.0-0.0-2.0"", ""time_elapsed"": 197158, ""imgName"": ""/static/images/modifae_new_linspace/trustworthy/153739_0.3585858585858587.png"", ""questions"": ""[{\""prompt\"":\""<p>How <b>trustworthy</b> does this person look to <b>most people</b>? Rate from 1-9</p>\"",\""labels\"":[\""1 <br/><b>Not trustworthy at all</b>\"",\""2\"",\""3\"",\""4\"",\""5\"",\""6\"",\""7\"",\""8\"",\""9  <br/><b>Extremely trustworthy</b>\""],\""required\"":true}]"", ""task_unique_trial"": 100, ""task_name"": ""trustworthy-modifae-single"", ""trial_index"": 70, ""isRepeat"": 0}"
A1QVNF19XSRSD7:3IAS3U3I0HNCWS3T1ICE01G37R12B0,71,1548274681570,"{""rt"": 1738, ""trial_type"": ""face-likert-amanda"", ""debug_mode"": ""live"", ""task_type"": ""face trials"", ""responses"": ""{\""Q0\"":3}"", ""task_payment"": 1, ""task_version"": 1, ""internal_node_id"": ""0.0-8.0-0.0-3.0"", ""time_elapsed"": 198898, ""imgName"": ""/static/images/modifae_new_linspace/trustworthy/038062_-0.28787878787878785.png"", ""questions"": ""[{\""prompt\"":\""<p>How <b>trustworthy</b> does this person look to <b>most people</b>? Rate from 1-9</p>\"",\""labels\"":[\""1 <br/><b>Not trustworthy at all</b>\"",\""2\"",\""3\"",\""4\"",\""5\"",\""6\"",\""7\"",\""8\"",\""9  <br/><b>Extremely trustworthy</b>\""],\""required\"":true}]"", ""task_unique_trial"": 100, ""task_name"": ""trustworthy-modifae-single"", ""trial_index"": 71, ""isRepeat"": 0}"
A1QVNF19XSRSD7:3IAS3U3I0HNCWS3T1ICE01G37R12B0,72,1548274683127,"{""rt"": 1555, ""trial_type"": ""face-likert-amanda"", ""debug_mode"": ""live"", ""task_type"": ""face trials"", ""responses"": ""{\""Q0\"":4}"", ""task_payment"": 1, ""task_version"": 1, ""internal_node_id"": ""0.0-8.0-0.0-4.0"", ""time_elapsed"": 200455, ""imgName"": ""/static/images/modifae_new_linspace/trustworthy/152768_0.4494949494949496.png"", ""questions"": ""[{\""prompt\"":\""<p>How <b>trustworthy</b> does this person look to <b>most people</b>? Rate from 1-9</p>\"",\""labels\"":[\""1 <br/><b>Not trustworthy at all</b>\"",\""2\"",\""3\"",\""4\"",\""5\"",\""6\"",\""7\"",\""8\"",\""9  <br/><b>Extremely trustworthy</b>\""],\""required\"":true}]"", ""task_unique_trial"": 100, ""task_name"": ""trustworthy-modifae-single"", ""trial_index"": 72, ""isRepeat"": 0}"
A1QVNF19XSRSD7:3IAS3U3I0HNCWS3T1ICE01G37R12B0,73,1548274685123,"{""rt"": 1995, ""trial_type"": ""face-likert-amanda"", ""debug_mode"": ""live"", ""task_type"": ""face trials"", ""responses"": ""{\""Q0\"":2}"", ""task_payment"": 1, ""task_version"": 1, ""internal_node_id"": ""0.0-8.0-0.0-5.0"", ""time_elapsed"": 202451, ""imgName"": ""/static/images/modifae_new_linspace/trustworthy/041733_0.3989898989898991.png"", ""questions"": ""[{\""prompt\"":\""<p>How <b>trustworthy</b> does this person look to <b>most people</b>? Rate from 1-9</p>\"",\""labels\"":[\""1 <br/><b>Not trustworthy at all</b>\"",\""2\"",\""3\"",\""4\"",\""5\"",\""6\"",\""7\"",\""8\"",\""9  <br/><b>Extremely trustworthy</b>\""],\""required\"":true}]"", ""task_unique_trial"": 100, ""task_name"": ""trustworthy-modifae-single"", ""trial_index"": 73, ""isRepeat"": 0}"
A1QVNF19XSRSD7:3IAS3U3I0HNCWS3T1ICE01G37R12B0,74,1548274686720,"{""rt"": 1595, ""trial_type"": ""face-likert-amanda"", ""debug_mode"": ""live"", ""task_type"": ""face trials"", ""responses"": ""{\""Q0\"":3}"", ""task_payment"": 1, ""task_version"": 1, ""internal_node_id"": ""0.0-8.0-0.0-6.0"", ""time_elapsed"": 204047, ""imgName"": ""/static/images/modifae_new_linspace/trustworthy/163069_-0.3282828282828283.png"", ""questions"": ""[{\""prompt\"":\""<p>How <b>trustworthy</b> does this person look to <b>most people</b>? Rate from 1-9</p>\"",\""labels\"":[\""1 <br/><b>Not trustworthy at all</b>\"",\""2\"",\""3\"",\""4\"",\""5\"",\""6\"",\""7\"",\""8\"",\""9  <br/><b>Extremely trustworthy</b>\""],\""required\"":true}]"", ""task_unique_trial"": 100, ""task_name"": ""trustworthy-modifae-single"", ""trial_index"": 74, ""isRepeat"": 0}"
A1QVNF19XSRSD7:3IAS3U3I0HNCWS3T1ICE01G37R12B0,75,1548274688497,"{""rt"": 1774, ""trial_type"": ""face-likert-amanda"", ""debug_mode"": ""live"", ""task_type"": ""face trials"", ""responses"": ""{\""Q0\"":4}"", ""task_payment"": 1, ""task_version"": 1, ""internal_node_id"": ""0.0-8.0-0.0-7.0"", ""time_elapsed"": 205825, ""imgName"": ""/static/images/modifae_new_linspace/trustworthy/121258_-0.398989898989899.png"", ""questions"": ""[{\""prompt\"":\""<p>How <b>trustworthy</b> does this person look to <b>most people</b>? Rate from 1-9</p>\"",\""labels\"":[\""1 <br/><b>Not trustworthy at all</b>\"",\""2\"",\""3\"",\""4\"",\""5\"",\""6\"",\""7\"",\""8\"",\""9  <br/><b>Extremely trustworthy</b>\""],\""required\"":true}]"", ""task_unique_trial"": 100, ""task_name"": ""trustworthy-modifae-single"", ""trial_index"": 75, ""isRepeat"": 0}"
A1QVNF19XSRSD7:3IAS3U3I0HNCWS3T1ICE01G37R12B0,76,1548274690733,"{""rt"": 2235, ""trial_type"": ""face-likert-amanda"", ""debug_mode"": ""live"", ""task_type"": ""face trials"", ""responses"": ""{\""Q0\"":5}"", ""task_payment"": 1, ""task_version"": 1, ""internal_node_id"": ""0.0-8.0-0.0-8.0"", ""time_elapsed"": 208061, ""imgName"": ""/static/images/modifae_new_linspace/trustworthy/122021_0.24747474747474751.png"", ""questions"": ""[{\""prompt\"":\""<p>How <b>trustworthy</b> does this person look to <b>most people</b>? Rate from 1-9</p>\"",\""labels\"":[\""1 <br/><b>Not trustworthy at all</b>\"",\""2\"",\""3\"",\""4\"",\""5\"",\""6\"",\""7\"",\""8\"",\""9  <br/><b>Extremely trustworthy</b>\""],\""required\"":true}]"", ""task_unique_trial"": 100, ""task_name"": ""trustworthy-modifae-single"", ""trial_index"": 76, ""isRepeat"": 0}"
A1QVNF19XSRSD7:3IAS3U3I0HNCWS3T1ICE01G37R12B0,77,1548274692904,"{""rt"": 2168, ""trial_type"": ""face-likert-amanda"", ""debug_mode"": ""live"", ""task_type"": ""face trials"", ""responses"": ""{\""Q0\"":6}"", ""task_payment"": 1, ""task_version"": 1, ""internal_node_id"": ""0.0-8.0-0.0-9.0"", ""time_elapsed"": 210232, ""imgName"": ""/static/images/modifae_new_linspace/trustworthy/190639_-0.21717171717171713.png"", ""questions"": ""[{\""prompt\"":\""<p>How <b>trustworthy</b> does this person look to <b>most people</b>? Rate from 1-9</p>\"",\""labels\"":[\""1 <br/><b>Not trustworthy at all</b>\"",\""2\"",\""3\"",\""4\"",\""5\"",\""6\"",\""7\"",\""8\"",\""9  <br/><b>Extremely trustworthy</b>\""],\""required\"":true}]"", ""task_unique_trial"": 100, ""task_name"": ""trustworthy-modifae-single"", ""trial_index"": 77, ""isRepeat"": 0}"
A1QVNF19XSRSD7:3IAS3U3I0HNCWS3T1ICE01G37R12B0,78,1548274694905,"{""rt"": null, ""trial_type"": ""html-keyboard-response"", ""task_unique_trial"": 100, ""stimulus"": ""<p>Good job!</p>"", ""task_version"": 1, ""internal_node_id"": ""0.0-8.0-1.0"", ""task_payment"": 1, ""time_elapsed"": 212233, ""debug_mode"": ""live"", ""key_press"": null, ""task_name"": ""trustworthy-modifae-single"", ""trial_index"": 78}"
A1QVNF19XSRSD7:3IAS3U3I0HNCWS3T1ICE01G37R12B0,79,1548274697743,"{""rt"": 2835, ""trial_type"": ""face-likert-amanda"", ""debug_mode"": ""live"", ""task_type"": ""face trials"", ""responses"": ""{\""Q0\"":7}"", ""task_payment"": 1, ""task_version"": 1, ""internal_node_id"": ""0.0-9.0-0.0-0.0"", ""time_elapsed"": 215071, ""imgName"": ""/static/images/modifae_new_linspace/trustworthy/110741_-0.23737373737373735.png"", ""questions"": ""[{\""prompt\"":\""<p>How <b>trustworthy</b> does this person look to <b>most people</b>? Rate from 1-9</p>\"",\""labels\"":[\""1 <br/><b>Not trustworthy at all</b>\"",\""2\"",\""3\"",\""4\"",\""5\"",\""6\"",\""7\"",\""8\"",\""9  <br/><b>Extremely trustworthy</b>\""],\""required\"":true}]"", ""task_unique_trial"": 100, ""task_name"": ""trustworthy-modifae-single"", ""trial_index"": 79, ""isRepeat"": 0}"
A1QVNF19XSRSD7:3IAS3U3I0HNCWS3T1ICE01G37R12B0,80,1548274699768,"{""rt"": 2022, ""trial_type"": ""face-likert-amanda"", ""debug_mode"": ""live"", ""task_type"": ""face trials"", ""responses"": ""{\""Q0\"":5}"", ""task_payment"": 1, ""task_version"": 1, ""internal_node_id"": ""0.0-9.0-0.0-1.0"", ""time_elapsed"": 217096, ""imgName"": ""/static/images/modifae_new_linspace/trustworthy/069574_0.3080808080808082.png"", ""questions"": ""[{\""prompt\"":\""<p>How <b>trustworthy</b> does this person look to <b>most people</b>? Rate from 1-9</p>\"",\""labels\"":[\""1 <br/><b>Not trustworthy at all</b>\"",\""2\"",\""3\"",\""4\"",\""5\"",\""6\"",\""7\"",\""8\"",\""9  <br/><b>Extremely trustworthy</b>\""],\""required\"":true}]"", ""task_unique_trial"": 100, ""task_name"": ""trustworthy-modifae-single"", ""trial_index"": 80, ""isRepeat"": 0}"
A1QVNF19XSRSD7:3IAS3U3I0HNCWS3T1ICE01G37R12B0,81,1548274701342,"{""rt"": 1572, ""trial_type"": ""face-likert-amanda"", ""debug_mode"": ""live"", ""task_type"": ""face trials"", ""responses"": ""{\""Q0\"":6}"", ""task_payment"": 1, ""task_version"": 1, ""internal_node_id"": ""0.0-9.0-0.0-2.0"", ""time_elapsed"": 218670, ""imgName"": ""/static/images/modifae_new_linspace/trustworthy/087975_-0.29797979797979796.png"", ""questions"": ""[{\""prompt\"":\""<p>How <b>trustworthy</b> does this person look to <b>most people</b>? Rate from 1-9</p>\"",\""labels\"":[\""1 <br/><b>Not trustworthy at all</b>\"",\""2\"",\""3\"",\""4\"",\""5\"",\""6\"",\""7\"",\""8\"",\""9  <br/><b>Extremely trustworthy</b>\""],\""required\"":true}]"", ""task_unique_trial"": 100, ""task_name"": ""trustworthy-modifae-single"", ""trial_index"": 81, ""isRepeat"": 0}"
A1QVNF19XSRSD7:3IAS3U3I0HNCWS3T1ICE01G37R12B0,82,1548274703649,"{""rt"": 2306, ""trial_type"": ""face-likert-amanda"", ""debug_mode"": ""live"", ""task_type"": ""face trials"", ""responses"": ""{\""Q0\"":4}"", ""task_payment"": 1, ""task_version"": 1, ""internal_node_id"": ""0.0-9.0-0.0-3.0"", ""time_elapsed"": 220977, ""imgName"": ""/static/images/modifae_new_linspace/trustworthy/020995_-0.09595959595959591.png"", ""questions"": ""[{\""prompt\"":\""<p>How <b>trustworthy</b> does this person look to <b>most people</b>? Rate from 1-9</p>\"",\""labels\"":[\""1 <br/><b>Not trustworthy at all</b>\"",\""2\"",\""3\"",\""4\"",\""5\"",\""6\"",\""7\"",\""8\"",\""9  <br/><b>Extremely trustworthy</b>\""],\""required\"":true}]"", ""task_unique_trial"": 100, ""task_name"": ""trustworthy-modifae-single"", ""trial_index"": 82, ""isRepeat"": 0}"
A1QVNF19XSRSD7:3IAS3U3I0HNCWS3T1ICE01G37R12B0,83,1548274705753,"{""rt"": 2102, ""trial_type"": ""face-likert-amanda"", ""debug_mode"": ""live"", ""task_type"": ""face trials"", ""responses"": ""{\""Q0\"":2}"", ""task_payment"": 1, ""task_version"": 1, ""internal_node_id"": ""0.0-9.0-0.0-4.0"", ""time_elapsed"": 223081, ""imgName"": ""/static/images/modifae_new_linspace/trustworthy/145045_-0.07575757575757575.png"", ""questions"": ""[{\""prompt\"":\""<p>How <b>trustworthy</b> does this person look to <b>most people</b>? Rate from 1-9</p>\"",\""labels\"":[\""1 <br/><b>Not trustworthy at all</b>\"",\""2\"",\""3\"",\""4\"",\""5\"",\""6\"",\""7\"",\""8\"",\""9  <br/><b>Extremely trustworthy</b>\""],\""required\"":true}]"", ""task_unique_trial"": 100, ""task_name"": ""trustworthy-modifae-single"", ""trial_index"": 83, ""isRepeat"": 0}"
A1QVNF19XSRSD7:3IAS3U3I0HNCWS3T1ICE01G37R12B0,84,1548274708686,"{""rt"": 2931, ""trial_type"": ""face-likert-amanda"", ""debug_mode"": ""live"", ""task_type"": ""face trials"", ""responses"": ""{\""Q0\"":3}"", ""task_payment"": 1, ""task_version"": 1, ""internal_node_id"": ""0.0-9.0-0.0-5.0"", ""time_elapsed"": 226014, ""imgName"": ""/static/images/modifae_new_linspace/trustworthy/139558_0.1262626262626263.png"", ""questions"": ""[{\""prompt\"":\""<p>How <b>trustworthy</b> does this person look to <b>most people</b>? Rate from 1-9</p>\"",\""labels\"":[\""1 <br/><b>Not trustworthy at all</b>\"",\""2\"",\""3\"",\""4\"",\""5\"",\""6\"",\""7\"",\""8\"",\""9  <br/><b>Extremely trustworthy</b>\""],\""required\"":true}]"", ""task_unique_trial"": 100, ""task_name"": ""trustworthy-modifae-single"", ""trial_index"": 84, ""isRepeat"": 0}"
A1QVNF19XSRSD7:3IAS3U3I0HNCWS3T1ICE01G37R12B0,85,1548274710381,"{""rt"": 1693, ""trial_type"": ""face-likert-amanda"", ""debug_mode"": ""live"", ""task_type"": ""face trials"", ""responses"": ""{\""Q0\"":4}"", ""task_payment"": 1, ""task_version"": 1, ""internal_node_id"": ""0.0-9.0-0.0-6.0"", ""time_elapsed"": 227709, ""imgName"": ""/static/images/modifae_new_linspace/trustworthy/067113_0.015151515151515249.png"", ""questions"": ""[{\""prompt\"":\""<p>How <b>trustworthy</b> does this person look to <b>most people</b>? Rate from 1-9</p>\"",\""labels\"":[\""1 <br/><b>Not trustworthy at all</b>\"",\""2\"",\""3\"",\""4\"",\""5\"",\""6\"",\""7\"",\""8\"",\""9  <br/><b>Extremely trustworthy</b>\""],\""required\"":true}]"", ""task_unique_trial"": 100, ""task_name"": ""trustworthy-modifae-single"", ""trial_index"": 85, ""isRepeat"": 0}"
A1QVNF19XSRSD7:3IAS3U3I0HNCWS3T1ICE01G37R12B0,86,1548274712216,"{""rt"": 1832, ""trial_type"": ""face-likert-amanda"", ""debug_mode"": ""live"", ""task_type"": ""face trials"", ""responses"": ""{\""Q0\"":6}"", ""task_payment"": 1, ""task_version"": 1, ""internal_node_id"": ""0.0-9.0-0.0-7.0"", ""time_elapsed"": 229543, ""imgName"": ""/static/images/modifae_new_linspace/trustworthy/080303_0.33838383838383845.png"", ""questions"": ""[{\""prompt\"":\""<p>How <b>trustworthy</b> does this person look to <b>most people</b>? Rate from 1-9</p>\"",\""labels\"":[\""1 <br/><b>Not trustworthy at all</b>\"",\""2\"",\""3\"",\""4\"",\""5\"",\""6\"",\""7\"",\""8\"",\""9  <br/><b>Extremely trustworthy</b>\""],\""required\"":true}]"", ""task_unique_trial"": 100, ""task_name"": ""trustworthy-modifae-single"", ""trial_index"": 86, ""isRepeat"": 0}"
A1QVNF19XSRSD7:3IAS3U3I0HNCWS3T1ICE01G37R12B0,87,1548274713799,"{""rt"": 1579, ""trial_type"": ""face-likert-amanda"", ""debug_mode"": ""live"", ""task_type"": ""face trials"", ""responses"": ""{\""Q0\"":5}"", ""task_payment"": 1, ""task_version"": 1, ""internal_node_id"": ""0.0-9.0-0.0-8.0"", ""time_elapsed"": 231127, ""imgName"": ""/static/images/modifae_new_linspace/trustworthy/152768_0.4494949494949496.png"", ""questions"": ""[{\""prompt\"":\""<p>How <b>trustworthy</b> does this person look to <b>most people</b>? Rate from 1-9</p>\"",\""labels\"":[\""1 <br/><b>Not trustworthy at all</b>\"",\""2\"",\""3\"",\""4\"",\""5\"",\""6\"",\""7\"",\""8\"",\""9  <br/><b>Extremely trustworthy</b>\""],\""required\"":true}]"", ""task_unique_trial"": 100, ""task_name"": ""trustworthy-modifae-single"", ""trial_index"": 87, ""isRepeat"": 0}"
A1QVNF19XSRSD7:3IAS3U3I0HNCWS3T1ICE01G37R12B0,88,1548274715269,"{""rt"": 1469, ""trial_type"": ""face-likert-amanda"", ""debug_mode"": ""live"", ""task_type"": ""face trials"", ""responses"": ""{\""Q0\"":5}"", ""task_payment"": 1, ""task_version"": 1, ""internal_node_id"": ""0.0-9.0-0.0-9.0"", ""time_elapsed"": 232597, ""imgName"": ""/static/images/modifae_new_linspace/trustworthy/174771_0.10606060606060608.png"", ""questions"": ""[{\""prompt\"":\""<p>How <b>trustworthy</b> does this person look to <b>most people</b>? Rate from 1-9</p>\"",\""labels\"":[\""1 <br/><b>Not trustworthy at all</b>\"",\""2\"",\""3\"",\""4\"",\""5\"",\""6\"",\""7\"",\""8\"",\""9  <br/><b>Extremely trustworthy</b>\""],\""required\"":true}]"", ""task_unique_trial"": 100, ""task_name"": ""trustworthy-modifae-single"", ""trial_index"": 88, ""isRepeat"": 0}"
A1QVNF19XSRSD7:3IAS3U3I0HNCWS3T1ICE01G37R12B0,89,1548274716271,"{""rt"": null, ""trial_type"": ""html-keyboard-response"", ""task_unique_trial"": 100, ""stimulus"": ""<p>Good job!</p>"", ""task_version"": 1, ""internal_node_id"": ""0.0-9.0-1.0"", ""task_payment"": 1, ""time_elapsed"": 233599, ""debug_mode"": ""live"", ""key_press"": null, ""task_name"": ""trustworthy-modifae-single"", ""trial_index"": 89}"
A1QVNF19XSRSD7:3IAS3U3I0HNCWS3T1ICE01G37R12B0,90,1548274718363,"{""rt"": 2087, ""trial_type"": ""face-likert-amanda"", ""debug_mode"": ""live"", ""task_type"": ""face trials"", ""responses"": ""{\""Q0\"":4}"", ""task_payment"": 1, ""task_version"": 1, ""internal_node_id"": ""0.0-10.0-0.0-0.0"", ""time_elapsed"": 235691, ""imgName"": ""/static/images/modifae_new_linspace/trustworthy/161186_-0.24747474747474746.png"", ""questions"": ""[{\""prompt\"":\""<p>How <b>trustworthy</b> does this person look to <b>most people</b>? Rate from 1-9</p>\"",\""labels\"":[\""1 <br/><b>Not trustworthy at all</b>\"",\""2\"",\""3\"",\""4\"",\""5\"",\""6\"",\""7\"",\""8\"",\""9  <br/><b>Extremely trustworthy</b>\""],\""required\"":true}]"", ""task_unique_trial"": 100, ""task_name"": ""trustworthy-modifae-single"", ""trial_index"": 90, ""isRepeat"": 0}"
A1QVNF19XSRSD7:3IAS3U3I0HNCWS3T1ICE01G37R12B0,91,1548274720459,"{""rt"": 2095, ""trial_type"": ""face-likert-amanda"", ""debug_mode"": ""live"", ""task_type"": ""face trials"", ""responses"": ""{\""Q0\"":2}"", ""task_payment"": 1, ""task_version"": 1, ""internal_node_id"": ""0.0-10.0-0.0-1.0"", ""time_elapsed"": 237787, ""imgName"": ""/static/images/modifae_new_linspace/trustworthy/142628_-0.30808080808080807.png"", ""questions"": ""[{\""prompt\"":\""<p>How <b>trustworthy</b> does this person look to <b>most people</b>? Rate from 1-9</p>\"",\""labels\"":[\""1 <br/><b>Not trustworthy at all</b>\"",\""2\"",\""3\"",\""4\"",\""5\"",\""6\"",\""7\"",\""8\"",\""9  <br/><b>Extremely trustworthy</b>\""],\""required\"":true}]"", ""task_unique_trial"": 100, ""task_name"": ""trustworthy-modifae-single"", ""trial_index"": 91, ""isRepeat"": 0}"
A1QVNF19XSRSD7:3IAS3U3I0HNCWS3T1ICE01G37R12B0,92,1548274723159,"{""rt"": 2698, ""trial_type"": ""face-likert-amanda"", ""debug_mode"": ""live"", ""task_type"": ""face trials"", ""responses"": ""{\""Q0\"":3}"", ""task_payment"": 1, ""task_version"": 1, ""internal_node_id"": ""0.0-10.0-0.0-2.0"", ""time_elapsed"": 240487, ""imgName"": ""/static/images/modifae_new_linspace/trustworthy/151012_0.11616161616161624.png"", ""questions"": ""[{\""prompt\"":\""<p>How <b>trustworthy</b> does this person look to <b>most people</b>? Rate from 1-9</p>\"",\""labels\"":[\""1 <br/><b>Not trustworthy at all</b>\"",\""2\"",\""3\"",\""4\"",\""5\"",\""6\"",\""7\"",\""8\"",\""9  <br/><b>Extremely trustworthy</b>\""],\""required\"":true}]"", ""task_unique_trial"": 100, ""task_name"": ""trustworthy-modifae-single"", ""trial_index"": 92, ""isRepeat"": 0}"
A1QVNF19XSRSD7:3IAS3U3I0HNCWS3T1ICE01G37R12B0,93,1548274724473,"{""rt"": 1314, ""trial_type"": ""face-likert-amanda"", ""debug_mode"": ""live"", ""task_type"": ""face trials"", ""responses"": ""{\""Q0\"":3}"", ""task_payment"": 1, ""task_version"": 1, ""internal_node_id"": ""0.0-10.0-0.0-3.0"", ""time_elapsed"": 241801, ""imgName"": ""/static/images/modifae_new_linspace/trustworthy/181258_-0.11616161616161613.png"", ""questions"": ""[{\""prompt\"":\""<p>How <b>trustworthy</b> does this person look to <b>most people</b>? Rate from 1-9</p>\"",\""labels\"":[\""1 <br/><b>Not trustworthy at all</b>\"",\""2\"",\""3\"",\""4\"",\""5\"",\""6\"",\""7\"",\""8\"",\""9  <br/><b>Extremely trustworthy</b>\""],\""required\"":true}]"", ""task_unique_trial"": 100, ""task_name"": ""trustworthy-modifae-single"", ""trial_index"": 93, ""isRepeat"": 0}"
A1QVNF19XSRSD7:3IAS3U3I0HNCWS3T1ICE01G37R12B0,94,1548274726099,"{""rt"": 1625, ""trial_type"": ""face-likert-amanda"", ""debug_mode"": ""live"", ""task_type"": ""face trials"", ""responses"": ""{\""Q0\"":5}"", ""task_payment"": 1, ""task_version"": 1, ""internal_node_id"": ""0.0-10.0-0.0-4.0"", ""time_elapsed"": 243427, ""imgName"": ""/static/images/modifae_new_linspace/trustworthy/081495_-0.17676767676767674.png"", ""questions"": ""[{\""prompt\"":\""<p>How <b>trustworthy</b> does this person look to <b>most people</b>? Rate from 1-9</p>\"",\""labels\"":[\""1 <br/><b>Not trustworthy at all</b>\"",\""2\"",\""3\"",\""4\"",\""5\"",\""6\"",\""7\"",\""8\"",\""9  <br/><b>Extremely trustworthy</b>\""],\""required\"":true}]"", ""task_unique_trial"": 100, ""task_name"": ""trustworthy-modifae-single"", ""trial_index"": 94, ""isRepeat"": 0}"
A1QVNF19XSRSD7:3IAS3U3I0HNCWS3T1ICE01G37R12B0,95,1548274727743,"{""rt"": 1641, ""trial_type"": ""face-likert-amanda"", ""debug_mode"": ""live"", ""task_type"": ""face trials"", ""responses"": ""{\""Q0\"":4}"", ""task_payment"": 1, ""task_version"": 1, ""internal_node_id"": ""0.0-10.0-0.0-5.0"", ""time_elapsed"": 245071, ""imgName"": ""/static/images/modifae_new_linspace/trustworthy/050496_-0.4898989898989899.png"", ""questions"": ""[{\""prompt\"":\""<p>How <b>trustworthy</b> does this person look to <b>most people</b>? Rate from 1-9</p>\"",\""labels\"":[\""1 <br/><b>Not trustworthy at all</b>\"",\""2\"",\""3\"",\""4\"",\""5\"",\""6\"",\""7\"",\""8\"",\""9  <br/><b>Extremely trustworthy</b>\""],\""required\"":true}]"", ""task_unique_trial"": 100, ""task_name"": ""trustworthy-modifae-single"", ""trial_index"": 95, ""isRepeat"": 0}"
A1QVNF19XSRSD7:3IAS3U3I0HNCWS3T1ICE01G37R12B0,96,1548274729751,"{""rt"": 2006, ""trial_type"": ""face-likert-amanda"", ""debug_mode"": ""live"", ""task_type"": ""face trials"", ""responses"": ""{\""Q0\"":6}"", ""task_payment"": 1, ""task_version"": 1, ""internal_node_id"": ""0.0-10.0-0.0-6.0"", ""time_elapsed"": 247079, ""imgName"": ""/static/images/modifae_new_linspace/trustworthy/084650_0.40909090909090917.png"", ""questions"": ""[{\""prompt\"":\""<p>How <b>trustworthy</b> does this person look to <b>most people</b>? Rate from 1-9</p>\"",\""labels\"":[\""1 <br/><b>Not trustworthy at all</b>\"",\""2\"",\""3\"",\""4\"",\""5\"",\""6\"",\""7\"",\""8\"",\""9  <br/><b>Extremely trustworthy</b>\""],\""required\"":true}]"", ""task_unique_trial"": 100, ""task_name"": ""trustworthy-modifae-single"", ""trial_index"": 96, ""isRepeat"": 0}"
A1QVNF19XSRSD7:3IAS3U3I0HNCWS3T1ICE01G37R12B0,97,1548274732731,"{""rt"": 2977, ""trial_type"": ""face-likert-amanda"", ""debug_mode"": ""live"", ""task_type"": ""face trials"", ""responses"": ""{\""Q0\"":4}"", ""task_payment"": 1, ""task_version"": 1, ""internal_node_id"": ""0.0-10.0-0.0-7.0"", ""time_elapsed"": 250058, ""imgName"": ""/static/images/modifae_new_linspace/trustworthy/081495_-0.17676767676767674.png"", ""questions"": ""[{\""prompt\"":\""<p>How <b>trustworthy</b> does this person look to <b>most people</b>? Rate from 1-9</p>\"",\""labels\"":[\""1 <br/><b>Not trustworthy at all</b>\"",\""2\"",\""3\"",\""4\"",\""5\"",\""6\"",\""7\"",\""8\"",\""9  <br/><b>Extremely trustworthy</b>\""],\""required\"":true}]"", ""task_unique_trial"": 100, ""task_name"": ""trustworthy-modifae-single"", ""trial_index"": 97, ""isRepeat"": 0}"
A1QVNF19XSRSD7:3IAS3U3I0HNCWS3T1ICE01G37R12B0,98,1548274734274,"{""rt"": 1540, ""trial_type"": ""face-likert-amanda"", ""debug_mode"": ""live"", ""task_type"": ""face trials"", ""responses"": ""{\""Q0\"":5}"", ""task_payment"": 1, ""task_version"": 1, ""internal_node_id"": ""0.0-10.0-0.0-8.0"", ""time_elapsed"": 251602, ""imgName"": ""/static/images/modifae_new_linspace/trustworthy/065004_0.5.png"", ""questions"": ""[{\""prompt\"":\""<p>How <b>trustworthy</b> does this person look to <b>most people</b>? Rate from 1-9</p>\"",\""labels\"":[\""1 <br/><b>Not trustworthy at all</b>\"",\""2\"",\""3\"",\""4\"",\""5\"",\""6\"",\""7\"",\""8\"",\""9  <br/><b>Extremely trustworthy</b>\""],\""required\"":true}]"", ""task_unique_trial"": 100, ""task_name"": ""trustworthy-modifae-single"", ""trial_index"": 98, ""isRepeat"": 0}"
A1QVNF19XSRSD7:3IAS3U3I0HNCWS3T1ICE01G37R12B0,99,1548274736260,"{""rt"": 1984, ""trial_type"": ""face-likert-amanda"", ""debug_mode"": ""live"", ""task_type"": ""face trials"", ""responses"": ""{\""Q0\"":6}"", ""task_payment"": 1, ""task_version"": 1, ""internal_node_id"": ""0.0-10.0-0.0-9.0"", ""time_elapsed"": 253588, ""imgName"": ""/static/images/modifae_new_linspace/trustworthy/023665_0.005050505050505083.png"", ""questions"": ""[{\""prompt\"":\""<p>How <b>trustworthy</b> does this person look to <b>most people</b>? Rate from 1-9</p>\"",\""labels\"":[\""1 <br/><b>Not trustworthy at all</b>\"",\""2\"",\""3\"",\""4\"",\""5\"",\""6\"",\""7\"",\""8\"",\""9  <br/><b>Extremely trustworthy</b>\""],\""required\"":true}]"", ""task_unique_trial"": 100, ""task_name"": ""trustworthy-modifae-single"", ""trial_index"": 99, ""isRepeat"": 0}"
A1QVNF19XSRSD7:3IAS3U3I0HNCWS3T1ICE01G37R12B0,100,1548274738261,"{""rt"": null, ""trial_type"": ""html-keyboard-response"", ""task_unique_trial"": 100, ""stimulus"": ""<p>Good job!</p>"", ""task_version"": 1, ""internal_node_id"": ""0.0-10.0-1.0"", ""task_payment"": 1, ""time_elapsed"": 255589, ""debug_mode"": ""live"", ""key_press"": null, ""task_name"": ""trustworthy-modifae-single"", ""trial_index"": 100}"
A1QVNF19XSRSD7:3IAS3U3I0HNCWS3T1ICE01G37R12B0,101,1548274741675,"{""rt"": 3410, ""trial_type"": ""face-likert-amanda"", ""debug_mode"": ""live"", ""task_type"": ""face trials"", ""responses"": ""{\""Q0\"":5}"", ""task_payment"": 1, ""task_version"": 1, ""internal_node_id"": ""0.0-11.0-0.0-0.0"", ""time_elapsed"": 259003, ""imgName"": ""/static/images/modifae_new_linspace/trustworthy/080357_-0.055555555555555525.png"", ""questions"": ""[{\""prompt\"":\""<p>How <b>trustworthy</b> does this person look to <b>most people</b>? Rate from 1-9</p>\"",\""labels\"":[\""1 <br/><b>Not trustworthy at all</b>\"",\""2\"",\""3\"",\""4\"",\""5\"",\""6\"",\""7\"",\""8\"",\""9  <br/><b>Extremely trustworthy</b>\""],\""required\"":true}]"", ""task_unique_trial"": 100, ""task_name"": ""trustworthy-modifae-single"", ""trial_index"": 101, ""isRepeat"": 0}"
A1QVNF19XSRSD7:3IAS3U3I0HNCWS3T1ICE01G37R12B0,102,1548274744799,"{""rt"": 3121, ""trial_type"": ""face-likert-amanda"", ""debug_mode"": ""live"", ""task_type"": ""face trials"", ""responses"": ""{\""Q0\"":7}"", ""task_payment"": 1, ""task_version"": 1, ""internal_node_id"": ""0.0-11.0-0.0-1.0"", ""time_elapsed"": 262127, ""imgName"": ""/static/images/modifae_new_linspace/trustworthy/021469_-0.2676767676767676.png"", ""questions"": ""[{\""prompt\"":\""<p>How <b>trustworthy</b> does this person look to <b>most people</b>? Rate from 1-9</p>\"",\""labels\"":[\""1 <br/><b>Not trustworthy at all</b>\"",\""2\"",\""3\"",\""4\"",\""5\"",\""6\"",\""7\"",\""8\"",\""9  <br/><b>Extremely trustworthy</b>\""],\""required\"":true}]"", ""task_unique_trial"": 100, ""task_name"": ""trustworthy-modifae-single"", ""trial_index"": 102, ""isRepeat"": 0}"
A1QVNF19XSRSD7:3IAS3U3I0HNCWS3T1ICE01G37R12B0,103,1548274747186,"{""rt"": 2386, ""trial_type"": ""face-likert-amanda"", ""debug_mode"": ""live"", ""task_type"": ""face trials"", ""responses"": ""{\""Q0\"":2}"", ""task_payment"": 1, ""task_version"": 1, ""internal_node_id"": ""0.0-11.0-0.0-2.0"", ""time_elapsed"": 264514, ""imgName"": ""/static/images/modifae_new_linspace/trustworthy/092972_0.21717171717171724.png"", ""questions"": ""[{\""prompt\"":\""<p>How <b>trustworthy</b> does this person look to <b>most people</b>? Rate from 1-9</p>\"",\""labels\"":[\""1 <br/><b>Not trustworthy at all</b>\"",\""2\"",\""3\"",\""4\"",\""5\"",\""6\"",\""7\"",\""8\"",\""9  <br/><b>Extremely trustworthy</b>\""],\""required\"":true}]"", ""task_unique_trial"": 100, ""task_name"": ""trustworthy-modifae-single"", ""trial_index"": 103, ""isRepeat"": 0}"
A1QVNF19XSRSD7:3IAS3U3I0HNCWS3T1ICE01G37R12B0,104,1548274749269,"{""rt"": 2080, ""trial_type"": ""face-likert-amanda"", ""debug_mode"": ""live"", ""task_type"": ""face trials"", ""responses"": ""{\""Q0\"":3}"", ""task_payment"": 1, ""task_version"": 1, ""internal_node_id"": ""0.0-11.0-0.0-3.0"", ""time_elapsed"": 266596, ""imgName"": ""/static/images/modifae_new_linspace/trustworthy/130683_-0.19696969696969696.png"", ""questions"": ""[{\""prompt\"":\""<p>How <b>trustworthy</b> does this person look to <b>most people</b>? Rate from 1-9</p>\"",\""labels\"":[\""1 <br/><b>Not trustworthy at all</b>\"",\""2\"",\""3\"",\""4\"",\""5\"",\""6\"",\""7\"",\""8\"",\""9  <br/><b>Extremely trustworthy</b>\""],\""required\"":true}]"", ""task_unique_trial"": 100, ""task_name"": ""trustworthy-modifae-single"", ""trial_index"": 104, ""isRepeat"": 0}"
A1QVNF19XSRSD7:3IAS3U3I0HNCWS3T1ICE01G37R12B0,105,1548274751681,"{""rt"": 2411, ""trial_type"": ""face-likert-amanda"", ""debug_mode"": ""live"", ""task_type"": ""face trials"", ""responses"": ""{\""Q0\"":1}"", ""task_payment"": 1, ""task_version"": 1, ""internal_node_id"": ""0.0-11.0-0.0-4.0"", ""time_elapsed"": 269009, ""imgName"": ""/static/images/modifae_new_linspace/trustworthy/093413_-0.3888888888888889.png"", ""questions"": ""[{\""prompt\"":\""<p>How <b>trustworthy</b> does this person look to <b>most people</b>? Rate from 1-9</p>\"",\""labels\"":[\""1 <br/><b>Not trustworthy at all</b>\"",\""2\"",\""3\"",\""4\"",\""5\"",\""6\"",\""7\"",\""8\"",\""9  <br/><b>Extremely trustworthy</b>\""],\""required\"":true}]"", ""task_unique_trial"": 100, ""task_name"": ""trustworthy-modifae-single"", ""trial_index"": 105, ""isRepeat"": 0}"
A1QVNF19XSRSD7:3IAS3U3I0HNCWS3T1ICE01G37R12B0,106,1548274761736,"{""rt"": 10054, ""trial_type"": ""face-likert-amanda"", ""debug_mode"": ""live"", ""task_type"": ""face trials"", ""responses"": ""{\""Q0\"":3}"", ""task_payment"": 1, ""task_version"": 1, ""internal_node_id"": ""0.0-11.0-0.0-5.0"", ""time_elapsed"": 279064, ""imgName"": ""/static/images/modifae_new_linspace/trustworthy/130683_-0.19696969696969696.png"", ""questions"": ""[{\""prompt\"":\""<p>How <b>trustworthy</b> does this person look to <b>most people</b>? Rate from 1-9</p>\"",\""labels\"":[\""1 <br/><b>Not trustworthy at all</b>\"",\""2\"",\""3\"",\""4\"",\""5\"",\""6\"",\""7\"",\""8\"",\""9  <br/><b>Extremely trustworthy</b>\""],\""required\"":true}]"", ""task_unique_trial"": 100, ""task_name"": ""trustworthy-modifae-single"", ""trial_index"": 106, ""isRepeat"": 0}"
A1QVNF19XSRSD7:3IAS3U3I0HNCWS3T1ICE01G37R12B0,107,1548274763737,"{""rt"": 2000, ""trial_type"": ""face-likert-amanda"", ""debug_mode"": ""live"", ""task_type"": ""face trials"", ""responses"": ""{\""Q0\"":5}"", ""task_payment"": 1, ""task_version"": 1, ""internal_node_id"": ""0.0-11.0-0.0-6.0"", ""time_elapsed"": 281065, ""imgName"": ""/static/images/modifae_new_linspace/trustworthy/113061_-0.13636363636363635.png"", ""questions"": ""[{\""prompt\"":\""<p>How <b>trustworthy</b> does this person look to <b>most people</b>? Rate from 1-9</p>\"",\""labels\"":[\""1 <br/><b>Not trustworthy at all</b>\"",\""2\"",\""3\"",\""4\"",\""5\"",\""6\"",\""7\"",\""8\"",\""9  <br/><b>Extremely trustworthy</b>\""],\""required\"":true}]"", ""task_unique_trial"": 100, ""task_name"": ""trustworthy-modifae-single"", ""trial_index"": 107, ""isRepeat"": 0}"
A1QVNF19XSRSD7:3IAS3U3I0HNCWS3T1ICE01G37R12B0,108,1548274766072,"{""rt"": 2333, ""trial_type"": ""face-likert-amanda"", ""debug_mode"": ""live"", ""task_type"": ""face trials"", ""responses"": ""{\""Q0\"":6}"", ""task_payment"": 1, ""task_version"": 1, ""internal_node_id"": ""0.0-11.0-0.0-7.0"", ""time_elapsed"": 283400, ""imgName"": ""/static/images/modifae_new_linspace/trustworthy/190655_0.025252525252525304.png"", ""questions"": ""[{\""prompt\"":\""<p>How <b>trustworthy</b> does this person look to <b>most people</b>? Rate from 1-9</p>\"",\""labels\"":[\""1 <br/><b>Not trustworthy at all</b>\"",\""2\"",\""3\"",\""4\"",\""5\"",\""6\"",\""7\"",\""8\"",\""9  <br/><b>Extremely trustworthy</b>\""],\""required\"":true}]"", ""task_unique_trial"": 100, ""task_name"": ""trustworthy-modifae-single"", ""trial_index"": 108, ""isRepeat"": 0}"
A1QVNF19XSRSD7:3IAS3U3I0HNCWS3T1ICE01G37R12B0,109,1548274767645,"{""rt"": 1570, ""trial_type"": ""face-likert-amanda"", ""debug_mode"": ""live"", ""task_type"": ""face trials"", ""responses"": ""{\""Q0\"":4}"", ""task_payment"": 1, ""task_version"": 1, ""internal_node_id"": ""0.0-11.0-0.0-8.0"", ""time_elapsed"": 284973, ""imgName"": ""/static/images/modifae_new_linspace/trustworthy/064390_0.3787878787878789.png"", ""questions"": ""[{\""prompt\"":\""<p>How <b>trustworthy</b> does this person look to <b>most people</b>? Rate from 1-9</p>\"",\""labels\"":[\""1 <br/><b>Not trustworthy at all</b>\"",\""2\"",\""3\"",\""4\"",\""5\"",\""6\"",\""7\"",\""8\"",\""9  <br/><b>Extremely trustworthy</b>\""],\""required\"":true}]"", ""task_unique_trial"": 100, ""task_name"": ""trustworthy-modifae-single"", ""trial_index"": 109, ""isRepeat"": 0}"
A1QVNF19XSRSD7:3IAS3U3I0HNCWS3T1ICE01G37R12B0,110,1548274769494,"{""rt"": 1848, ""trial_type"": ""face-likert-amanda"", ""debug_mode"": ""live"", ""task_type"": ""face trials"", ""responses"": ""{\""Q0\"":3}"", ""task_payment"": 1, ""task_version"": 1, ""internal_node_id"": ""0.0-11.0-0.0-9.0"", ""time_elapsed"": 286822, ""imgName"": ""/static/images/modifae_new_linspace/trustworthy/003820_0.2272727272727273.png"", ""questions"": ""[{\""prompt\"":\""<p>How <b>trustworthy</b> does this person look to <b>most people</b>? Rate from 1-9</p>\"",\""labels\"":[\""1 <br/><b>Not trustworthy at all</b>\"",\""2\"",\""3\"",\""4\"",\""5\"",\""6\"",\""7\"",\""8\"",\""9  <br/><b>Extremely trustworthy</b>\""],\""required\"":true}]"", ""task_unique_trial"": 100, ""task_name"": ""trustworthy-modifae-single"", ""trial_index"": 110, ""isRepeat"": 0}"
A1QVNF19XSRSD7:3IAS3U3I0HNCWS3T1ICE01G37R12B0,111,1548274770996,"{""rt"": null, ""trial_type"": ""html-keyboard-response"", ""task_unique_trial"": 100, ""stimulus"": ""<p>Good job!</p>"", ""task_version"": 1, ""internal_node_id"": ""0.0-11.0-1.0"", ""task_payment"": 1, ""time_elapsed"": 288323, ""debug_mode"": ""live"", ""key_press"": null, ""task_name"": ""trustworthy-modifae-single"", ""trial_index"": 111}"
A1QVNF19XSRSD7:3IAS3U3I0HNCWS3T1ICE01G37R12B0,112,1548274773121,"{""rt"": 2119, ""trial_type"": ""survey-text-req"", ""task_type"": ""feedback for HIT"", ""responses"": ""{\""Q0\"":\""\""}"", ""task_payment"": 1, ""task_version"": 1, ""internal_node_id"": ""0.0-12.0"", ""time_elapsed"": 290448, ""debug_mode"": ""live"", ""task_name"": ""trustworthy-modifae-single"", ""task_unique_trial"": 100, ""trial_index"": 112}"
A3CJBVOK16PA00:3FTYUGLFSWSXAMK0XX5ITY7FUM65DD,0,1548275152671,"{""rt"": 33846, ""trial_type"": ""instructions"", ""view_history"": ""[{\""page_index\"":0,\""viewing_time\"":18643},{\""page_index\"":1,\""viewing_time\"":12273},{\""page_index\"":2,\""viewing_time\"":2928}]"", ""task_type"": ""instruction"", ""task_payment"": 1, ""task_version"": 1, ""internal_node_id"": ""0.0-0.0"", ""time_elapsed"": 33851, ""debug_mode"": ""live"", ""task_name"": ""trustworthy-modifae-single"", ""task_unique_trial"": 100, ""trial_index"": 0}"
A3CJBVOK16PA00:3FTYUGLFSWSXAMK0XX5ITY7FUM65DD,1,1548275169017,"{""rt"": 16303, ""trial_type"": ""survey-multi-choice"", ""task_type"": ""demographic-multichoice"", ""responses"": ""{\""Q0\"":\""26-35\"",\""Q1\"":\""Male\"",\""Q2\"":\""No\"",\""Q3\"":\""2\"",\""Q4\"":\""White\"",\""Q5\"":\""Bachelor&#8217;s degree (e.g. BA, BS) or above\"",\""Q6\"":\""$75,000 and above\""}"", ""task_payment"": 1, ""task_version"": 1, ""time_elapsed"": 50197, ""sanity_check_1_continue"": true, ""random_num"": 2, ""debug_mode"": ""live"", ""questions"": ""[{\""prompt\"":\""What is your age?\"",\""options\"":[\""Under 18\"",\""18-25\"",\""26-35\"",\""36-45\"",\""46-55\"",\""56+\""],\""required\"":true},{\""prompt\"":\""What is your gender?\"",\""options\"":[\""Male\"",\""Female\"",\""Other/Prefer not to say\""],\""required\"":true},{\""prompt\"":\""Are you of Hispanic, Latino, or Spanish origin?\"",\""options\"":[\""Yes\"",\""No\""],\""required\"":true},{\""prompt\"":\""Please choose the option that matches the number here: 2\"",\""options\"":[\""1\"",\""2\"",\""3\"",\""4\""],\""required\"":true},{\""prompt\"":\""How would you describe yourself?\"",\""options\"":[\""American Indian or Alaskan Native\"",\""Asian\"",\""Black or African-American\"",\""Native Hawaiian or Other Pacific Islander\"",\""White\""],\""required\"":true},{\""prompt\"":\""What is the highest degree or level of school you have completed? (If you&#8217;re currently enrolled in school, please indicate the highest degree you have received)\"",\""options\"":[\""Less than a high school diploma\"",\""High school degree or equivalent (e.g. GED)\"",\""Some college, no degree\"",\""Associate degree (e.g. AA, AS)\"",\""Bachelor&#8217;s degree (e.g. BA, BS) or above\""],\""required\"":true},{\""prompt\"":\""What is the total income of all members of your household?\"",\""options\"":[\""Less than $20,000\"",\""$20,000  - $49,999\"",\""$50,000 - $74,999\"",\""$75,000 and above\""],\""required\"":true}]"", ""internal_node_id"": ""0.0-1.0-0.0"", ""task_unique_trial"": 100, ""task_name"": ""trustworthy-modifae-single"", ""trial_index"": 1}"
A3CJBVOK16PA00:3FTYUGLFSWSXAMK0XX5ITY7FUM65DD,2,1548275171422,"{""rt"": 2398, ""trial_type"": ""face-likert-amanda"", ""debug_mode"": ""live"", ""task_type"": ""face trials"", ""responses"": ""{\""Q0\"":6}"", ""task_payment"": 1, ""task_version"": 1, ""internal_node_id"": ""0.0-2.0-0.0-0.0"", ""time_elapsed"": 52603, ""imgName"": ""/static/images/modifae_new_linspace/trustworthy/041733_0.3989898989898991.png"", ""questions"": ""[{\""prompt\"":\""<p>How <b>trustworthy</b> does this person look to <b>most people</b>? Rate from 1-9</p>\"",\""labels\"":[\""1 <br/><b>Not trustworthy at all</b>\"",\""2\"",\""3\"",\""4\"",\""5\"",\""6\"",\""7\"",\""8\"",\""9  <br/><b>Extremely trustworthy</b>\""],\""required\"":true}]"", ""task_unique_trial"": 100, ""task_name"": ""trustworthy-modifae-single"", ""trial_index"": 2, ""isRepeat"": 0}"
A3CJBVOK16PA00:3FTYUGLFSWSXAMK0XX5ITY7FUM65DD,3,1548275319858,"{""rt"": 148433, ""trial_type"": ""face-likert-amanda"", ""debug_mode"": ""live"", ""task_type"": ""face trials"", ""responses"": ""{\""Q0\"":4}"", ""task_payment"": 1, ""task_version"": 1, ""internal_node_id"": ""0.0-2.0-0.0-1.0"", ""time_elapsed"": 201039, ""imgName"": ""/static/images/modifae_new_linspace/trustworthy/152768_0.4494949494949496.png"", ""questions"": ""[{\""prompt\"":\""<p>How <b>trustworthy</b> does this person look to <b>most people</b>? Rate from 1-9</p>\"",\""labels\"":[\""1 <br/><b>Not trustworthy at all</b>\"",\""2\"",\""3\"",\""4\"",\""5\"",\""6\"",\""7\"",\""8\"",\""9  <br/><b>Extremely trustworthy</b>\""],\""required\"":true}]"", ""task_unique_trial"": 100, ""task_name"": ""trustworthy-modifae-single"", ""trial_index"": 3, ""isRepeat"": 0}"
A3CJBVOK16PA00:3FTYUGLFSWSXAMK0XX5ITY7FUM65DD,4,1548275323434,"{""rt"": 3575, ""trial_type"": ""face-likert-amanda"", ""debug_mode"": ""live"", ""task_type"": ""face trials"", ""responses"": ""{\""Q0\"":4}"", ""task_payment"": 1, ""task_version"": 1, ""internal_node_id"": ""0.0-2.0-0.0-2.0"", ""time_elapsed"": 204615, ""imgName"": ""/static/images/modifae_new_linspace/trustworthy/092972_0.21717171717171724.png"", ""questions"": ""[{\""prompt\"":\""<p>How <b>trustworthy</b> does this person look to <b>most people</b>? Rate from 1-9</p>\"",\""labels\"":[\""1 <br/><b>Not trustworthy at all</b>\"",\""2\"",\""3\"",\""4\"",\""5\"",\""6\"",\""7\"",\""8\"",\""9  <br/><b>Extremely trustworthy</b>\""],\""required\"":true}]"", ""task_unique_trial"": 100, ""task_name"": ""trustworthy-modifae-single"", ""trial_index"": 4, ""isRepeat"": 0}"
A3CJBVOK16PA00:3FTYUGLFSWSXAMK0XX5ITY7FUM65DD,5,1548275329532,"{""rt"": 6096, ""trial_type"": ""face-likert-amanda"", ""debug_mode"": ""live"", ""task_type"": ""face trials"", ""responses"": ""{\""Q0\"":5}"", ""task_payment"": 1, ""task_version"": 1, ""internal_node_id"": ""0.0-2.0-0.0-3.0"", ""time_elapsed"": 210713, ""imgName"": ""/static/images/modifae_new_linspace/trustworthy/113221_-0.3484848484848485.png"", ""questions"": ""[{\""prompt\"":\""<p>How <b>trustworthy</b> does this person look to <b>most people</b>? Rate from 1-9</p>\"",\""labels\"":[\""1 <br/><b>Not trustworthy at all</b>\"",\""2\"",\""3\"",\""4\"",\""5\"",\""6\"",\""7\"",\""8\"",\""9  <br/><b>Extremely trustworthy</b>\""],\""required\"":true}]"", ""task_unique_trial"": 100, ""task_name"": ""trustworthy-modifae-single"", ""trial_index"": 5, ""isRepeat"": 0}"
A3CJBVOK16PA00:3FTYUGLFSWSXAMK0XX5ITY7FUM65DD,6,1548275352337,"{""rt"": 22801, ""trial_type"": ""face-likert-amanda"", ""debug_mode"": ""live"", ""task_type"": ""face trials"", ""responses"": ""{\""Q0\"":4}"", ""task_payment"": 1, ""task_version"": 1, ""internal_node_id"": ""0.0-2.0-0.0-4.0"", ""time_elapsed"": 233518, ""imgName"": ""/static/images/modifae_new_linspace/trustworthy/067113_0.015151515151515249.png"", ""questions"": ""[{\""prompt\"":\""<p>How <b>trustworthy</b> does this person look to <b>most people</b>? Rate from 1-9</p>\"",\""labels\"":[\""1 <br/><b>Not trustworthy at all</b>\"",\""2\"",\""3\"",\""4\"",\""5\"",\""6\"",\""7\"",\""8\"",\""9  <br/><b>Extremely trustworthy</b>\""],\""required\"":true}]"", ""task_unique_trial"": 100, ""task_name"": ""trustworthy-modifae-single"", ""trial_index"": 6, ""isRepeat"": 0}"
A3CJBVOK16PA00:3FTYUGLFSWSXAMK0XX5ITY7FUM65DD,7,1548275355273,"{""rt"": 2934, ""trial_type"": ""face-likert-amanda"", ""debug_mode"": ""live"", ""task_type"": ""face trials"", ""responses"": ""{\""Q0\"":5}"", ""task_payment"": 1, ""task_version"": 1, ""internal_node_id"": ""0.0-2.0-0.0-5.0"", ""time_elapsed"": 236453, ""imgName"": ""/static/images/modifae_new_linspace/trustworthy/037387_-0.015151515151515138.png"", ""questions"": ""[{\""prompt\"":\""<p>How <b>trustworthy</b> does this person look to <b>most people</b>? Rate from 1-9</p>\"",\""labels\"":[\""1 <br/><b>Not trustworthy at all</b>\"",\""2\"",\""3\"",\""4\"",\""5\"",\""6\"",\""7\"",\""8\"",\""9  <br/><b>Extremely trustworthy</b>\""],\""required\"":true}]"", ""task_unique_trial"": 100, ""task_name"": ""trustworthy-modifae-single"", ""trial_index"": 7, ""isRepeat"": 0}"
A3CJBVOK16PA00:3FTYUGLFSWSXAMK0XX5ITY7FUM65DD,8,1548275358841,"{""rt"": 3565, ""trial_type"": ""face-likert-amanda"", ""debug_mode"": ""live"", ""task_type"": ""face trials"", ""responses"": ""{\""Q0\"":3}"", ""task_payment"": 1, ""task_version"": 1, ""internal_node_id"": ""0.0-2.0-0.0-6.0"", ""time_elapsed"": 240022, ""imgName"": ""/static/images/modifae_new_linspace/trustworthy/087975_-0.29797979797979796.png"", ""questions"": ""[{\""prompt\"":\""<p>How <b>trustworthy</b> does this person look to <b>most people</b>? Rate from 1-9</p>\"",\""labels\"":[\""1 <br/><b>Not trustworthy at all</b>\"",\""2\"",\""3\"",\""4\"",\""5\"",\""6\"",\""7\"",\""8\"",\""9  <br/><b>Extremely trustworthy</b>\""],\""required\"":true}]"", ""task_unique_trial"": 100, ""task_name"": ""trustworthy-modifae-single"", ""trial_index"": 8, ""isRepeat"": 0}"
