,subId,rt,imgName,rating,trial_index,debug_mode
0,A3O1UM8O2RBC08:3WJ1OXY92CNIZX0QBLLJFH90AIMA8B,6156,136171_-0.4797979797979798.png,6,2,live
1,A3O1UM8O2RBC08:3WJ1OXY92CNIZX0QBLLJFH90AIMA8B,5581,136237_0.18686868686868696.png,4,3,live
2,A3O1UM8O2RBC08:3WJ1OXY92CNIZX0QBLLJFH90AIMA8B,5669,136182_-0.3686868686868687.png,7,4,live
3,A3O1UM8O2RBC08:3WJ1OXY92CNIZX0QBLLJFH90AIMA8B,3775,136252_0.33838383838383845.png,8,5,live
4,A3O1UM8O2RBC08:3WJ1OXY92CNIZX0QBLLJFH90AIMA8B,7146,136202_-0.16666666666666663.png,4,6,live
5,A3O1UM8O2RBC08:3WJ1OXY92CNIZX0QBLLJFH90AIMA8B,5727,136223_0.045454545454545525.png,8,7,live
6,A3O1UM8O2RBC08:3WJ1OXY92CNIZX0QBLLJFH90AIMA8B,7489,136211_-0.07575757575757575.png,6,8,live
7,A3O1UM8O2RBC08:3WJ1OXY92CNIZX0QBLLJFH90AIMA8B,5713,136173_-0.4595959595959596.png,5,9,live
8,A3O1UM8O2RBC08:3WJ1OXY92CNIZX0QBLLJFH90AIMA8B,6915,136229_0.10606060606060608.png,7,10,live
9,A3O1UM8O2RBC08:3WJ1OXY92CNIZX0QBLLJFH90AIMA8B,4826,136231_0.1262626262626263.png,4,11,live
10,A3O1UM8O2RBC08:3WJ1OXY92CNIZX0QBLLJFH90AIMA8B,4233,136184_-0.3484848484848485.png,7,13,live
11,A3O1UM8O2RBC08:3WJ1OXY92CNIZX0QBLLJFH90AIMA8B,3972,136193_-0.25757575757575757.png,4,14,live
12,A3O1UM8O2RBC08:3WJ1OXY92CNIZX0QBLLJFH90AIMA8B,4939,136213_-0.055555555555555525.png,6,15,live
13,A3O1UM8O2RBC08:3WJ1OXY92CNIZX0QBLLJFH90AIMA8B,8596,136217_-0.015151515151515138.png,5,16,live
14,A3O1UM8O2RBC08:3WJ1OXY92CNIZX0QBLLJFH90AIMA8B,8148,136260_0.4191919191919192.png,4,17,live
15,A3O1UM8O2RBC08:3WJ1OXY92CNIZX0QBLLJFH90AIMA8B,6347,136264_0.45959595959595967.png,6,18,live
16,A3O1UM8O2RBC08:3WJ1OXY92CNIZX0QBLLJFH90AIMA8B,5197,136189_-0.29797979797979796.png,3,19,live
17,A3O1UM8O2RBC08:3WJ1OXY92CNIZX0QBLLJFH90AIMA8B,4343,136238_0.19696969696969702.png,5,20,live
18,A3O1UM8O2RBC08:3WJ1OXY92CNIZX0QBLLJFH90AIMA8B,3813,136203_-0.15656565656565652.png,8,21,live
19,A3O1UM8O2RBC08:3WJ1OXY92CNIZX0QBLLJFH90AIMA8B,9248,136199_-0.19696969696969696.png,4,22,live
20,A3O1UM8O2RBC08:3WJ1OXY92CNIZX0QBLLJFH90AIMA8B,7204,136218_-0.0050505050505050275.png,6,24,live
21,A3O1UM8O2RBC08:3WJ1OXY92CNIZX0QBLLJFH90AIMA8B,3480,136221_0.025252525252525304.png,7,25,live
22,A3O1UM8O2RBC08:3WJ1OXY92CNIZX0QBLLJFH90AIMA8B,3874,136261_0.4292929292929294.png,5,26,live
23,A3O1UM8O2RBC08:3WJ1OXY92CNIZX0QBLLJFH90AIMA8B,6300,136246_0.2777777777777778.png,6,27,live
24,A3O1UM8O2RBC08:3WJ1OXY92CNIZX0QBLLJFH90AIMA8B,5519,136249_0.3080808080808082.png,4,28,live
25,A3O1UM8O2RBC08:3WJ1OXY92CNIZX0QBLLJFH90AIMA8B,3975,136201_-0.17676767676767674.png,7,29,live
26,A3O1UM8O2RBC08:3WJ1OXY92CNIZX0QBLLJFH90AIMA8B,4382,136262_0.43939393939393945.png,8,30,live
27,A3O1UM8O2RBC08:3WJ1OXY92CNIZX0QBLLJFH90AIMA8B,5997,136188_-0.30808080808080807.png,7,31,live
28,A3O1UM8O2RBC08:3WJ1OXY92CNIZX0QBLLJFH90AIMA8B,4345,136239_0.20707070707070718.png,5,32,live
29,A3O1UM8O2RBC08:3WJ1OXY92CNIZX0QBLLJFH90AIMA8B,11423,136235_0.16666666666666674.png,5,33,live
30,A3O1UM8O2RBC08:3WJ1OXY92CNIZX0QBLLJFH90AIMA8B,7535,136198_-0.20707070707070707.png,4,35,live
31,A3O1UM8O2RBC08:3WJ1OXY92CNIZX0QBLLJFH90AIMA8B,4824,136178_-0.40909090909090906.png,4,36,live
32,A3O1UM8O2RBC08:3WJ1OXY92CNIZX0QBLLJFH90AIMA8B,4851,136181_-0.3787878787878788.png,3,37,live
33,A3O1UM8O2RBC08:3WJ1OXY92CNIZX0QBLLJFH90AIMA8B,9004,136179_-0.398989898989899.png,6,38,live
34,A3O1UM8O2RBC08:3WJ1OXY92CNIZX0QBLLJFH90AIMA8B,4444,136198_-0.20707070707070707.png,4,39,live
35,A3O1UM8O2RBC08:3WJ1OXY92CNIZX0QBLLJFH90AIMA8B,5359,136191_-0.2777777777777778.png,4,40,live
36,A3O1UM8O2RBC08:3WJ1OXY92CNIZX0QBLLJFH90AIMA8B,3923,136185_-0.33838383838383834.png,7,41,live
37,A3O1UM8O2RBC08:3WJ1OXY92CNIZX0QBLLJFH90AIMA8B,4903,136250_0.31818181818181823.png,5,42,live
38,A3O1UM8O2RBC08:3WJ1OXY92CNIZX0QBLLJFH90AIMA8B,7050,136265_0.4696969696969697.png,4,43,live
39,A3O1UM8O2RBC08:3WJ1OXY92CNIZX0QBLLJFH90AIMA8B,5355,136255_0.36868686868686873.png,8,44,live
40,A3O1UM8O2RBC08:3WJ1OXY92CNIZX0QBLLJFH90AIMA8B,5017,136170_-0.4898989898989899.png,6,46,live
41,A3O1UM8O2RBC08:3WJ1OXY92CNIZX0QBLLJFH90AIMA8B,6750,136181_-0.3787878787878788.png,3,47,live
42,A3O1UM8O2RBC08:3WJ1OXY92CNIZX0QBLLJFH90AIMA8B,4432,136200_-0.18686868686868685.png,5,48,live
43,A3O1UM8O2RBC08:3WJ1OXY92CNIZX0QBLLJFH90AIMA8B,5580,136183_-0.35858585858585856.png,4,49,live
44,A3O1UM8O2RBC08:3WJ1OXY92CNIZX0QBLLJFH90AIMA8B,3998,136230_0.11616161616161624.png,8,50,live
45,A3O1UM8O2RBC08:3WJ1OXY92CNIZX0QBLLJFH90AIMA8B,3307,136265_0.4696969696969697.png,4,51,live
46,A3O1UM8O2RBC08:3WJ1OXY92CNIZX0QBLLJFH90AIMA8B,7406,136206_-0.12626262626262624.png,6,52,live
47,A3O1UM8O2RBC08:3WJ1OXY92CNIZX0QBLLJFH90AIMA8B,4852,136256_0.3787878787878789.png,5,53,live
48,A3O1UM8O2RBC08:3WJ1OXY92CNIZX0QBLLJFH90AIMA8B,4466,136174_-0.4494949494949495.png,2,54,live
49,A3O1UM8O2RBC08:3WJ1OXY92CNIZX0QBLLJFH90AIMA8B,3415,136188_-0.30808080808080807.png,7,55,live
50,A3O1UM8O2RBC08:3WJ1OXY92CNIZX0QBLLJFH90AIMA8B,4473,136195_-0.23737373737373735.png,4,57,live
51,A3O1UM8O2RBC08:3WJ1OXY92CNIZX0QBLLJFH90AIMA8B,6433,136227_0.08585858585858586.png,5,58,live
52,A3O1UM8O2RBC08:3WJ1OXY92CNIZX0QBLLJFH90AIMA8B,3664,136235_0.16666666666666674.png,5,59,live
53,A3O1UM8O2RBC08:3WJ1OXY92CNIZX0QBLLJFH90AIMA8B,5159,136263_0.4494949494949496.png,7,60,live
54,A3O1UM8O2RBC08:3WJ1OXY92CNIZX0QBLLJFH90AIMA8B,5148,136209_-0.09595959595959591.png,4,61,live
55,A3O1UM8O2RBC08:3WJ1OXY92CNIZX0QBLLJFH90AIMA8B,4492,136190_-0.28787878787878785.png,6,62,live
56,A3O1UM8O2RBC08:3WJ1OXY92CNIZX0QBLLJFH90AIMA8B,6087,136247_0.28787878787878796.png,7,63,live
57,A3O1UM8O2RBC08:3WJ1OXY92CNIZX0QBLLJFH90AIMA8B,4469,136259_0.40909090909090917.png,6,64,live
58,A3O1UM8O2RBC08:3WJ1OXY92CNIZX0QBLLJFH90AIMA8B,4938,136215_-0.035353535353535304.png,5,65,live
59,A3O1UM8O2RBC08:3WJ1OXY92CNIZX0QBLLJFH90AIMA8B,5580,136220_0.015151515151515249.png,7,66,live
60,A3O1UM8O2RBC08:3WJ1OXY92CNIZX0QBLLJFH90AIMA8B,5818,136257_0.38888888888888895.png,5,68,live
61,A3O1UM8O2RBC08:3WJ1OXY92CNIZX0QBLLJFH90AIMA8B,11405,136259_0.40909090909090917.png,5,69,live
62,A3O1UM8O2RBC08:3WJ1OXY92CNIZX0QBLLJFH90AIMA8B,3035,136185_-0.33838383838383834.png,7,70,live
63,A3O1UM8O2RBC08:3WJ1OXY92CNIZX0QBLLJFH90AIMA8B,3962,136176_-0.4292929292929293.png,4,71,live
64,A3O1UM8O2RBC08:3WJ1OXY92CNIZX0QBLLJFH90AIMA8B,4098,136208_-0.10606060606060602.png,6,72,live
65,A3O1UM8O2RBC08:3WJ1OXY92CNIZX0QBLLJFH90AIMA8B,3614,136239_0.20707070707070718.png,5,73,live
66,A3O1UM8O2RBC08:3WJ1OXY92CNIZX0QBLLJFH90AIMA8B,4627,136177_-0.41919191919191917.png,6,74,live
67,A3O1UM8O2RBC08:3WJ1OXY92CNIZX0QBLLJFH90AIMA8B,8928,136171_-0.4797979797979798.png,6,75,live
68,A3O1UM8O2RBC08:3WJ1OXY92CNIZX0QBLLJFH90AIMA8B,9668,136242_0.23737373737373746.png,5,76,live
69,A3O1UM8O2RBC08:3WJ1OXY92CNIZX0QBLLJFH90AIMA8B,6715,136226_0.0757575757575758.png,4,77,live
70,A3O1UM8O2RBC08:3WJ1OXY92CNIZX0QBLLJFH90AIMA8B,4924,136256_0.3787878787878789.png,5,79,live
71,A3O1UM8O2RBC08:3WJ1OXY92CNIZX0QBLLJFH90AIMA8B,3666,136231_0.1262626262626263.png,4,80,live
72,A3O1UM8O2RBC08:3WJ1OXY92CNIZX0QBLLJFH90AIMA8B,4085,136258_0.3989898989898991.png,6,81,live
73,A3O1UM8O2RBC08:3WJ1OXY92CNIZX0QBLLJFH90AIMA8B,4479,136169_-0.5.png,7,82,live
74,A3O1UM8O2RBC08:3WJ1OXY92CNIZX0QBLLJFH90AIMA8B,5320,136254_0.3585858585858587.png,6,83,live
75,A3O1UM8O2RBC08:3WJ1OXY92CNIZX0QBLLJFH90AIMA8B,4652,136241_0.2272727272727273.png,5,84,live
76,A3O1UM8O2RBC08:3WJ1OXY92CNIZX0QBLLJFH90AIMA8B,3778,136206_-0.12626262626262624.png,6,85,live
77,A3O1UM8O2RBC08:3WJ1OXY92CNIZX0QBLLJFH90AIMA8B,7506,136187_-0.3181818181818182.png,7,86,live
78,A3O1UM8O2RBC08:3WJ1OXY92CNIZX0QBLLJFH90AIMA8B,7125,136189_-0.29797979797979796.png,3,87,live
79,A3O1UM8O2RBC08:3WJ1OXY92CNIZX0QBLLJFH90AIMA8B,4531,136219_0.005050505050505083.png,4,88,live
80,A3O1UM8O2RBC08:3WJ1OXY92CNIZX0QBLLJFH90AIMA8B,6014,136196_-0.22727272727272724.png,6,90,live
81,A3O1UM8O2RBC08:3WJ1OXY92CNIZX0QBLLJFH90AIMA8B,5789,136240_0.21717171717171724.png,5,91,live
82,A3O1UM8O2RBC08:3WJ1OXY92CNIZX0QBLLJFH90AIMA8B,7135,136176_-0.4292929292929293.png,4,92,live
83,A3O1UM8O2RBC08:3WJ1OXY92CNIZX0QBLLJFH90AIMA8B,3344,136204_-0.1464646464646464.png,7,93,live
84,A3O1UM8O2RBC08:3WJ1OXY92CNIZX0QBLLJFH90AIMA8B,4530,136251_0.3282828282828284.png,4,94,live
85,A3O1UM8O2RBC08:3WJ1OXY92CNIZX0QBLLJFH90AIMA8B,2985,136223_0.045454545454545525.png,8,95,live
86,A3O1UM8O2RBC08:3WJ1OXY92CNIZX0QBLLJFH90AIMA8B,5369,136175_-0.4393939393939394.png,5,96,live
87,A3O1UM8O2RBC08:3WJ1OXY92CNIZX0QBLLJFH90AIMA8B,6430,136215_-0.035353535353535304.png,4,97,live
88,A3O1UM8O2RBC08:3WJ1OXY92CNIZX0QBLLJFH90AIMA8B,4084,136249_0.3080808080808082.png,6,98,live
89,A3O1UM8O2RBC08:3WJ1OXY92CNIZX0QBLLJFH90AIMA8B,4245,136268_0.5.png,6,99,live
90,A3O1UM8O2RBC08:3WJ1OXY92CNIZX0QBLLJFH90AIMA8B,4514,136234_0.15656565656565657.png,5,101,live
91,A3O1UM8O2RBC08:3WJ1OXY92CNIZX0QBLLJFH90AIMA8B,3578,136204_-0.1464646464646464.png,7,102,live
92,A3O1UM8O2RBC08:3WJ1OXY92CNIZX0QBLLJFH90AIMA8B,5417,136222_0.03535353535353536.png,4,103,live
93,A3O1UM8O2RBC08:3WJ1OXY92CNIZX0QBLLJFH90AIMA8B,4666,136225_0.06565656565656575.png,5,104,live
94,A3O1UM8O2RBC08:3WJ1OXY92CNIZX0QBLLJFH90AIMA8B,5751,136207_-0.11616161616161613.png,3,105,live
95,A3O1UM8O2RBC08:3WJ1OXY92CNIZX0QBLLJFH90AIMA8B,4332,136228_0.09595959595959602.png,3,106,live
96,A3O1UM8O2RBC08:3WJ1OXY92CNIZX0QBLLJFH90AIMA8B,7909,136172_-0.4696969696969697.png,3,107,live
97,A3O1UM8O2RBC08:3WJ1OXY92CNIZX0QBLLJFH90AIMA8B,5035,136253_0.3484848484848485.png,5,108,live
98,A3O1UM8O2RBC08:3WJ1OXY92CNIZX0QBLLJFH90AIMA8B,4144,136187_-0.3181818181818182.png,7,109,live
99,A3O1UM8O2RBC08:3WJ1OXY92CNIZX0QBLLJFH90AIMA8B,3616,136257_0.38888888888888895.png,5,110,live
100,A1AAO2R3FH2G49:3XXU1SWE8O20H8VNGH84M23IRKAA0O,7306,136211_-0.07575757575757575.png,6,2,live
101,A1AAO2R3FH2G49:3XXU1SWE8O20H8VNGH84M23IRKAA0O,5357,136201_-0.17676767676767674.png,6,3,live
102,A1AAO2R3FH2G49:3XXU1SWE8O20H8VNGH84M23IRKAA0O,5489,136256_0.3787878787878789.png,7,4,live
103,A1AAO2R3FH2G49:3XXU1SWE8O20H8VNGH84M23IRKAA0O,5207,136193_-0.25757575757575757.png,5,5,live
104,A1AAO2R3FH2G49:3XXU1SWE8O20H8VNGH84M23IRKAA0O,4937,136171_-0.4797979797979798.png,8,6,live
105,A1AAO2R3FH2G49:3XXU1SWE8O20H8VNGH84M23IRKAA0O,4568,136226_0.0757575757575758.png,8,7,live
106,A1AAO2R3FH2G49:3XXU1SWE8O20H8VNGH84M23IRKAA0O,4315,136203_-0.15656565656565652.png,7,8,live
107,A1AAO2R3FH2G49:3XXU1SWE8O20H8VNGH84M23IRKAA0O,3546,136183_-0.35858585858585856.png,7,9,live
108,A1AAO2R3FH2G49:3XXU1SWE8O20H8VNGH84M23IRKAA0O,4211,136213_-0.055555555555555525.png,7,10,live
109,A1AAO2R3FH2G49:3XXU1SWE8O20H8VNGH84M23IRKAA0O,9004,136246_0.2777777777777778.png,8,11,live
110,A1AAO2R3FH2G49:3XXU1SWE8O20H8VNGH84M23IRKAA0O,6805,136237_0.18686868686868696.png,7,13,live
111,A1AAO2R3FH2G49:3XXU1SWE8O20H8VNGH84M23IRKAA0O,3927,136219_0.005050505050505083.png,8,14,live
112,A1AAO2R3FH2G49:3XXU1SWE8O20H8VNGH84M23IRKAA0O,3479,136239_0.20707070707070718.png,7,15,live
113,A1AAO2R3FH2G49:3XXU1SWE8O20H8VNGH84M23IRKAA0O,3855,136190_-0.28787878787878785.png,6,16,live
114,A1AAO2R3FH2G49:3XXU1SWE8O20H8VNGH84M23IRKAA0O,4956,136242_0.23737373737373746.png,8,17,live
115,A1AAO2R3FH2G49:3XXU1SWE8O20H8VNGH84M23IRKAA0O,3846,136198_-0.20707070707070707.png,8,18,live
116,A1AAO2R3FH2G49:3XXU1SWE8O20H8VNGH84M23IRKAA0O,5418,136204_-0.1464646464646464.png,7,19,live
117,A1AAO2R3FH2G49:3XXU1SWE8O20H8VNGH84M23IRKAA0O,3650,136263_0.4494949494949496.png,7,20,live
118,A1AAO2R3FH2G49:3XXU1SWE8O20H8VNGH84M23IRKAA0O,3768,136239_0.20707070707070718.png,8,21,live
119,A1AAO2R3FH2G49:3XXU1SWE8O20H8VNGH84M23IRKAA0O,3400,136252_0.33838383838383845.png,7,22,live
120,A1AAO2R3FH2G49:3XXU1SWE8O20H8VNGH84M23IRKAA0O,3415,136256_0.3787878787878789.png,7,24,live
121,A1AAO2R3FH2G49:3XXU1SWE8O20H8VNGH84M23IRKAA0O,3599,136258_0.3989898989898991.png,8,25,live
122,A1AAO2R3FH2G49:3XXU1SWE8O20H8VNGH84M23IRKAA0O,3040,136255_0.36868686868686873.png,6,26,live
123,A1AAO2R3FH2G49:3XXU1SWE8O20H8VNGH84M23IRKAA0O,3571,136229_0.10606060606060608.png,7,27,live
124,A1AAO2R3FH2G49:3XXU1SWE8O20H8VNGH84M23IRKAA0O,3550,136178_-0.40909090909090906.png,7,28,live
125,A1AAO2R3FH2G49:3XXU1SWE8O20H8VNGH84M23IRKAA0O,5598,136170_-0.4898989898989899.png,6,29,live
126,A1AAO2R3FH2G49:3XXU1SWE8O20H8VNGH84M23IRKAA0O,4806,136188_-0.30808080808080807.png,8,30,live
127,A1AAO2R3FH2G49:3XXU1SWE8O20H8VNGH84M23IRKAA0O,3917,136189_-0.29797979797979796.png,8,31,live
128,A1AAO2R3FH2G49:3XXU1SWE8O20H8VNGH84M23IRKAA0O,3927,136253_0.3484848484848485.png,7,32,live
129,A1AAO2R3FH2G49:3XXU1SWE8O20H8VNGH84M23IRKAA0O,3567,136198_-0.20707070707070707.png,8,33,live
130,A1AAO2R3FH2G49:3XXU1SWE8O20H8VNGH84M23IRKAA0O,5736,136261_0.4292929292929294.png,7,35,live
131,A1AAO2R3FH2G49:3XXU1SWE8O20H8VNGH84M23IRKAA0O,4287,136182_-0.3686868686868687.png,8,36,live
132,A1AAO2R3FH2G49:3XXU1SWE8O20H8VNGH84M23IRKAA0O,3540,136234_0.15656565656565657.png,7,37,live
133,A1AAO2R3FH2G49:3XXU1SWE8O20H8VNGH84M23IRKAA0O,4276,136215_-0.035353535353535304.png,6,38,live
134,A1AAO2R3FH2G49:3XXU1SWE8O20H8VNGH84M23IRKAA0O,4490,136265_0.4696969696969697.png,7,39,live
135,A1AAO2R3FH2G49:3XXU1SWE8O20H8VNGH84M23IRKAA0O,3786,136250_0.31818181818181823.png,8,40,live
136,A1AAO2R3FH2G49:3XXU1SWE8O20H8VNGH84M23IRKAA0O,3548,136209_-0.09595959595959591.png,7,41,live
137,A1AAO2R3FH2G49:3XXU1SWE8O20H8VNGH84M23IRKAA0O,4168,136175_-0.4393939393939394.png,8,42,live
138,A1AAO2R3FH2G49:3XXU1SWE8O20H8VNGH84M23IRKAA0O,3349,136257_0.38888888888888895.png,7,43,live
139,A1AAO2R3FH2G49:3XXU1SWE8O20H8VNGH84M23IRKAA0O,3336,136247_0.28787878787878796.png,7,44,live
140,A1AAO2R3FH2G49:3XXU1SWE8O20H8VNGH84M23IRKAA0O,3771,136235_0.16666666666666674.png,6,46,live
141,A1AAO2R3FH2G49:3XXU1SWE8O20H8VNGH84M23IRKAA0O,3163,136187_-0.3181818181818182.png,7,47,live
142,A1AAO2R3FH2G49:3XXU1SWE8O20H8VNGH84M23IRKAA0O,4367,136231_0.1262626262626263.png,5,48,live
143,A1AAO2R3FH2G49:3XXU1SWE8O20H8VNGH84M23IRKAA0O,3515,136228_0.09595959595959602.png,7,49,live
144,A1AAO2R3FH2G49:3XXU1SWE8O20H8VNGH84M23IRKAA0O,3661,136187_-0.3181818181818182.png,6,50,live
145,A1AAO2R3FH2G49:3XXU1SWE8O20H8VNGH84M23IRKAA0O,7694,136221_0.025252525252525304.png,8,51,live
146,A1AAO2R3FH2G49:3XXU1SWE8O20H8VNGH84M23IRKAA0O,4567,136185_-0.33838383838383834.png,8,52,live
147,A1AAO2R3FH2G49:3XXU1SWE8O20H8VNGH84M23IRKAA0O,3849,136191_-0.2777777777777778.png,8,53,live
148,A1AAO2R3FH2G49:3XXU1SWE8O20H8VNGH84M23IRKAA0O,3198,136196_-0.22727272727272724.png,7,54,live
149,A1AAO2R3FH2G49:3XXU1SWE8O20H8VNGH84M23IRKAA0O,3991,136231_0.1262626262626263.png,5,55,live
150,A1AAO2R3FH2G49:3XXU1SWE8O20H8VNGH84M23IRKAA0O,4853,136259_0.40909090909090917.png,7,57,live
151,A1AAO2R3FH2G49:3XXU1SWE8O20H8VNGH84M23IRKAA0O,3348,136174_-0.4494949494949495.png,8,58,live
152,A1AAO2R3FH2G49:3XXU1SWE8O20H8VNGH84M23IRKAA0O,3958,136235_0.16666666666666674.png,6,59,live
153,A1AAO2R3FH2G49:3XXU1SWE8O20H8VNGH84M23IRKAA0O,18611,136184_-0.3484848484848485.png,7,60,live
154,A1AAO2R3FH2G49:3XXU1SWE8O20H8VNGH84M23IRKAA0O,3637,136195_-0.23737373737373735.png,8,61,live
155,A1AAO2R3FH2G49:3XXU1SWE8O20H8VNGH84M23IRKAA0O,3486,136204_-0.1464646464646464.png,7,62,live
156,A1AAO2R3FH2G49:3XXU1SWE8O20H8VNGH84M23IRKAA0O,2726,136264_0.45959595959595967.png,6,63,live
157,A1AAO2R3FH2G49:3XXU1SWE8O20H8VNGH84M23IRKAA0O,2482,136241_0.2272727272727273.png,7,64,live
158,A1AAO2R3FH2G49:3XXU1SWE8O20H8VNGH84M23IRKAA0O,2767,136206_-0.12626262626262624.png,7,65,live
159,A1AAO2R3FH2G49:3XXU1SWE8O20H8VNGH84M23IRKAA0O,5150,136208_-0.10606060606060602.png,6,66,live
160,A1AAO2R3FH2G49:3XXU1SWE8O20H8VNGH84M23IRKAA0O,3085,136217_-0.015151515151515138.png,8,68,live
161,A1AAO2R3FH2G49:3XXU1SWE8O20H8VNGH84M23IRKAA0O,2174,136240_0.21717171717171724.png,7,69,live
162,A1AAO2R3FH2G49:3XXU1SWE8O20H8VNGH84M23IRKAA0O,2632,136220_0.015151515151515249.png,7,70,live
163,A1AAO2R3FH2G49:3XXU1SWE8O20H8VNGH84M23IRKAA0O,3105,136223_0.045454545454545525.png,8,71,live
164,A1AAO2R3FH2G49:3XXU1SWE8O20H8VNGH84M23IRKAA0O,2668,136169_-0.5.png,7,72,live
165,A1AAO2R3FH2G49:3XXU1SWE8O20H8VNGH84M23IRKAA0O,2320,136177_-0.41919191919191917.png,8,73,live
166,A1AAO2R3FH2G49:3XXU1SWE8O20H8VNGH84M23IRKAA0O,2587,136249_0.3080808080808082.png,7,74,live
167,A1AAO2R3FH2G49:3XXU1SWE8O20H8VNGH84M23IRKAA0O,3040,136185_-0.33838383838383834.png,8,75,live
168,A1AAO2R3FH2G49:3XXU1SWE8O20H8VNGH84M23IRKAA0O,2569,136251_0.3282828282828284.png,6,76,live
169,A1AAO2R3FH2G49:3XXU1SWE8O20H8VNGH84M23IRKAA0O,2359,136268_0.5.png,7,77,live
170,A1AAO2R3FH2G49:3XXU1SWE8O20H8VNGH84M23IRKAA0O,2835,136200_-0.18686868686868685.png,8,79,live
171,A1AAO2R3FH2G49:3XXU1SWE8O20H8VNGH84M23IRKAA0O,2528,136179_-0.398989898989899.png,7,80,live
172,A1AAO2R3FH2G49:3XXU1SWE8O20H8VNGH84M23IRKAA0O,2317,136222_0.03535353535353536.png,7,81,live
173,A1AAO2R3FH2G49:3XXU1SWE8O20H8VNGH84M23IRKAA0O,2451,136202_-0.16666666666666663.png,8,82,live
174,A1AAO2R3FH2G49:3XXU1SWE8O20H8VNGH84M23IRKAA0O,3768,136188_-0.30808080808080807.png,8,83,live
175,A1AAO2R3FH2G49:3XXU1SWE8O20H8VNGH84M23IRKAA0O,2425,136265_0.4696969696969697.png,7,84,live
176,A1AAO2R3FH2G49:3XXU1SWE8O20H8VNGH84M23IRKAA0O,2886,136181_-0.3787878787878788.png,6,85,live
177,A1AAO2R3FH2G49:3XXU1SWE8O20H8VNGH84M23IRKAA0O,2707,136230_0.11616161616161624.png,7,86,live
178,A1AAO2R3FH2G49:3XXU1SWE8O20H8VNGH84M23IRKAA0O,2551,136171_-0.4797979797979798.png,8,87,live
179,A1AAO2R3FH2G49:3XXU1SWE8O20H8VNGH84M23IRKAA0O,2488,136172_-0.4696969696969697.png,7,88,live
180,A1AAO2R3FH2G49:3XXU1SWE8O20H8VNGH84M23IRKAA0O,2724,136254_0.3585858585858587.png,8,90,live
181,A1AAO2R3FH2G49:3XXU1SWE8O20H8VNGH84M23IRKAA0O,2409,136176_-0.4292929292929293.png,7,91,live
182,A1AAO2R3FH2G49:3XXU1SWE8O20H8VNGH84M23IRKAA0O,4475,136225_0.06565656565656575.png,8,92,live
183,A1AAO2R3FH2G49:3XXU1SWE8O20H8VNGH84M23IRKAA0O,2359,136206_-0.12626262626262624.png,7,93,live
184,A1AAO2R3FH2G49:3XXU1SWE8O20H8VNGH84M23IRKAA0O,4554,136181_-0.3787878787878788.png,8,94,live
185,A1AAO2R3FH2G49:3XXU1SWE8O20H8VNGH84M23IRKAA0O,2421,136257_0.38888888888888895.png,7,95,live
186,A1AAO2R3FH2G49:3XXU1SWE8O20H8VNGH84M23IRKAA0O,2206,136199_-0.19696969696969696.png,8,96,live
187,A1AAO2R3FH2G49:3XXU1SWE8O20H8VNGH84M23IRKAA0O,3933,136189_-0.29797979797979796.png,8,97,live
188,A1AAO2R3FH2G49:3XXU1SWE8O20H8VNGH84M23IRKAA0O,3875,136176_-0.4292929292929293.png,7,98,live
189,A1AAO2R3FH2G49:3XXU1SWE8O20H8VNGH84M23IRKAA0O,3873,136215_-0.035353535353535304.png,6,99,live
190,A1AAO2R3FH2G49:3XXU1SWE8O20H8VNGH84M23IRKAA0O,4137,136223_0.045454545454545525.png,7,101,live
191,A1AAO2R3FH2G49:3XXU1SWE8O20H8VNGH84M23IRKAA0O,6773,136249_0.3080808080808082.png,7,102,live
192,A1AAO2R3FH2G49:3XXU1SWE8O20H8VNGH84M23IRKAA0O,3356,136207_-0.11616161616161613.png,7,103,live
193,A1AAO2R3FH2G49:3XXU1SWE8O20H8VNGH84M23IRKAA0O,3232,136218_-0.0050505050505050275.png,7,104,live
194,A1AAO2R3FH2G49:3XXU1SWE8O20H8VNGH84M23IRKAA0O,3141,136227_0.08585858585858586.png,6,105,live
195,A1AAO2R3FH2G49:3XXU1SWE8O20H8VNGH84M23IRKAA0O,3485,136260_0.4191919191919192.png,7,106,live
196,A1AAO2R3FH2G49:3XXU1SWE8O20H8VNGH84M23IRKAA0O,3295,136259_0.40909090909090917.png,7,107,live
197,A1AAO2R3FH2G49:3XXU1SWE8O20H8VNGH84M23IRKAA0O,6618,136238_0.19696969696969702.png,7,108,live
198,A1AAO2R3FH2G49:3XXU1SWE8O20H8VNGH84M23IRKAA0O,3276,136262_0.43939393939393945.png,7,109,live
199,A1AAO2R3FH2G49:3XXU1SWE8O20H8VNGH84M23IRKAA0O,2757,136173_-0.4595959595959596.png,7,110,live
200,A1W94PV0BS6F6O:3MD9PLUKKKL43CV2TFQ1E7Q48YSNZD,8665,136239_0.20707070707070718.png,5,2,live
201,A1W94PV0BS6F6O:3MD9PLUKKKL43CV2TFQ1E7Q48YSNZD,4592,136183_-0.35858585858585856.png,4,3,live
202,A1W94PV0BS6F6O:3MD9PLUKKKL43CV2TFQ1E7Q48YSNZD,4406,136189_-0.29797979797979796.png,7,4,live
203,A1W94PV0BS6F6O:3MD9PLUKKKL43CV2TFQ1E7Q48YSNZD,5861,136241_0.2272727272727273.png,3,5,live
204,A1W94PV0BS6F6O:3MD9PLUKKKL43CV2TFQ1E7Q48YSNZD,3932,136179_-0.398989898989899.png,4,6,live
205,A1W94PV0BS6F6O:3MD9PLUKKKL43CV2TFQ1E7Q48YSNZD,4600,136200_-0.18686868686868685.png,6,7,live
206,A1W94PV0BS6F6O:3MD9PLUKKKL43CV2TFQ1E7Q48YSNZD,3468,136220_0.015151515151515249.png,4,8,live
207,A1W94PV0BS6F6O:3MD9PLUKKKL43CV2TFQ1E7Q48YSNZD,6067,136177_-0.41919191919191917.png,6,9,live
208,A1W94PV0BS6F6O:3MD9PLUKKKL43CV2TFQ1E7Q48YSNZD,5771,136256_0.3787878787878789.png,7,10,live
209,A1W94PV0BS6F6O:3MD9PLUKKKL43CV2TFQ1E7Q48YSNZD,5317,136174_-0.4494949494949495.png,3,11,live
210,A1W94PV0BS6F6O:3MD9PLUKKKL43CV2TFQ1E7Q48YSNZD,12813,136229_0.10606060606060608.png,6,13,live
211,A1W94PV0BS6F6O:3MD9PLUKKKL43CV2TFQ1E7Q48YSNZD,4947,136211_-0.07575757575757575.png,3,14,live
212,A1W94PV0BS6F6O:3MD9PLUKKKL43CV2TFQ1E7Q48YSNZD,3843,136246_0.2777777777777778.png,3,15,live
213,A1W94PV0BS6F6O:3MD9PLUKKKL43CV2TFQ1E7Q48YSNZD,4691,136204_-0.1464646464646464.png,6,16,live
214,A1W94PV0BS6F6O:3MD9PLUKKKL43CV2TFQ1E7Q48YSNZD,9201,136238_0.19696969696969702.png,7,17,live
215,A1W94PV0BS6F6O:3MD9PLUKKKL43CV2TFQ1E7Q48YSNZD,5033,136228_0.09595959595959602.png,6,18,live
216,A1W94PV0BS6F6O:3MD9PLUKKKL43CV2TFQ1E7Q48YSNZD,4171,136181_-0.3787878787878788.png,3,19,live
217,A1W94PV0BS6F6O:3MD9PLUKKKL43CV2TFQ1E7Q48YSNZD,5260,136209_-0.09595959595959591.png,2,20,live
218,A1W94PV0BS6F6O:3MD9PLUKKKL43CV2TFQ1E7Q48YSNZD,4170,136195_-0.23737373737373735.png,4,21,live
219,A1W94PV0BS6F6O:3MD9PLUKKKL43CV2TFQ1E7Q48YSNZD,4154,136219_0.005050505050505083.png,3,22,live
220,A1W94PV0BS6F6O:3MD9PLUKKKL43CV2TFQ1E7Q48YSNZD,4489,136226_0.0757575757575758.png,4,24,live
221,A1W94PV0BS6F6O:3MD9PLUKKKL43CV2TFQ1E7Q48YSNZD,5705,136206_-0.12626262626262624.png,7,25,live
222,A1W94PV0BS6F6O:3MD9PLUKKKL43CV2TFQ1E7Q48YSNZD,4502,136264_0.45959595959595967.png,3,26,live
223,A1W94PV0BS6F6O:3MD9PLUKKKL43CV2TFQ1E7Q48YSNZD,4640,136260_0.4191919191919192.png,3,27,live
224,A1W94PV0BS6F6O:3MD9PLUKKKL43CV2TFQ1E7Q48YSNZD,4754,136198_-0.20707070707070707.png,8,28,live
225,A1W94PV0BS6F6O:3MD9PLUKKKL43CV2TFQ1E7Q48YSNZD,5116,136249_0.3080808080808082.png,2,29,live
226,A1W94PV0BS6F6O:3MD9PLUKKKL43CV2TFQ1E7Q48YSNZD,2251,136239_0.20707070707070718.png,3,30,live
227,A1W94PV0BS6F6O:3MD9PLUKKKL43CV2TFQ1E7Q48YSNZD,3424,136251_0.3282828282828284.png,3,31,live
228,A1W94PV0BS6F6O:3MD9PLUKKKL43CV2TFQ1E7Q48YSNZD,9732,136231_0.1262626262626263.png,3,32,live
229,A1W94PV0BS6F6O:3MD9PLUKKKL43CV2TFQ1E7Q48YSNZD,10797,136188_-0.30808080808080807.png,6,33,live
230,A1W94PV0BS6F6O:3MD9PLUKKKL43CV2TFQ1E7Q48YSNZD,2682,136206_-0.12626262626262624.png,6,35,live
231,A1W94PV0BS6F6O:3MD9PLUKKKL43CV2TFQ1E7Q48YSNZD,5010,136203_-0.15656565656565652.png,3,36,live
232,A1W94PV0BS6F6O:3MD9PLUKKKL43CV2TFQ1E7Q48YSNZD,4356,136257_0.38888888888888895.png,2,37,live
233,A1W94PV0BS6F6O:3MD9PLUKKKL43CV2TFQ1E7Q48YSNZD,4383,136222_0.03535353535353536.png,6,38,live
234,A1W94PV0BS6F6O:3MD9PLUKKKL43CV2TFQ1E7Q48YSNZD,5529,136208_-0.10606060606060602.png,7,39,live
235,A1W94PV0BS6F6O:3MD9PLUKKKL43CV2TFQ1E7Q48YSNZD,5042,136172_-0.4696969696969697.png,3,40,live
236,A1W94PV0BS6F6O:3MD9PLUKKKL43CV2TFQ1E7Q48YSNZD,3603,136187_-0.3181818181818182.png,4,41,live
237,A1W94PV0BS6F6O:3MD9PLUKKKL43CV2TFQ1E7Q48YSNZD,6963,136178_-0.40909090909090906.png,2,42,live
238,A1W94PV0BS6F6O:3MD9PLUKKKL43CV2TFQ1E7Q48YSNZD,4903,136215_-0.035353535353535304.png,7,43,live
239,A1W94PV0BS6F6O:3MD9PLUKKKL43CV2TFQ1E7Q48YSNZD,2713,136189_-0.29797979797979796.png,8,44,live
240,A1W94PV0BS6F6O:3MD9PLUKKKL43CV2TFQ1E7Q48YSNZD,4432,136223_0.045454545454545525.png,7,46,live
241,A1W94PV0BS6F6O:3MD9PLUKKKL43CV2TFQ1E7Q48YSNZD,3411,136254_0.3585858585858587.png,3,47,live
242,A1W94PV0BS6F6O:3MD9PLUKKKL43CV2TFQ1E7Q48YSNZD,4331,136255_0.36868686868686873.png,2,48,live
243,A1W94PV0BS6F6O:3MD9PLUKKKL43CV2TFQ1E7Q48YSNZD,3141,136221_0.025252525252525304.png,4,49,live
244,A1W94PV0BS6F6O:3MD9PLUKKKL43CV2TFQ1E7Q48YSNZD,3787,136199_-0.19696969696969696.png,3,50,live
245,A1W94PV0BS6F6O:3MD9PLUKKKL43CV2TFQ1E7Q48YSNZD,2844,136187_-0.3181818181818182.png,2,51,live
246,A1W94PV0BS6F6O:3MD9PLUKKKL43CV2TFQ1E7Q48YSNZD,3723,136265_0.4696969696969697.png,3,52,live
247,A1W94PV0BS6F6O:3MD9PLUKKKL43CV2TFQ1E7Q48YSNZD,2420,136198_-0.20707070707070707.png,8,53,live
248,A1W94PV0BS6F6O:3MD9PLUKKKL43CV2TFQ1E7Q48YSNZD,4394,136259_0.40909090909090917.png,4,54,live
249,A1W94PV0BS6F6O:3MD9PLUKKKL43CV2TFQ1E7Q48YSNZD,2161,136223_0.045454545454545525.png,3,55,live
250,A1W94PV0BS6F6O:3MD9PLUKKKL43CV2TFQ1E7Q48YSNZD,10221,136249_0.3080808080808082.png,3,57,live
251,A1W94PV0BS6F6O:3MD9PLUKKKL43CV2TFQ1E7Q48YSNZD,5105,136261_0.4292929292929294.png,7,58,live
252,A1W94PV0BS6F6O:3MD9PLUKKKL43CV2TFQ1E7Q48YSNZD,5750,136247_0.28787878787878796.png,3,59,live
253,A1W94PV0BS6F6O:3MD9PLUKKKL43CV2TFQ1E7Q48YSNZD,4706,136207_-0.11616161616161613.png,4,60,live
254,A1W94PV0BS6F6O:3MD9PLUKKKL43CV2TFQ1E7Q48YSNZD,2818,136256_0.3787878787878789.png,3,61,live
255,A1W94PV0BS6F6O:3MD9PLUKKKL43CV2TFQ1E7Q48YSNZD,2765,136215_-0.035353535353535304.png,4,62,live
256,A1W94PV0BS6F6O:3MD9PLUKKKL43CV2TFQ1E7Q48YSNZD,6181,136235_0.16666666666666674.png,4,63,live
257,A1W94PV0BS6F6O:3MD9PLUKKKL43CV2TFQ1E7Q48YSNZD,4624,136176_-0.4292929292929293.png,7,64,live
258,A1W94PV0BS6F6O:3MD9PLUKKKL43CV2TFQ1E7Q48YSNZD,3890,136234_0.15656565656565657.png,6,65,live
259,A1W94PV0BS6F6O:3MD9PLUKKKL43CV2TFQ1E7Q48YSNZD,3346,136213_-0.055555555555555525.png,3,66,live
260,A1W94PV0BS6F6O:3MD9PLUKKKL43CV2TFQ1E7Q48YSNZD,4908,136240_0.21717171717171724.png,3,68,live
261,A1W94PV0BS6F6O:3MD9PLUKKKL43CV2TFQ1E7Q48YSNZD,6003,136182_-0.3686868686868687.png,8,69,live
262,A1W94PV0BS6F6O:3MD9PLUKKKL43CV2TFQ1E7Q48YSNZD,4755,136185_-0.33838383838383834.png,2,70,live
263,A1W94PV0BS6F6O:3MD9PLUKKKL43CV2TFQ1E7Q48YSNZD,4672,136175_-0.4393939393939394.png,7,71,live
264,A1W94PV0BS6F6O:3MD9PLUKKKL43CV2TFQ1E7Q48YSNZD,3947,136227_0.08585858585858586.png,3,72,live
265,A1W94PV0BS6F6O:3MD9PLUKKKL43CV2TFQ1E7Q48YSNZD,5745,136258_0.3989898989898991.png,4,73,live
266,A1W94PV0BS6F6O:3MD9PLUKKKL43CV2TFQ1E7Q48YSNZD,3568,136176_-0.4292929292929293.png,7,74,live
267,A1W94PV0BS6F6O:3MD9PLUKKKL43CV2TFQ1E7Q48YSNZD,6345,136237_0.18686868686868696.png,7,75,live
268,A1W94PV0BS6F6O:3MD9PLUKKKL43CV2TFQ1E7Q48YSNZD,3921,136191_-0.2777777777777778.png,3,76,live
269,A1W94PV0BS6F6O:3MD9PLUKKKL43CV2TFQ1E7Q48YSNZD,6250,136196_-0.22727272727272724.png,2,77,live
270,A1W94PV0BS6F6O:3MD9PLUKKKL43CV2TFQ1E7Q48YSNZD,3208,136188_-0.30808080808080807.png,7,79,live
271,A1W94PV0BS6F6O:3MD9PLUKKKL43CV2TFQ1E7Q48YSNZD,4554,136253_0.3484848484848485.png,3,80,live
272,A1W94PV0BS6F6O:3MD9PLUKKKL43CV2TFQ1E7Q48YSNZD,4044,136201_-0.17676767676767674.png,2,81,live
273,A1W94PV0BS6F6O:3MD9PLUKKKL43CV2TFQ1E7Q48YSNZD,5148,136262_0.43939393939393945.png,4,82,live
274,A1W94PV0BS6F6O:3MD9PLUKKKL43CV2TFQ1E7Q48YSNZD,5208,136185_-0.33838383838383834.png,3,83,live
275,A1W94PV0BS6F6O:3MD9PLUKKKL43CV2TFQ1E7Q48YSNZD,3103,136265_0.4696969696969697.png,2,84,live
276,A1W94PV0BS6F6O:3MD9PLUKKKL43CV2TFQ1E7Q48YSNZD,2626,136257_0.38888888888888895.png,3,85,live
277,A1W94PV0BS6F6O:3MD9PLUKKKL43CV2TFQ1E7Q48YSNZD,6121,136259_0.40909090909090917.png,3,86,live
278,A1W94PV0BS6F6O:3MD9PLUKKKL43CV2TFQ1E7Q48YSNZD,2329,136204_-0.1464646464646464.png,4,87,live
279,A1W94PV0BS6F6O:3MD9PLUKKKL43CV2TFQ1E7Q48YSNZD,5446,136268_0.5.png,3,88,live
280,A1W94PV0BS6F6O:3MD9PLUKKKL43CV2TFQ1E7Q48YSNZD,6075,136171_-0.4797979797979798.png,4,90,live
281,A1W94PV0BS6F6O:3MD9PLUKKKL43CV2TFQ1E7Q48YSNZD,10652,136242_0.23737373737373746.png,6,91,live
282,A1W94PV0BS6F6O:3MD9PLUKKKL43CV2TFQ1E7Q48YSNZD,6274,136250_0.31818181818181823.png,3,92,live
283,A1W94PV0BS6F6O:3MD9PLUKKKL43CV2TFQ1E7Q48YSNZD,9243,136202_-0.16666666666666663.png,3,93,live
284,A1W94PV0BS6F6O:3MD9PLUKKKL43CV2TFQ1E7Q48YSNZD,8707,136173_-0.4595959595959596.png,7,94,live
285,A1W94PV0BS6F6O:3MD9PLUKKKL43CV2TFQ1E7Q48YSNZD,7778,136193_-0.25757575757575757.png,7,95,live
286,A1W94PV0BS6F6O:3MD9PLUKKKL43CV2TFQ1E7Q48YSNZD,9523,136184_-0.3484848484848485.png,3,96,live
287,A1W94PV0BS6F6O:3MD9PLUKKKL43CV2TFQ1E7Q48YSNZD,4798,136225_0.06565656565656575.png,8,97,live
288,A1W94PV0BS6F6O:3MD9PLUKKKL43CV2TFQ1E7Q48YSNZD,6105,136170_-0.4898989898989899.png,7,98,live
289,A1W94PV0BS6F6O:3MD9PLUKKKL43CV2TFQ1E7Q48YSNZD,3146,136235_0.16666666666666674.png,3,99,live
290,A1W94PV0BS6F6O:3MD9PLUKKKL43CV2TFQ1E7Q48YSNZD,3076,136231_0.1262626262626263.png,3,101,live
291,A1W94PV0BS6F6O:3MD9PLUKKKL43CV2TFQ1E7Q48YSNZD,4265,136217_-0.015151515151515138.png,4,102,live
292,A1W94PV0BS6F6O:3MD9PLUKKKL43CV2TFQ1E7Q48YSNZD,6335,136169_-0.5.png,3,103,live
293,A1W94PV0BS6F6O:3MD9PLUKKKL43CV2TFQ1E7Q48YSNZD,2962,136181_-0.3787878787878788.png,7,104,live
294,A1W94PV0BS6F6O:3MD9PLUKKKL43CV2TFQ1E7Q48YSNZD,4964,136218_-0.0050505050505050275.png,2,105,live
295,A1W94PV0BS6F6O:3MD9PLUKKKL43CV2TFQ1E7Q48YSNZD,3508,136190_-0.28787878787878785.png,4,106,live
296,A1W94PV0BS6F6O:3MD9PLUKKKL43CV2TFQ1E7Q48YSNZD,3945,136263_0.4494949494949496.png,3,107,live
297,A1W94PV0BS6F6O:3MD9PLUKKKL43CV2TFQ1E7Q48YSNZD,6458,136230_0.11616161616161624.png,3,108,live
298,A1W94PV0BS6F6O:3MD9PLUKKKL43CV2TFQ1E7Q48YSNZD,5322,136252_0.33838383838383845.png,4,109,live
299,A1W94PV0BS6F6O:3MD9PLUKKKL43CV2TFQ1E7Q48YSNZD,8258,136171_-0.4797979797979798.png,6,110,live
300,A11OMSKWLHDMZ8:34J10VATJH53BJJK93UWI6IJHWDQI6,4290,136262_0.43939393939393945.png,6,2,live
301,A11OMSKWLHDMZ8:34J10VATJH53BJJK93UWI6IJHWDQI6,4372,136228_0.09595959595959602.png,1,3,live
302,A11OMSKWLHDMZ8:34J10VATJH53BJJK93UWI6IJHWDQI6,13149,136238_0.19696969696969702.png,7,4,live
303,A11OMSKWLHDMZ8:34J10VATJH53BJJK93UWI6IJHWDQI6,10670,136261_0.4292929292929294.png,6,5,live
304,A11OMSKWLHDMZ8:34J10VATJH53BJJK93UWI6IJHWDQI6,5343,136172_-0.4696969696969697.png,5,6,live
305,A11OMSKWLHDMZ8:34J10VATJH53BJJK93UWI6IJHWDQI6,5589,136188_-0.30808080808080807.png,4,7,live
306,A11OMSKWLHDMZ8:34J10VATJH53BJJK93UWI6IJHWDQI6,7230,136171_-0.4797979797979798.png,7,8,live
307,A11OMSKWLHDMZ8:34J10VATJH53BJJK93UWI6IJHWDQI6,8990,136223_0.045454545454545525.png,2,9,live
308,A11OMSKWLHDMZ8:34J10VATJH53BJJK93UWI6IJHWDQI6,6887,136226_0.0757575757575758.png,8,10,live
309,A11OMSKWLHDMZ8:34J10VATJH53BJJK93UWI6IJHWDQI6,6964,136252_0.33838383838383845.png,7,11,live
310,A11OMSKWLHDMZ8:34J10VATJH53BJJK93UWI6IJHWDQI6,9842,136173_-0.4595959595959596.png,9,13,live
311,A11OMSKWLHDMZ8:34J10VATJH53BJJK93UWI6IJHWDQI6,8854,136196_-0.22727272727272724.png,7,14,live
312,A11OMSKWLHDMZ8:34J10VATJH53BJJK93UWI6IJHWDQI6,8429,136206_-0.12626262626262624.png,7,15,live
313,A11OMSKWLHDMZ8:34J10VATJH53BJJK93UWI6IJHWDQI6,5540,136249_0.3080808080808082.png,5,16,live
314,A11OMSKWLHDMZ8:34J10VATJH53BJJK93UWI6IJHWDQI6,6222,136217_-0.015151515151515138.png,4,17,live
315,A11OMSKWLHDMZ8:34J10VATJH53BJJK93UWI6IJHWDQI6,11582,136218_-0.0050505050505050275.png,8,18,live
316,A11OMSKWLHDMZ8:34J10VATJH53BJJK93UWI6IJHWDQI6,8222,136171_-0.4797979797979798.png,5,19,live
317,A11OMSKWLHDMZ8:34J10VATJH53BJJK93UWI6IJHWDQI6,5357,136200_-0.18686868686868685.png,3,20,live
318,A11OMSKWLHDMZ8:34J10VATJH53BJJK93UWI6IJHWDQI6,5814,136231_0.1262626262626263.png,2,21,live
319,A11OMSKWLHDMZ8:34J10VATJH53BJJK93UWI6IJHWDQI6,8270,136179_-0.398989898989899.png,9,22,live
320,A11OMSKWLHDMZ8:34J10VATJH53BJJK93UWI6IJHWDQI6,5406,136221_0.025252525252525304.png,1,24,live
321,A11OMSKWLHDMZ8:34J10VATJH53BJJK93UWI6IJHWDQI6,8249,136195_-0.23737373737373735.png,2,25,live
322,A11OMSKWLHDMZ8:34J10VATJH53BJJK93UWI6IJHWDQI6,3711,136177_-0.41919191919191917.png,8,26,live
323,A11OMSKWLHDMZ8:34J10VATJH53BJJK93UWI6IJHWDQI6,3702,136207_-0.11616161616161613.png,9,27,live
324,A11OMSKWLHDMZ8:34J10VATJH53BJJK93UWI6IJHWDQI6,3580,136201_-0.17676767676767674.png,1,28,live
325,A11OMSKWLHDMZ8:34J10VATJH53BJJK93UWI6IJHWDQI6,3054,136203_-0.15656565656565652.png,2,29,live
326,A11OMSKWLHDMZ8:34J10VATJH53BJJK93UWI6IJHWDQI6,3093,136239_0.20707070707070718.png,3,30,live
327,A11OMSKWLHDMZ8:34J10VATJH53BJJK93UWI6IJHWDQI6,8413,136255_0.36868686868686873.png,5,31,live
328,A11OMSKWLHDMZ8:34J10VATJH53BJJK93UWI6IJHWDQI6,3190,136189_-0.29797979797979796.png,6,32,live
329,A11OMSKWLHDMZ8:34J10VATJH53BJJK93UWI6IJHWDQI6,6076,136208_-0.10606060606060602.png,7,33,live
330,A11OMSKWLHDMZ8:34J10VATJH53BJJK93UWI6IJHWDQI6,3963,136181_-0.3787878787878788.png,1,35,live
331,A11OMSKWLHDMZ8:34J10VATJH53BJJK93UWI6IJHWDQI6,3470,136234_0.15656565656565657.png,9,36,live
332,A11OMSKWLHDMZ8:34J10VATJH53BJJK93UWI6IJHWDQI6,2662,136223_0.045454545454545525.png,8,37,live
333,A11OMSKWLHDMZ8:34J10VATJH53BJJK93UWI6IJHWDQI6,3039,136211_-0.07575757575757575.png,2,38,live
334,A11OMSKWLHDMZ8:34J10VATJH53BJJK93UWI6IJHWDQI6,2629,136204_-0.1464646464646464.png,3,39,live
335,A11OMSKWLHDMZ8:34J10VATJH53BJJK93UWI6IJHWDQI6,3334,136264_0.45959595959595967.png,7,40,live
336,A11OMSKWLHDMZ8:34J10VATJH53BJJK93UWI6IJHWDQI6,97709,136202_-0.16666666666666663.png,6,41,live
337,A11OMSKWLHDMZ8:34J10VATJH53BJJK93UWI6IJHWDQI6,2277,136187_-0.3181818181818182.png,1,42,live
338,A11OMSKWLHDMZ8:34J10VATJH53BJJK93UWI6IJHWDQI6,2254,136183_-0.35858585858585856.png,2,43,live
339,A11OMSKWLHDMZ8:34J10VATJH53BJJK93UWI6IJHWDQI6,1645,136249_0.3080808080808082.png,3,44,live
340,A11OMSKWLHDMZ8:34J10VATJH53BJJK93UWI6IJHWDQI6,7004,136170_-0.4898989898989899.png,1,46,live
341,A11OMSKWLHDMZ8:34J10VATJH53BJJK93UWI6IJHWDQI6,2197,136229_0.10606060606060608.png,9,47,live
342,A11OMSKWLHDMZ8:34J10VATJH53BJJK93UWI6IJHWDQI6,2341,136254_0.3585858585858587.png,7,48,live
343,A11OMSKWLHDMZ8:34J10VATJH53BJJK93UWI6IJHWDQI6,8910,136231_0.1262626262626263.png,8,49,live
344,A11OMSKWLHDMZ8:34J10VATJH53BJJK93UWI6IJHWDQI6,5093,136181_-0.3787878787878788.png,3,50,live
345,A11OMSKWLHDMZ8:34J10VATJH53BJJK93UWI6IJHWDQI6,12910,136230_0.11616161616161624.png,2,51,live
346,A11OMSKWLHDMZ8:34J10VATJH53BJJK93UWI6IJHWDQI6,4173,136182_-0.3686868686868687.png,5,52,live
347,A11OMSKWLHDMZ8:34J10VATJH53BJJK93UWI6IJHWDQI6,3270,136265_0.4696969696969697.png,6,53,live
348,A11OMSKWLHDMZ8:34J10VATJH53BJJK93UWI6IJHWDQI6,2949,136213_-0.055555555555555525.png,4,54,live
349,A11OMSKWLHDMZ8:34J10VATJH53BJJK93UWI6IJHWDQI6,4942,136178_-0.40909090909090906.png,7,55,live
350,A11OMSKWLHDMZ8:34J10VATJH53BJJK93UWI6IJHWDQI6,3868,136225_0.06565656565656575.png,1,57,live
351,A11OMSKWLHDMZ8:34J10VATJH53BJJK93UWI6IJHWDQI6,2986,136190_-0.28787878787878785.png,4,58,live
352,A11OMSKWLHDMZ8:34J10VATJH53BJJK93UWI6IJHWDQI6,4630,136256_0.3787878787878789.png,8,59,live
353,A11OMSKWLHDMZ8:34J10VATJH53BJJK93UWI6IJHWDQI6,3742,136222_0.03535353535353536.png,2,60,live
354,A11OMSKWLHDMZ8:34J10VATJH53BJJK93UWI6IJHWDQI6,3550,136219_0.005050505050505083.png,5,61,live
355,A11OMSKWLHDMZ8:34J10VATJH53BJJK93UWI6IJHWDQI6,6678,136220_0.015151515151515249.png,9,62,live
356,A11OMSKWLHDMZ8:34J10VATJH53BJJK93UWI6IJHWDQI6,14821,136176_-0.4292929292929293.png,3,63,live
357,A11OMSKWLHDMZ8:34J10VATJH53BJJK93UWI6IJHWDQI6,5975,136241_0.2272727272727273.png,7,64,live
358,A11OMSKWLHDMZ8:34J10VATJH53BJJK93UWI6IJHWDQI6,3324,136246_0.2777777777777778.png,9,65,live
359,A11OMSKWLHDMZ8:34J10VATJH53BJJK93UWI6IJHWDQI6,4182,136235_0.16666666666666674.png,5,66,live
360,A11OMSKWLHDMZ8:34J10VATJH53BJJK93UWI6IJHWDQI6,3020,136184_-0.3484848484848485.png,2,68,live
361,A11OMSKWLHDMZ8:34J10VATJH53BJJK93UWI6IJHWDQI6,4156,136251_0.3282828282828284.png,7,69,live
362,A11OMSKWLHDMZ8:34J10VATJH53BJJK93UWI6IJHWDQI6,10199,136240_0.21717171717171724.png,1,70,live
363,A11OMSKWLHDMZ8:34J10VATJH53BJJK93UWI6IJHWDQI6,5262,136257_0.38888888888888895.png,8,71,live
364,A11OMSKWLHDMZ8:34J10VATJH53BJJK93UWI6IJHWDQI6,5102,136193_-0.25757575757575757.png,3,72,live
365,A11OMSKWLHDMZ8:34J10VATJH53BJJK93UWI6IJHWDQI6,6581,136188_-0.30808080808080807.png,5,73,live
366,A11OMSKWLHDMZ8:34J10VATJH53BJJK93UWI6IJHWDQI6,3702,136227_0.08585858585858586.png,4,74,live
367,A11OMSKWLHDMZ8:34J10VATJH53BJJK93UWI6IJHWDQI6,3158,136185_-0.33838383838383834.png,9,75,live
368,A11OMSKWLHDMZ8:34J10VATJH53BJJK93UWI6IJHWDQI6,3829,136257_0.38888888888888895.png,6,76,live
369,A11OMSKWLHDMZ8:34J10VATJH53BJJK93UWI6IJHWDQI6,3005,136258_0.3989898989898991.png,5,77,live
370,A11OMSKWLHDMZ8:34J10VATJH53BJJK93UWI6IJHWDQI6,6364,136176_-0.4292929292929293.png,1,79,live
371,A11OMSKWLHDMZ8:34J10VATJH53BJJK93UWI6IJHWDQI6,3278,136174_-0.4494949494949495.png,9,80,live
372,A11OMSKWLHDMZ8:34J10VATJH53BJJK93UWI6IJHWDQI6,6623,136235_0.16666666666666674.png,3,81,live
373,A11OMSKWLHDMZ8:34J10VATJH53BJJK93UWI6IJHWDQI6,5461,136198_-0.20707070707070707.png,7,82,live
374,A11OMSKWLHDMZ8:34J10VATJH53BJJK93UWI6IJHWDQI6,3205,136265_0.4696969696969697.png,8,83,live
375,A11OMSKWLHDMZ8:34J10VATJH53BJJK93UWI6IJHWDQI6,3222,136209_-0.09595959595959591.png,2,84,live
376,A11OMSKWLHDMZ8:34J10VATJH53BJJK93UWI6IJHWDQI6,4061,136242_0.23737373737373746.png,4,85,live
377,A11OMSKWLHDMZ8:34J10VATJH53BJJK93UWI6IJHWDQI6,2350,136259_0.40909090909090917.png,7,86,live
378,A11OMSKWLHDMZ8:34J10VATJH53BJJK93UWI6IJHWDQI6,2086,136189_-0.29797979797979796.png,6,87,live
379,A11OMSKWLHDMZ8:34J10VATJH53BJJK93UWI6IJHWDQI6,3094,136199_-0.19696969696969696.png,5,88,live
380,A11OMSKWLHDMZ8:34J10VATJH53BJJK93UWI6IJHWDQI6,3181,136263_0.4494949494949496.png,1,90,live
381,A11OMSKWLHDMZ8:34J10VATJH53BJJK93UWI6IJHWDQI6,9399,136191_-0.2777777777777778.png,3,91,live
382,A11OMSKWLHDMZ8:34J10VATJH53BJJK93UWI6IJHWDQI6,4096,136268_0.5.png,2,92,live
383,A11OMSKWLHDMZ8:34J10VATJH53BJJK93UWI6IJHWDQI6,2573,136187_-0.3181818181818182.png,9,93,live
384,A11OMSKWLHDMZ8:34J10VATJH53BJJK93UWI6IJHWDQI6,2614,136204_-0.1464646464646464.png,7,94,live
385,A11OMSKWLHDMZ8:34J10VATJH53BJJK93UWI6IJHWDQI6,2589,136239_0.20707070707070718.png,8,95,live
386,A11OMSKWLHDMZ8:34J10VATJH53BJJK93UWI6IJHWDQI6,2087,136259_0.40909090909090917.png,6,96,live
387,A11OMSKWLHDMZ8:34J10VATJH53BJJK93UWI6IJHWDQI6,2243,136198_-0.20707070707070707.png,4,97,live
388,A11OMSKWLHDMZ8:34J10VATJH53BJJK93UWI6IJHWDQI6,1820,136250_0.31818181818181823.png,5,98,live
389,A11OMSKWLHDMZ8:34J10VATJH53BJJK93UWI6IJHWDQI6,4300,136206_-0.12626262626262624.png,1,99,live
390,A11OMSKWLHDMZ8:34J10VATJH53BJJK93UWI6IJHWDQI6,2711,136215_-0.035353535353535304.png,1,101,live
391,A11OMSKWLHDMZ8:34J10VATJH53BJJK93UWI6IJHWDQI6,1964,136185_-0.33838383838383834.png,5,102,live
392,A11OMSKWLHDMZ8:34J10VATJH53BJJK93UWI6IJHWDQI6,2614,136169_-0.5.png,7,103,live
393,A11OMSKWLHDMZ8:34J10VATJH53BJJK93UWI6IJHWDQI6,2357,136215_-0.035353535353535304.png,4,104,live
394,A11OMSKWLHDMZ8:34J10VATJH53BJJK93UWI6IJHWDQI6,9565,136253_0.3484848484848485.png,8,105,live
395,A11OMSKWLHDMZ8:34J10VATJH53BJJK93UWI6IJHWDQI6,3422,136247_0.28787878787878796.png,2,106,live
396,A11OMSKWLHDMZ8:34J10VATJH53BJJK93UWI6IJHWDQI6,3157,136256_0.3787878787878789.png,4,107,live
397,A11OMSKWLHDMZ8:34J10VATJH53BJJK93UWI6IJHWDQI6,2534,136237_0.18686868686868696.png,3,108,live
398,A11OMSKWLHDMZ8:34J10VATJH53BJJK93UWI6IJHWDQI6,2462,136175_-0.4393939393939394.png,6,109,live
399,A11OMSKWLHDMZ8:34J10VATJH53BJJK93UWI6IJHWDQI6,3821,136260_0.4191919191919192.png,5,110,live
400,A3NJL0QTMITH08:3Q8GYXHFER9N5UEMX1A79SPX8V7C5E,5422,136178_-0.40909090909090906.png,5,4,live
401,A3NJL0QTMITH08:3Q8GYXHFER9N5UEMX1A79SPX8V7C5E,4179,136177_-0.41919191919191917.png,3,5,live
402,A3NJL0QTMITH08:3Q8GYXHFER9N5UEMX1A79SPX8V7C5E,5420,136199_-0.19696969696969696.png,2,6,live
403,A3NJL0QTMITH08:3Q8GYXHFER9N5UEMX1A79SPX8V7C5E,7599,136217_-0.015151515151515138.png,1,7,live
404,A3NJL0QTMITH08:3Q8GYXHFER9N5UEMX1A79SPX8V7C5E,15154,136218_-0.0050505050505050275.png,6,8,live
405,A3NJL0QTMITH08:3Q8GYXHFER9N5UEMX1A79SPX8V7C5E,5149,136185_-0.33838383838383834.png,5,9,live
406,A3NJL0QTMITH08:3Q8GYXHFER9N5UEMX1A79SPX8V7C5E,6690,136181_-0.3787878787878788.png,8,10,live
407,A3NJL0QTMITH08:3Q8GYXHFER9N5UEMX1A79SPX8V7C5E,6918,136190_-0.28787878787878785.png,9,11,live
408,A3NJL0QTMITH08:3Q8GYXHFER9N5UEMX1A79SPX8V7C5E,6181,136251_0.3282828282828284.png,5,12,live
409,A3NJL0QTMITH08:3Q8GYXHFER9N5UEMX1A79SPX8V7C5E,6379,136249_0.3080808080808082.png,7,13,live
410,A3NJL0QTMITH08:3Q8GYXHFER9N5UEMX1A79SPX8V7C5E,3029,136185_-0.33838383838383834.png,4,15,live
411,A3NJL0QTMITH08:3Q8GYXHFER9N5UEMX1A79SPX8V7C5E,4759,136262_0.43939393939393945.png,3,16,live
412,A3NJL0QTMITH08:3Q8GYXHFER9N5UEMX1A79SPX8V7C5E,7251,136231_0.1262626262626263.png,2,17,live
413,A3NJL0QTMITH08:3Q8GYXHFER9N5UEMX1A79SPX8V7C5E,26166,136170_-0.4898989898989899.png,4,18,live
414,A3NJL0QTMITH08:3Q8GYXHFER9N5UEMX1A79SPX8V7C5E,38807,136203_-0.15656565656565652.png,5,19,live
415,A3NJL0QTMITH08:3Q8GYXHFER9N5UEMX1A79SPX8V7C5E,4395,136260_0.4191919191919192.png,6,20,live
416,A3NJL0QTMITH08:3Q8GYXHFER9N5UEMX1A79SPX8V7C5E,6342,136228_0.09595959595959602.png,8,21,live
417,A3NJL0QTMITH08:3Q8GYXHFER9N5UEMX1A79SPX8V7C5E,4708,136219_0.005050505050505083.png,4,22,live
418,A3NJL0QTMITH08:3Q8GYXHFER9N5UEMX1A79SPX8V7C5E,7439,136171_-0.4797979797979798.png,7,23,live
419,A3NJL0QTMITH08:3Q8GYXHFER9N5UEMX1A79SPX8V7C5E,6238,136184_-0.3484848484848485.png,5,24,live
420,A3NJL0QTMITH08:3Q8GYXHFER9N5UEMX1A79SPX8V7C5E,6899,136213_-0.055555555555555525.png,8,26,live
421,A3NJL0QTMITH08:3Q8GYXHFER9N5UEMX1A79SPX8V7C5E,9380,136259_0.40909090909090917.png,9,27,live
422,A3NJL0QTMITH08:3Q8GYXHFER9N5UEMX1A79SPX8V7C5E,5278,136231_0.1262626262626263.png,7,28,live
423,A3NJL0QTMITH08:3Q8GYXHFER9N5UEMX1A79SPX8V7C5E,4798,136238_0.19696969696969702.png,5,29,live
424,A3NJL0QTMITH08:3Q8GYXHFER9N5UEMX1A79SPX8V7C5E,7052,136268_0.5.png,8,30,live
425,A3NJL0QTMITH08:3Q8GYXHFER9N5UEMX1A79SPX8V7C5E,4520,136249_0.3080808080808082.png,5,31,live
426,A3NJL0QTMITH08:3Q8GYXHFER9N5UEMX1A79SPX8V7C5E,7064,136264_0.45959595959595967.png,3,32,live
427,A3NJL0QTMITH08:3Q8GYXHFER9N5UEMX1A79SPX8V7C5E,6957,136239_0.20707070707070718.png,2,33,live
428,A3NJL0QTMITH08:3Q8GYXHFER9N5UEMX1A79SPX8V7C5E,8165,136241_0.2272727272727273.png,5,34,live
429,A3NJL0QTMITH08:3Q8GYXHFER9N5UEMX1A79SPX8V7C5E,6254,136258_0.3989898989898991.png,9,35,live
430,A3NJL0QTMITH08:3Q8GYXHFER9N5UEMX1A79SPX8V7C5E,8817,136215_-0.035353535353535304.png,2,37,live
431,A3NJL0QTMITH08:3Q8GYXHFER9N5UEMX1A79SPX8V7C5E,10141,136227_0.08585858585858586.png,8,38,live
432,A3NJL0QTMITH08:3Q8GYXHFER9N5UEMX1A79SPX8V7C5E,3017,136171_-0.4797979797979798.png,3,39,live
433,A3NJL0QTMITH08:3Q8GYXHFER9N5UEMX1A79SPX8V7C5E,3720,136261_0.4292929292929294.png,1,40,live
434,A3NJL0QTMITH08:3Q8GYXHFER9N5UEMX1A79SPX8V7C5E,6555,136188_-0.30808080808080807.png,2,41,live
435,A3NJL0QTMITH08:3Q8GYXHFER9N5UEMX1A79SPX8V7C5E,5287,136263_0.4494949494949496.png,4,42,live
436,A3NJL0QTMITH08:3Q8GYXHFER9N5UEMX1A79SPX8V7C5E,7246,136196_-0.22727272727272724.png,9,43,live
437,A3NJL0QTMITH08:3Q8GYXHFER9N5UEMX1A79SPX8V7C5E,7858,136230_0.11616161616161624.png,4,44,live
438,A3NJL0QTMITH08:3Q8GYXHFER9N5UEMX1A79SPX8V7C5E,4798,136255_0.36868686868686873.png,3,45,live
439,A3NJL0QTMITH08:3Q8GYXHFER9N5UEMX1A79SPX8V7C5E,11995,136250_0.31818181818181823.png,2,46,live
440,A3NJL0QTMITH08:3Q8GYXHFER9N5UEMX1A79SPX8V7C5E,14674,136202_-0.16666666666666663.png,1,48,live
441,A3NJL0QTMITH08:3Q8GYXHFER9N5UEMX1A79SPX8V7C5E,8797,136206_-0.12626262626262624.png,7,49,live
442,A3NJL0QTMITH08:3Q8GYXHFER9N5UEMX1A79SPX8V7C5E,4901,136246_0.2777777777777778.png,9,50,live
443,A3NJL0QTMITH08:3Q8GYXHFER9N5UEMX1A79SPX8V7C5E,7325,136240_0.21717171717171724.png,4,51,live
444,A3NJL0QTMITH08:3Q8GYXHFER9N5UEMX1A79SPX8V7C5E,5965,136237_0.18686868686868696.png,3,52,live
445,A3NJL0QTMITH08:3Q8GYXHFER9N5UEMX1A79SPX8V7C5E,4745,136223_0.045454545454545525.png,6,53,live
446,A3NJL0QTMITH08:3Q8GYXHFER9N5UEMX1A79SPX8V7C5E,15097,136254_0.3585858585858587.png,4,54,live
447,A3NJL0QTMITH08:3Q8GYXHFER9N5UEMX1A79SPX8V7C5E,9228,136221_0.025252525252525304.png,2,55,live
448,A3NJL0QTMITH08:3Q8GYXHFER9N5UEMX1A79SPX8V7C5E,8662,136195_-0.23737373737373735.png,1,56,live
449,A3NJL0QTMITH08:3Q8GYXHFER9N5UEMX1A79SPX8V7C5E,8149,136201_-0.17676767676767674.png,3,57,live
450,A3NJL0QTMITH08:3Q8GYXHFER9N5UEMX1A79SPX8V7C5E,11079,136235_0.16666666666666674.png,5,59,live
451,A3NJL0QTMITH08:3Q8GYXHFER9N5UEMX1A79SPX8V7C5E,6093,136169_-0.5.png,3,60,live
452,A3NJL0QTMITH08:3Q8GYXHFER9N5UEMX1A79SPX8V7C5E,5468,136225_0.06565656565656575.png,6,61,live
453,A3NJL0QTMITH08:3Q8GYXHFER9N5UEMX1A79SPX8V7C5E,4335,136200_-0.18686868686868685.png,7,62,live
454,A3NJL0QTMITH08:3Q8GYXHFER9N5UEMX1A79SPX8V7C5E,10707,136174_-0.4494949494949495.png,2,63,live
455,A3NJL0QTMITH08:3Q8GYXHFER9N5UEMX1A79SPX8V7C5E,6806,136220_0.015151515151515249.png,4,64,live
456,A3NJL0QTMITH08:3Q8GYXHFER9N5UEMX1A79SPX8V7C5E,6220,136182_-0.3686868686868687.png,1,65,live
457,A3NJL0QTMITH08:3Q8GYXHFER9N5UEMX1A79SPX8V7C5E,5934,136191_-0.2777777777777778.png,6,66,live
458,A3NJL0QTMITH08:3Q8GYXHFER9N5UEMX1A79SPX8V7C5E,7898,136215_-0.035353535353535304.png,7,67,live
459,A3NJL0QTMITH08:3Q8GYXHFER9N5UEMX1A79SPX8V7C5E,6492,136211_-0.07575757575757575.png,1,68,live
460,A3NJL0QTMITH08:3Q8GYXHFER9N5UEMX1A79SPX8V7C5E,4354,136173_-0.4595959595959596.png,9,70,live
461,A3NJL0QTMITH08:3Q8GYXHFER9N5UEMX1A79SPX8V7C5E,5004,136208_-0.10606060606060602.png,3,71,live
462,A3NJL0QTMITH08:3Q8GYXHFER9N5UEMX1A79SPX8V7C5E,5221,136226_0.0757575757575758.png,2,72,live
463,A3NJL0QTMITH08:3Q8GYXHFER9N5UEMX1A79SPX8V7C5E,5244,136198_-0.20707070707070707.png,4,73,live
464,A3NJL0QTMITH08:3Q8GYXHFER9N5UEMX1A79SPX8V7C5E,4348,136247_0.28787878787878796.png,8,74,live
465,A3NJL0QTMITH08:3Q8GYXHFER9N5UEMX1A79SPX8V7C5E,5881,136175_-0.4393939393939394.png,7,75,live
466,A3NJL0QTMITH08:3Q8GYXHFER9N5UEMX1A79SPX8V7C5E,4518,136189_-0.29797979797979796.png,5,76,live
467,A3NJL0QTMITH08:3Q8GYXHFER9N5UEMX1A79SPX8V7C5E,9838,136265_0.4696969696969697.png,9,77,live
468,A3NJL0QTMITH08:3Q8GYXHFER9N5UEMX1A79SPX8V7C5E,4213,136235_0.16666666666666674.png,2,78,live
469,A3NJL0QTMITH08:3Q8GYXHFER9N5UEMX1A79SPX8V7C5E,5678,136207_-0.11616161616161613.png,1,79,live
470,A3NJL0QTMITH08:3Q8GYXHFER9N5UEMX1A79SPX8V7C5E,4584,136253_0.3484848484848485.png,3,81,live
471,A3NJL0QTMITH08:3Q8GYXHFER9N5UEMX1A79SPX8V7C5E,4539,136181_-0.3787878787878788.png,2,82,live
472,A3NJL0QTMITH08:3Q8GYXHFER9N5UEMX1A79SPX8V7C5E,4609,136204_-0.1464646464646464.png,5,83,live
473,A3NJL0QTMITH08:3Q8GYXHFER9N5UEMX1A79SPX8V7C5E,6310,136252_0.33838383838383845.png,2,84,live
474,A3NJL0QTMITH08:3Q8GYXHFER9N5UEMX1A79SPX8V7C5E,4403,136193_-0.25757575757575757.png,7,85,live
475,A3NJL0QTMITH08:3Q8GYXHFER9N5UEMX1A79SPX8V7C5E,6532,136234_0.15656565656565657.png,9,86,live
476,A3NJL0QTMITH08:3Q8GYXHFER9N5UEMX1A79SPX8V7C5E,6588,136183_-0.35858585858585856.png,4,87,live
477,A3NJL0QTMITH08:3Q8GYXHFER9N5UEMX1A79SPX8V7C5E,5253,136239_0.20707070707070718.png,5,88,live
478,A3NJL0QTMITH08:3Q8GYXHFER9N5UEMX1A79SPX8V7C5E,8083,136242_0.23737373737373746.png,6,89,live
479,A3NJL0QTMITH08:3Q8GYXHFER9N5UEMX1A79SPX8V7C5E,7454,136209_-0.09595959595959591.png,4,90,live
480,A3NJL0QTMITH08:3Q8GYXHFER9N5UEMX1A79SPX8V7C5E,6968,136259_0.40909090909090917.png,9,92,live
481,A3NJL0QTMITH08:3Q8GYXHFER9N5UEMX1A79SPX8V7C5E,6836,136176_-0.4292929292929293.png,3,93,live
482,A3NJL0QTMITH08:3Q8GYXHFER9N5UEMX1A79SPX8V7C5E,4102,136189_-0.29797979797979796.png,2,94,live
483,A3NJL0QTMITH08:3Q8GYXHFER9N5UEMX1A79SPX8V7C5E,7500,136188_-0.30808080808080807.png,1,95,live
484,A3NJL0QTMITH08:3Q8GYXHFER9N5UEMX1A79SPX8V7C5E,4935,136179_-0.398989898989899.png,7,96,live
485,A3NJL0QTMITH08:3Q8GYXHFER9N5UEMX1A79SPX8V7C5E,4414,136198_-0.20707070707070707.png,2,97,live
486,A3NJL0QTMITH08:3Q8GYXHFER9N5UEMX1A79SPX8V7C5E,3453,136176_-0.4292929292929293.png,1,98,live
487,A3NJL0QTMITH08:3Q8GYXHFER9N5UEMX1A79SPX8V7C5E,13533,136222_0.03535353535353536.png,3,99,live
488,A3NJL0QTMITH08:3Q8GYXHFER9N5UEMX1A79SPX8V7C5E,6948,136172_-0.4696969696969697.png,5,100,live
489,A3NJL0QTMITH08:3Q8GYXHFER9N5UEMX1A79SPX8V7C5E,3858,136223_0.045454545454545525.png,7,101,live
490,A3NJL0QTMITH08:3Q8GYXHFER9N5UEMX1A79SPX8V7C5E,4309,136187_-0.3181818181818182.png,2,103,live
491,A3NJL0QTMITH08:3Q8GYXHFER9N5UEMX1A79SPX8V7C5E,7703,136187_-0.3181818181818182.png,3,104,live
492,A3NJL0QTMITH08:3Q8GYXHFER9N5UEMX1A79SPX8V7C5E,5514,136257_0.38888888888888895.png,2,105,live
493,A3NJL0QTMITH08:3Q8GYXHFER9N5UEMX1A79SPX8V7C5E,4587,136256_0.3787878787878789.png,6,106,live
494,A3NJL0QTMITH08:3Q8GYXHFER9N5UEMX1A79SPX8V7C5E,6708,136256_0.3787878787878789.png,6,107,live
495,A3NJL0QTMITH08:3Q8GYXHFER9N5UEMX1A79SPX8V7C5E,5082,136229_0.10606060606060608.png,3,108,live
496,A3NJL0QTMITH08:3Q8GYXHFER9N5UEMX1A79SPX8V7C5E,4193,136265_0.4696969696969697.png,4,109,live
497,A3NJL0QTMITH08:3Q8GYXHFER9N5UEMX1A79SPX8V7C5E,6896,136257_0.38888888888888895.png,1,110,live
498,A3NJL0QTMITH08:3Q8GYXHFER9N5UEMX1A79SPX8V7C5E,10289,136206_-0.12626262626262624.png,7,111,live
499,A3NJL0QTMITH08:3Q8GYXHFER9N5UEMX1A79SPX8V7C5E,5967,136204_-0.1464646464646464.png,8,112,live
500,A2C7TMRC2QHTIW:3QBD8R3Z23Q6I07P910OZ0D0XDU4OX,2640,136226_0.0757575757575758.png,5,2,live
501,A2C7TMRC2QHTIW:3QBD8R3Z23Q6I07P910OZ0D0XDU4OX,3026,136176_-0.4292929292929293.png,3,3,live
502,A2C7TMRC2QHTIW:3QBD8R3Z23Q6I07P910OZ0D0XDU4OX,1973,136241_0.2272727272727273.png,5,4,live
503,A2C7TMRC2QHTIW:3QBD8R3Z23Q6I07P910OZ0D0XDU4OX,1413,136203_-0.15656565656565652.png,6,5,live
504,A2C7TMRC2QHTIW:3QBD8R3Z23Q6I07P910OZ0D0XDU4OX,1827,136231_0.1262626262626263.png,1,6,live
505,A2C7TMRC2QHTIW:3QBD8R3Z23Q6I07P910OZ0D0XDU4OX,1948,136204_-0.1464646464646464.png,6,7,live
506,A2C7TMRC2QHTIW:3QBD8R3Z23Q6I07P910OZ0D0XDU4OX,1755,136262_0.43939393939393945.png,8,8,live
507,A2C7TMRC2QHTIW:3QBD8R3Z23Q6I07P910OZ0D0XDU4OX,1283,136227_0.08585858585858586.png,8,9,live
508,A2C7TMRC2QHTIW:3QBD8R3Z23Q6I07P910OZ0D0XDU4OX,1555,136256_0.3787878787878789.png,5,10,live
509,A2C7TMRC2QHTIW:3QBD8R3Z23Q6I07P910OZ0D0XDU4OX,2178,136207_-0.11616161616161613.png,6,11,live
510,A2C7TMRC2QHTIW:3QBD8R3Z23Q6I07P910OZ0D0XDU4OX,1976,136258_0.3989898989898991.png,5,13,live
511,A2C7TMRC2QHTIW:3QBD8R3Z23Q6I07P910OZ0D0XDU4OX,2123,136215_-0.035353535353535304.png,6,14,live
512,A2C7TMRC2QHTIW:3QBD8R3Z23Q6I07P910OZ0D0XDU4OX,1675,136191_-0.2777777777777778.png,1,15,live
513,A2C7TMRC2QHTIW:3QBD8R3Z23Q6I07P910OZ0D0XDU4OX,1541,136242_0.23737373737373746.png,6,16,live
514,A2C7TMRC2QHTIW:3QBD8R3Z23Q6I07P910OZ0D0XDU4OX,1606,136196_-0.22727272727272724.png,7,17,live
515,A2C7TMRC2QHTIW:3QBD8R3Z23Q6I07P910OZ0D0XDU4OX,1735,136235_0.16666666666666674.png,5,18,live
516,A2C7TMRC2QHTIW:3QBD8R3Z23Q6I07P910OZ0D0XDU4OX,1564,136200_-0.18686868686868685.png,6,19,live
517,A2C7TMRC2QHTIW:3QBD8R3Z23Q6I07P910OZ0D0XDU4OX,2148,136257_0.38888888888888895.png,4,20,live
518,A2C7TMRC2QHTIW:3QBD8R3Z23Q6I07P910OZ0D0XDU4OX,2058,136170_-0.4898989898989899.png,4,21,live
519,A2C7TMRC2QHTIW:3QBD8R3Z23Q6I07P910OZ0D0XDU4OX,1772,136219_0.005050505050505083.png,5,22,live
520,A2C7TMRC2QHTIW:3QBD8R3Z23Q6I07P910OZ0D0XDU4OX,1542,136183_-0.35858585858585856.png,5,24,live
521,A2C7TMRC2QHTIW:3QBD8R3Z23Q6I07P910OZ0D0XDU4OX,1441,136247_0.28787878787878796.png,6,25,live
522,A2C7TMRC2QHTIW:3QBD8R3Z23Q6I07P910OZ0D0XDU4OX,2827,136220_0.015151515151515249.png,8,26,live
523,A2C7TMRC2QHTIW:3QBD8R3Z23Q6I07P910OZ0D0XDU4OX,1267,136223_0.045454545454545525.png,8,27,live
524,A2C7TMRC2QHTIW:3QBD8R3Z23Q6I07P910OZ0D0XDU4OX,1892,136265_0.4696969696969697.png,2,28,live
525,A2C7TMRC2QHTIW:3QBD8R3Z23Q6I07P910OZ0D0XDU4OX,1610,136175_-0.4393939393939394.png,2,29,live
526,A2C7TMRC2QHTIW:3QBD8R3Z23Q6I07P910OZ0D0XDU4OX,1538,136209_-0.09595959595959591.png,2,30,live
527,A2C7TMRC2QHTIW:3QBD8R3Z23Q6I07P910OZ0D0XDU4OX,1940,136213_-0.055555555555555525.png,3,31,live
528,A2C7TMRC2QHTIW:3QBD8R3Z23Q6I07P910OZ0D0XDU4OX,2427,136256_0.3787878787878789.png,6,32,live
529,A2C7TMRC2QHTIW:3QBD8R3Z23Q6I07P910OZ0D0XDU4OX,1444,136235_0.16666666666666674.png,5,33,live
530,A2C7TMRC2QHTIW:3QBD8R3Z23Q6I07P910OZ0D0XDU4OX,1578,136187_-0.3181818181818182.png,4,35,live
531,A2C7TMRC2QHTIW:3QBD8R3Z23Q6I07P910OZ0D0XDU4OX,1707,136268_0.5.png,6,36,live
532,A2C7TMRC2QHTIW:3QBD8R3Z23Q6I07P910OZ0D0XDU4OX,1556,136171_-0.4797979797979798.png,4,37,live
533,A2C7TMRC2QHTIW:3QBD8R3Z23Q6I07P910OZ0D0XDU4OX,2229,136234_0.15656565656565657.png,5,38,live
534,A2C7TMRC2QHTIW:3QBD8R3Z23Q6I07P910OZ0D0XDU4OX,2115,136238_0.19696969696969702.png,3,39,live
535,A2C7TMRC2QHTIW:3QBD8R3Z23Q6I07P910OZ0D0XDU4OX,1659,136240_0.21717171717171724.png,5,40,live
536,A2C7TMRC2QHTIW:3QBD8R3Z23Q6I07P910OZ0D0XDU4OX,1572,136173_-0.4595959595959596.png,6,41,live
537,A2C7TMRC2QHTIW:3QBD8R3Z23Q6I07P910OZ0D0XDU4OX,1604,136174_-0.4494949494949495.png,2,42,live
538,A2C7TMRC2QHTIW:3QBD8R3Z23Q6I07P910OZ0D0XDU4OX,1460,136250_0.31818181818181823.png,2,43,live
539,A2C7TMRC2QHTIW:3QBD8R3Z23Q6I07P910OZ0D0XDU4OX,1889,136264_0.45959595959595967.png,1,44,live
540,A2C7TMRC2QHTIW:3QBD8R3Z23Q6I07P910OZ0D0XDU4OX,2062,136218_-0.0050505050505050275.png,6,46,live
541,A2C7TMRC2QHTIW:3QBD8R3Z23Q6I07P910OZ0D0XDU4OX,1522,136181_-0.3787878787878788.png,2,47,live
542,A2C7TMRC2QHTIW:3QBD8R3Z23Q6I07P910OZ0D0XDU4OX,1692,136257_0.38888888888888895.png,4,48,live
543,A2C7TMRC2QHTIW:3QBD8R3Z23Q6I07P910OZ0D0XDU4OX,1618,136251_0.3282828282828284.png,4,49,live
544,A2C7TMRC2QHTIW:3QBD8R3Z23Q6I07P910OZ0D0XDU4OX,1403,136239_0.20707070707070718.png,5,50,live
545,A2C7TMRC2QHTIW:3QBD8R3Z23Q6I07P910OZ0D0XDU4OX,2676,136198_-0.20707070707070707.png,5,51,live
546,A2C7TMRC2QHTIW:3QBD8R3Z23Q6I07P910OZ0D0XDU4OX,1675,136195_-0.23737373737373735.png,2,52,live
547,A2C7TMRC2QHTIW:3QBD8R3Z23Q6I07P910OZ0D0XDU4OX,1476,136177_-0.41919191919191917.png,2,53,live
548,A2C7TMRC2QHTIW:3QBD8R3Z23Q6I07P910OZ0D0XDU4OX,1627,136199_-0.19696969696969696.png,1,54,live
549,A2C7TMRC2QHTIW:3QBD8R3Z23Q6I07P910OZ0D0XDU4OX,2195,136265_0.4696969696969697.png,5,55,live
550,A2C7TMRC2QHTIW:3QBD8R3Z23Q6I07P910OZ0D0XDU4OX,2027,136171_-0.4797979797979798.png,4,57,live
551,A2C7TMRC2QHTIW:3QBD8R3Z23Q6I07P910OZ0D0XDU4OX,1546,136198_-0.20707070707070707.png,5,58,live
552,A2C7TMRC2QHTIW:3QBD8R3Z23Q6I07P910OZ0D0XDU4OX,1707,136179_-0.398989898989899.png,5,59,live
553,A2C7TMRC2QHTIW:3QBD8R3Z23Q6I07P910OZ0D0XDU4OX,1979,136221_0.025252525252525304.png,4,60,live
554,A2C7TMRC2QHTIW:3QBD8R3Z23Q6I07P910OZ0D0XDU4OX,2411,136201_-0.17676767676767674.png,5,61,live
555,A2C7TMRC2QHTIW:3QBD8R3Z23Q6I07P910OZ0D0XDU4OX,1763,136217_-0.015151515151515138.png,1,62,live
556,A2C7TMRC2QHTIW:3QBD8R3Z23Q6I07P910OZ0D0XDU4OX,1779,136254_0.3585858585858587.png,8,63,live
557,A2C7TMRC2QHTIW:3QBD8R3Z23Q6I07P910OZ0D0XDU4OX,1716,136185_-0.33838383838383834.png,8,64,live
558,A2C7TMRC2QHTIW:3QBD8R3Z23Q6I07P910OZ0D0XDU4OX,1733,136239_0.20707070707070718.png,6,65,live
559,A2C7TMRC2QHTIW:3QBD8R3Z23Q6I07P910OZ0D0XDU4OX,1650,136231_0.1262626262626263.png,1,66,live
560,A2C7TMRC2QHTIW:3QBD8R3Z23Q6I07P910OZ0D0XDU4OX,1931,136222_0.03535353535353536.png,1,68,live
561,A2C7TMRC2QHTIW:3QBD8R3Z23Q6I07P910OZ0D0XDU4OX,1810,136189_-0.29797979797979796.png,1,69,live
562,A2C7TMRC2QHTIW:3QBD8R3Z23Q6I07P910OZ0D0XDU4OX,1349,136181_-0.3787878787878788.png,1,70,live
563,A2C7TMRC2QHTIW:3QBD8R3Z23Q6I07P910OZ0D0XDU4OX,1274,136189_-0.29797979797979796.png,1,71,live
564,A2C7TMRC2QHTIW:3QBD8R3Z23Q6I07P910OZ0D0XDU4OX,1787,136259_0.40909090909090917.png,8,72,live
565,A2C7TMRC2QHTIW:3QBD8R3Z23Q6I07P910OZ0D0XDU4OX,1675,136259_0.40909090909090917.png,8,73,live
566,A2C7TMRC2QHTIW:3QBD8R3Z23Q6I07P910OZ0D0XDU4OX,2035,136211_-0.07575757575757575.png,3,74,live
567,A2C7TMRC2QHTIW:3QBD8R3Z23Q6I07P910OZ0D0XDU4OX,1929,136176_-0.4292929292929293.png,2,75,live
568,A2C7TMRC2QHTIW:3QBD8R3Z23Q6I07P910OZ0D0XDU4OX,1653,136208_-0.10606060606060602.png,4,76,live
569,A2C7TMRC2QHTIW:3QBD8R3Z23Q6I07P910OZ0D0XDU4OX,1499,136260_0.4191919191919192.png,1,77,live
570,A2C7TMRC2QHTIW:3QBD8R3Z23Q6I07P910OZ0D0XDU4OX,1788,136255_0.36868686868686873.png,8,79,live
571,A2C7TMRC2QHTIW:3QBD8R3Z23Q6I07P910OZ0D0XDU4OX,1891,136225_0.06565656565656575.png,5,80,live
572,A2C7TMRC2QHTIW:3QBD8R3Z23Q6I07P910OZ0D0XDU4OX,1707,136188_-0.30808080808080807.png,5,81,live
573,A2C7TMRC2QHTIW:3QBD8R3Z23Q6I07P910OZ0D0XDU4OX,1315,136184_-0.3484848484848485.png,5,82,live
574,A2C7TMRC2QHTIW:3QBD8R3Z23Q6I07P910OZ0D0XDU4OX,1755,136185_-0.33838383838383834.png,7,83,live
575,A2C7TMRC2QHTIW:3QBD8R3Z23Q6I07P910OZ0D0XDU4OX,1509,136190_-0.28787878787878785.png,5,84,live
576,A2C7TMRC2QHTIW:3QBD8R3Z23Q6I07P910OZ0D0XDU4OX,1475,136178_-0.40909090909090906.png,6,85,live
577,A2C7TMRC2QHTIW:3QBD8R3Z23Q6I07P910OZ0D0XDU4OX,1836,136230_0.11616161616161624.png,7,86,live
578,A2C7TMRC2QHTIW:3QBD8R3Z23Q6I07P910OZ0D0XDU4OX,1650,136206_-0.12626262626262624.png,5,87,live
579,A2C7TMRC2QHTIW:3QBD8R3Z23Q6I07P910OZ0D0XDU4OX,1474,136237_0.18686868686868696.png,4,88,live
580,A2C7TMRC2QHTIW:3QBD8R3Z23Q6I07P910OZ0D0XDU4OX,1573,136249_0.3080808080808082.png,5,90,live
581,A2C7TMRC2QHTIW:3QBD8R3Z23Q6I07P910OZ0D0XDU4OX,1906,136188_-0.30808080808080807.png,5,91,live
582,A2C7TMRC2QHTIW:3QBD8R3Z23Q6I07P910OZ0D0XDU4OX,1604,136172_-0.4696969696969697.png,4,92,live
583,A2C7TMRC2QHTIW:3QBD8R3Z23Q6I07P910OZ0D0XDU4OX,1219,136253_0.3484848484848485.png,4,93,live
584,A2C7TMRC2QHTIW:3QBD8R3Z23Q6I07P910OZ0D0XDU4OX,1539,136223_0.045454545454545525.png,7,94,live
585,A2C7TMRC2QHTIW:3QBD8R3Z23Q6I07P910OZ0D0XDU4OX,1460,136263_0.4494949494949496.png,3,95,live
586,A2C7TMRC2QHTIW:3QBD8R3Z23Q6I07P910OZ0D0XDU4OX,1410,136228_0.09595959595959602.png,3,96,live
587,A2C7TMRC2QHTIW:3QBD8R3Z23Q6I07P910OZ0D0XDU4OX,1963,136229_0.10606060606060608.png,6,97,live
588,A2C7TMRC2QHTIW:3QBD8R3Z23Q6I07P910OZ0D0XDU4OX,2276,136252_0.33838383838383845.png,8,98,live
589,A2C7TMRC2QHTIW:3QBD8R3Z23Q6I07P910OZ0D0XDU4OX,1506,136193_-0.25757575757575757.png,5,99,live
590,A2C7TMRC2QHTIW:3QBD8R3Z23Q6I07P910OZ0D0XDU4OX,1659,136246_0.2777777777777778.png,8,101,live
591,A2C7TMRC2QHTIW:3QBD8R3Z23Q6I07P910OZ0D0XDU4OX,1579,136249_0.3080808080808082.png,5,102,live
592,A2C7TMRC2QHTIW:3QBD8R3Z23Q6I07P910OZ0D0XDU4OX,1794,136202_-0.16666666666666663.png,2,103,live
593,A2C7TMRC2QHTIW:3QBD8R3Z23Q6I07P910OZ0D0XDU4OX,1547,136215_-0.035353535353535304.png,5,104,live
594,A2C7TMRC2QHTIW:3QBD8R3Z23Q6I07P910OZ0D0XDU4OX,1707,136187_-0.3181818181818182.png,5,105,live
595,A2C7TMRC2QHTIW:3QBD8R3Z23Q6I07P910OZ0D0XDU4OX,1171,136169_-0.5.png,5,106,live
596,A2C7TMRC2QHTIW:3QBD8R3Z23Q6I07P910OZ0D0XDU4OX,1460,136204_-0.1464646464646464.png,5,107,live
597,A2C7TMRC2QHTIW:3QBD8R3Z23Q6I07P910OZ0D0XDU4OX,1681,136206_-0.12626262626262624.png,5,108,live
598,A2C7TMRC2QHTIW:3QBD8R3Z23Q6I07P910OZ0D0XDU4OX,1964,136261_0.4292929292929294.png,4,109,live
599,A2C7TMRC2QHTIW:3QBD8R3Z23Q6I07P910OZ0D0XDU4OX,1236,136182_-0.3686868686868687.png,4,110,live
600,ALG6DFM23SOBF:3S06PH7KSTBYM4JHWA36Q8UYHFDD1W,9169,136261_0.4292929292929294.png,2,2,live
601,ALG6DFM23SOBF:3S06PH7KSTBYM4JHWA36Q8UYHFDD1W,4906,136242_0.23737373737373746.png,8,3,live
602,ALG6DFM23SOBF:3S06PH7KSTBYM4JHWA36Q8UYHFDD1W,4363,136249_0.3080808080808082.png,1,4,live
603,ALG6DFM23SOBF:3S06PH7KSTBYM4JHWA36Q8UYHFDD1W,3669,136211_-0.07575757575757575.png,9,5,live
604,ALG6DFM23SOBF:3S06PH7KSTBYM4JHWA36Q8UYHFDD1W,5216,136198_-0.20707070707070707.png,5,6,live
605,ALG6DFM23SOBF:3S06PH7KSTBYM4JHWA36Q8UYHFDD1W,2758,136187_-0.3181818181818182.png,4,7,live
606,ALG6DFM23SOBF:3S06PH7KSTBYM4JHWA36Q8UYHFDD1W,4537,136238_0.19696969696969702.png,6,8,live
607,ALG6DFM23SOBF:3S06PH7KSTBYM4JHWA36Q8UYHFDD1W,4972,136176_-0.4292929292929293.png,7,9,live
608,ALG6DFM23SOBF:3S06PH7KSTBYM4JHWA36Q8UYHFDD1W,3442,136182_-0.3686868686868687.png,9,10,live
609,ALG6DFM23SOBF:3S06PH7KSTBYM4JHWA36Q8UYHFDD1W,2749,136235_0.16666666666666674.png,8,11,live
610,ALG6DFM23SOBF:3S06PH7KSTBYM4JHWA36Q8UYHFDD1W,4317,136175_-0.4393939393939394.png,5,13,live
611,ALG6DFM23SOBF:3S06PH7KSTBYM4JHWA36Q8UYHFDD1W,2973,136185_-0.33838383838383834.png,7,14,live
612,ALG6DFM23SOBF:3S06PH7KSTBYM4JHWA36Q8UYHFDD1W,2890,136252_0.33838383838383845.png,3,15,live
613,ALG6DFM23SOBF:3S06PH7KSTBYM4JHWA36Q8UYHFDD1W,2859,136215_-0.035353535353535304.png,6,16,live
614,ALG6DFM23SOBF:3S06PH7KSTBYM4JHWA36Q8UYHFDD1W,2740,136223_0.045454545454545525.png,4,17,live
615,ALG6DFM23SOBF:3S06PH7KSTBYM4JHWA36Q8UYHFDD1W,3508,136241_0.2272727272727273.png,8,18,live
616,ALG6DFM23SOBF:3S06PH7KSTBYM4JHWA36Q8UYHFDD1W,3252,136262_0.43939393939393945.png,2,19,live
617,ALG6DFM23SOBF:3S06PH7KSTBYM4JHWA36Q8UYHFDD1W,2998,136196_-0.22727272727272724.png,9,20,live
618,ALG6DFM23SOBF:3S06PH7KSTBYM4JHWA36Q8UYHFDD1W,4075,136174_-0.4494949494949495.png,1,21,live
619,ALG6DFM23SOBF:3S06PH7KSTBYM4JHWA36Q8UYHFDD1W,5923,136228_0.09595959595959602.png,3,22,live
620,ALG6DFM23SOBF:3S06PH7KSTBYM4JHWA36Q8UYHFDD1W,4283,136221_0.025252525252525304.png,9,24,live
621,ALG6DFM23SOBF:3S06PH7KSTBYM4JHWA36Q8UYHFDD1W,3150,136260_0.4191919191919192.png,1,25,live
622,ALG6DFM23SOBF:3S06PH7KSTBYM4JHWA36Q8UYHFDD1W,2969,136230_0.11616161616161624.png,3,26,live
623,ALG6DFM23SOBF:3S06PH7KSTBYM4JHWA36Q8UYHFDD1W,2644,136231_0.1262626262626263.png,7,27,live
624,ALG6DFM23SOBF:3S06PH7KSTBYM4JHWA36Q8UYHFDD1W,2808,136246_0.2777777777777778.png,8,28,live
625,ALG6DFM23SOBF:3S06PH7KSTBYM4JHWA36Q8UYHFDD1W,2492,136247_0.28787878787878796.png,2,29,live
626,ALG6DFM23SOBF:3S06PH7KSTBYM4JHWA36Q8UYHFDD1W,2525,136198_-0.20707070707070707.png,4,30,live
627,ALG6DFM23SOBF:3S06PH7KSTBYM4JHWA36Q8UYHFDD1W,2091,136218_-0.0050505050505050275.png,6,31,live
628,ALG6DFM23SOBF:3S06PH7KSTBYM4JHWA36Q8UYHFDD1W,2500,136177_-0.41919191919191917.png,5,32,live
629,ALG6DFM23SOBF:3S06PH7KSTBYM4JHWA36Q8UYHFDD1W,3155,136256_0.3787878787878789.png,6,33,live
630,ALG6DFM23SOBF:3S06PH7KSTBYM4JHWA36Q8UYHFDD1W,4688,136227_0.08585858585858586.png,2,35,live
631,ALG6DFM23SOBF:3S06PH7KSTBYM4JHWA36Q8UYHFDD1W,2219,136176_-0.4292929292929293.png,8,36,live
632,ALG6DFM23SOBF:3S06PH7KSTBYM4JHWA36Q8UYHFDD1W,2366,136188_-0.30808080808080807.png,9,37,live
633,ALG6DFM23SOBF:3S06PH7KSTBYM4JHWA36Q8UYHFDD1W,2585,136239_0.20707070707070718.png,1,38,live
634,ALG6DFM23SOBF:3S06PH7KSTBYM4JHWA36Q8UYHFDD1W,2111,136225_0.06565656565656575.png,5,39,live
635,ALG6DFM23SOBF:3S06PH7KSTBYM4JHWA36Q8UYHFDD1W,1931,136237_0.18686868686868696.png,6,40,live
636,ALG6DFM23SOBF:3S06PH7KSTBYM4JHWA36Q8UYHFDD1W,2588,136231_0.1262626262626263.png,4,41,live
637,ALG6DFM23SOBF:3S06PH7KSTBYM4JHWA36Q8UYHFDD1W,2699,136250_0.31818181818181823.png,3,42,live
638,ALG6DFM23SOBF:3S06PH7KSTBYM4JHWA36Q8UYHFDD1W,3437,136200_-0.18686868686868685.png,6,43,live
639,ALG6DFM23SOBF:3S06PH7KSTBYM4JHWA36Q8UYHFDD1W,2427,136253_0.3484848484848485.png,7,44,live
640,ALG6DFM23SOBF:3S06PH7KSTBYM4JHWA36Q8UYHFDD1W,3417,136251_0.3282828282828284.png,5,46,live
641,ALG6DFM23SOBF:3S06PH7KSTBYM4JHWA36Q8UYHFDD1W,3013,136195_-0.23737373737373735.png,7,47,live
642,ALG6DFM23SOBF:3S06PH7KSTBYM4JHWA36Q8UYHFDD1W,2268,136257_0.38888888888888895.png,3,48,live
643,ALG6DFM23SOBF:3S06PH7KSTBYM4JHWA36Q8UYHFDD1W,2138,136170_-0.4898989898989899.png,4,49,live
644,ALG6DFM23SOBF:3S06PH7KSTBYM4JHWA36Q8UYHFDD1W,2675,136263_0.4494949494949496.png,2,50,live
645,ALG6DFM23SOBF:3S06PH7KSTBYM4JHWA36Q8UYHFDD1W,1915,136206_-0.12626262626262624.png,8,51,live
646,ALG6DFM23SOBF:3S06PH7KSTBYM4JHWA36Q8UYHFDD1W,3035,136240_0.21717171717171724.png,9,52,live
647,ALG6DFM23SOBF:3S06PH7KSTBYM4JHWA36Q8UYHFDD1W,2220,136171_-0.4797979797979798.png,1,53,live
648,ALG6DFM23SOBF:3S06PH7KSTBYM4JHWA36Q8UYHFDD1W,2573,136189_-0.29797979797979796.png,7,54,live
649,ALG6DFM23SOBF:3S06PH7KSTBYM4JHWA36Q8UYHFDD1W,2099,136226_0.0757575757575758.png,5,55,live
650,ALG6DFM23SOBF:3S06PH7KSTBYM4JHWA36Q8UYHFDD1W,3417,136239_0.20707070707070718.png,7,57,live
651,ALG6DFM23SOBF:3S06PH7KSTBYM4JHWA36Q8UYHFDD1W,1865,136184_-0.3484848484848485.png,5,58,live
652,ALG6DFM23SOBF:3S06PH7KSTBYM4JHWA36Q8UYHFDD1W,3893,136222_0.03535353535353536.png,8,59,live
653,ALG6DFM23SOBF:3S06PH7KSTBYM4JHWA36Q8UYHFDD1W,4049,136209_-0.09595959595959591.png,9,60,live
654,ALG6DFM23SOBF:3S06PH7KSTBYM4JHWA36Q8UYHFDD1W,14878,136207_-0.11616161616161613.png,2,61,live
655,ALG6DFM23SOBF:3S06PH7KSTBYM4JHWA36Q8UYHFDD1W,36758,136217_-0.015151515151515138.png,1,62,live
656,ALG6DFM23SOBF:3S06PH7KSTBYM4JHWA36Q8UYHFDD1W,19362,136256_0.3787878787878789.png,3,63,live
657,ALG6DFM23SOBF:3S06PH7KSTBYM4JHWA36Q8UYHFDD1W,3220,136199_-0.19696969696969696.png,6,64,live
658,ALG6DFM23SOBF:3S06PH7KSTBYM4JHWA36Q8UYHFDD1W,1484,136254_0.3585858585858587.png,5,65,live
659,ALG6DFM23SOBF:3S06PH7KSTBYM4JHWA36Q8UYHFDD1W,1866,136234_0.15656565656565657.png,7,66,live
660,ALG6DFM23SOBF:3S06PH7KSTBYM4JHWA36Q8UYHFDD1W,6572,136201_-0.17676767676767674.png,2,68,live
661,ALG6DFM23SOBF:3S06PH7KSTBYM4JHWA36Q8UYHFDD1W,1945,136206_-0.12626262626262624.png,8,69,live
662,ALG6DFM23SOBF:3S06PH7KSTBYM4JHWA36Q8UYHFDD1W,2275,136191_-0.2777777777777778.png,9,70,live
663,ALG6DFM23SOBF:3S06PH7KSTBYM4JHWA36Q8UYHFDD1W,2444,136172_-0.4696969696969697.png,1,71,live
664,ALG6DFM23SOBF:3S06PH7KSTBYM4JHWA36Q8UYHFDD1W,1787,136229_0.10606060606060608.png,4,72,live
665,ALG6DFM23SOBF:3S06PH7KSTBYM4JHWA36Q8UYHFDD1W,4398,136265_0.4696969696969697.png,6,73,live
666,ALG6DFM23SOBF:3S06PH7KSTBYM4JHWA36Q8UYHFDD1W,3009,136223_0.045454545454545525.png,7,74,live
667,ALG6DFM23SOBF:3S06PH7KSTBYM4JHWA36Q8UYHFDD1W,1616,136178_-0.40909090909090906.png,5,75,live
668,ALG6DFM23SOBF:3S06PH7KSTBYM4JHWA36Q8UYHFDD1W,2629,136183_-0.35858585858585856.png,3,76,live
669,ALG6DFM23SOBF:3S06PH7KSTBYM4JHWA36Q8UYHFDD1W,1522,136181_-0.3787878787878788.png,5,77,live
670,ALG6DFM23SOBF:3S06PH7KSTBYM4JHWA36Q8UYHFDD1W,7085,136202_-0.16666666666666663.png,1,79,live
671,ALG6DFM23SOBF:3S06PH7KSTBYM4JHWA36Q8UYHFDD1W,1939,136208_-0.10606060606060602.png,5,80,live
672,ALG6DFM23SOBF:3S06PH7KSTBYM4JHWA36Q8UYHFDD1W,2414,136265_0.4696969696969697.png,8,81,live
673,ALG6DFM23SOBF:3S06PH7KSTBYM4JHWA36Q8UYHFDD1W,2379,136204_-0.1464646464646464.png,2,82,live
674,ALG6DFM23SOBF:3S06PH7KSTBYM4JHWA36Q8UYHFDD1W,1823,136181_-0.3787878787878788.png,9,83,live
675,ALG6DFM23SOBF:3S06PH7KSTBYM4JHWA36Q8UYHFDD1W,1624,136219_0.005050505050505083.png,3,84,live
676,ALG6DFM23SOBF:3S06PH7KSTBYM4JHWA36Q8UYHFDD1W,2547,136187_-0.3181818181818182.png,7,85,live
677,ALG6DFM23SOBF:3S06PH7KSTBYM4JHWA36Q8UYHFDD1W,1852,136215_-0.035353535353535304.png,4,86,live
678,ALG6DFM23SOBF:3S06PH7KSTBYM4JHWA36Q8UYHFDD1W,2284,136258_0.3989898989898991.png,8,87,live
679,ALG6DFM23SOBF:3S06PH7KSTBYM4JHWA36Q8UYHFDD1W,2347,136204_-0.1464646464646464.png,5,88,live
680,ALG6DFM23SOBF:3S06PH7KSTBYM4JHWA36Q8UYHFDD1W,3771,136193_-0.25757575757575757.png,5,90,live
681,ALG6DFM23SOBF:3S06PH7KSTBYM4JHWA36Q8UYHFDD1W,1853,136249_0.3080808080808082.png,1,91,live
682,ALG6DFM23SOBF:3S06PH7KSTBYM4JHWA36Q8UYHFDD1W,2056,136255_0.36868686868686873.png,9,92,live
683,ALG6DFM23SOBF:3S06PH7KSTBYM4JHWA36Q8UYHFDD1W,2365,136203_-0.15656565656565652.png,2,93,live
684,ALG6DFM23SOBF:3S06PH7KSTBYM4JHWA36Q8UYHFDD1W,2332,136259_0.40909090909090917.png,8,94,live
685,ALG6DFM23SOBF:3S06PH7KSTBYM4JHWA36Q8UYHFDD1W,2949,136173_-0.4595959595959596.png,4,95,live
686,ALG6DFM23SOBF:3S06PH7KSTBYM4JHWA36Q8UYHFDD1W,22824,136188_-0.30808080808080807.png,2,96,live
687,ALG6DFM23SOBF:3S06PH7KSTBYM4JHWA36Q8UYHFDD1W,26571,136235_0.16666666666666674.png,3,97,live
688,ALG6DFM23SOBF:3S06PH7KSTBYM4JHWA36Q8UYHFDD1W,1643,136179_-0.398989898989899.png,6,98,live
689,ALG6DFM23SOBF:3S06PH7KSTBYM4JHWA36Q8UYHFDD1W,1316,136213_-0.055555555555555525.png,5,99,live
690,ALG6DFM23SOBF:3S06PH7KSTBYM4JHWA36Q8UYHFDD1W,2342,136169_-0.5.png,1,101,live
691,ALG6DFM23SOBF:3S06PH7KSTBYM4JHWA36Q8UYHFDD1W,19326,136220_0.015151515151515249.png,7,102,live
692,ALG6DFM23SOBF:3S06PH7KSTBYM4JHWA36Q8UYHFDD1W,1884,136185_-0.33838383838383834.png,8,103,live
693,ALG6DFM23SOBF:3S06PH7KSTBYM4JHWA36Q8UYHFDD1W,3039,136189_-0.29797979797979796.png,4,104,live
694,ALG6DFM23SOBF:3S06PH7KSTBYM4JHWA36Q8UYHFDD1W,2068,136268_0.5.png,3,105,live
695,ALG6DFM23SOBF:3S06PH7KSTBYM4JHWA36Q8UYHFDD1W,1868,136259_0.40909090909090917.png,6,106,live
696,ALG6DFM23SOBF:3S06PH7KSTBYM4JHWA36Q8UYHFDD1W,32690,136171_-0.4797979797979798.png,2,107,live
697,ALG6DFM23SOBF:3S06PH7KSTBYM4JHWA36Q8UYHFDD1W,2475,136257_0.38888888888888895.png,7,108,live
698,ALG6DFM23SOBF:3S06PH7KSTBYM4JHWA36Q8UYHFDD1W,1658,136264_0.45959595959595967.png,4,109,live
699,ALG6DFM23SOBF:3S06PH7KSTBYM4JHWA36Q8UYHFDD1W,1843,136190_-0.28787878787878785.png,3,110,live
700,A1XJZKYCHG8BZF:3PB5A5BD0XDF9A8ANGLNX3O8XTT7GX,43741,136176_-0.4292929292929293.png,5,2,live
701,A1XJZKYCHG8BZF:3PB5A5BD0XDF9A8ANGLNX3O8XTT7GX,5002,136241_0.2272727272727273.png,6,3,live
702,A1XJZKYCHG8BZF:3PB5A5BD0XDF9A8ANGLNX3O8XTT7GX,6099,136169_-0.5.png,6,4,live
703,A1XJZKYCHG8BZF:3PB5A5BD0XDF9A8ANGLNX3O8XTT7GX,4417,136204_-0.1464646464646464.png,7,5,live
704,A1XJZKYCHG8BZF:3PB5A5BD0XDF9A8ANGLNX3O8XTT7GX,5253,136250_0.31818181818181823.png,8,6,live
705,A1XJZKYCHG8BZF:3PB5A5BD0XDF9A8ANGLNX3O8XTT7GX,4165,136182_-0.3686868686868687.png,6,7,live
706,A1XJZKYCHG8BZF:3PB5A5BD0XDF9A8ANGLNX3O8XTT7GX,3439,136265_0.4696969696969697.png,7,8,live
707,A1XJZKYCHG8BZF:3PB5A5BD0XDF9A8ANGLNX3O8XTT7GX,3493,136199_-0.19696969696969696.png,6,9,live
708,A1XJZKYCHG8BZF:3PB5A5BD0XDF9A8ANGLNX3O8XTT7GX,3998,136218_-0.0050505050505050275.png,7,10,live
709,A1XJZKYCHG8BZF:3PB5A5BD0XDF9A8ANGLNX3O8XTT7GX,3606,136181_-0.3787878787878788.png,6,11,live
710,A1XJZKYCHG8BZF:3PB5A5BD0XDF9A8ANGLNX3O8XTT7GX,4851,136185_-0.33838383838383834.png,7,13,live
711,A1XJZKYCHG8BZF:3PB5A5BD0XDF9A8ANGLNX3O8XTT7GX,6790,136257_0.38888888888888895.png,6,14,live
712,A1XJZKYCHG8BZF:3PB5A5BD0XDF9A8ANGLNX3O8XTT7GX,2999,136191_-0.2777777777777778.png,8,15,live
713,A1XJZKYCHG8BZF:3PB5A5BD0XDF9A8ANGLNX3O8XTT7GX,4918,136219_0.005050505050505083.png,7,16,live
714,A1XJZKYCHG8BZF:3PB5A5BD0XDF9A8ANGLNX3O8XTT7GX,3083,136263_0.4494949494949496.png,6,17,live
715,A1XJZKYCHG8BZF:3PB5A5BD0XDF9A8ANGLNX3O8XTT7GX,3196,136221_0.025252525252525304.png,7,18,live
716,A1XJZKYCHG8BZF:3PB5A5BD0XDF9A8ANGLNX3O8XTT7GX,3421,136226_0.0757575757575758.png,5,19,live
717,A1XJZKYCHG8BZF:3PB5A5BD0XDF9A8ANGLNX3O8XTT7GX,3312,136215_-0.035353535353535304.png,6,20,live
718,A1XJZKYCHG8BZF:3PB5A5BD0XDF9A8ANGLNX3O8XTT7GX,2982,136258_0.3989898989898991.png,8,21,live
719,A1XJZKYCHG8BZF:3PB5A5BD0XDF9A8ANGLNX3O8XTT7GX,3665,136177_-0.41919191919191917.png,6,22,live
720,A1XJZKYCHG8BZF:3PB5A5BD0XDF9A8ANGLNX3O8XTT7GX,4210,136206_-0.12626262626262624.png,6,24,live
721,A1XJZKYCHG8BZF:3PB5A5BD0XDF9A8ANGLNX3O8XTT7GX,2518,136215_-0.035353535353535304.png,7,25,live
722,A1XJZKYCHG8BZF:3PB5A5BD0XDF9A8ANGLNX3O8XTT7GX,2694,136229_0.10606060606060608.png,7,26,live
723,A1XJZKYCHG8BZF:3PB5A5BD0XDF9A8ANGLNX3O8XTT7GX,3086,136242_0.23737373737373746.png,6,27,live
724,A1XJZKYCHG8BZF:3PB5A5BD0XDF9A8ANGLNX3O8XTT7GX,2846,136207_-0.11616161616161613.png,6,28,live
725,A1XJZKYCHG8BZF:3PB5A5BD0XDF9A8ANGLNX3O8XTT7GX,3142,136223_0.045454545454545525.png,7,29,live
726,A1XJZKYCHG8BZF:3PB5A5BD0XDF9A8ANGLNX3O8XTT7GX,3990,136238_0.19696969696969702.png,8,30,live
727,A1XJZKYCHG8BZF:3PB5A5BD0XDF9A8ANGLNX3O8XTT7GX,2734,136246_0.2777777777777778.png,5,31,live
728,A1XJZKYCHG8BZF:3PB5A5BD0XDF9A8ANGLNX3O8XTT7GX,8630,136211_-0.07575757575757575.png,6,32,live
729,A1XJZKYCHG8BZF:3PB5A5BD0XDF9A8ANGLNX3O8XTT7GX,5320,136187_-0.3181818181818182.png,7,33,live
730,A1XJZKYCHG8BZF:3PB5A5BD0XDF9A8ANGLNX3O8XTT7GX,2910,136255_0.36868686868686873.png,6,35,live
731,A1XJZKYCHG8BZF:3PB5A5BD0XDF9A8ANGLNX3O8XTT7GX,4935,136171_-0.4797979797979798.png,7,36,live
732,A1XJZKYCHG8BZF:3PB5A5BD0XDF9A8ANGLNX3O8XTT7GX,3156,136188_-0.30808080808080807.png,8,37,live
733,A1XJZKYCHG8BZF:3PB5A5BD0XDF9A8ANGLNX3O8XTT7GX,3567,136196_-0.22727272727272724.png,6,38,live
734,A1XJZKYCHG8BZF:3PB5A5BD0XDF9A8ANGLNX3O8XTT7GX,3340,136208_-0.10606060606060602.png,7,39,live
735,A1XJZKYCHG8BZF:3PB5A5BD0XDF9A8ANGLNX3O8XTT7GX,3350,136235_0.16666666666666674.png,7,40,live
736,A1XJZKYCHG8BZF:3PB5A5BD0XDF9A8ANGLNX3O8XTT7GX,3254,136259_0.40909090909090917.png,7,41,live
737,A1XJZKYCHG8BZF:3PB5A5BD0XDF9A8ANGLNX3O8XTT7GX,3149,136204_-0.1464646464646464.png,8,42,live
738,A1XJZKYCHG8BZF:3PB5A5BD0XDF9A8ANGLNX3O8XTT7GX,4134,136235_0.16666666666666674.png,7,43,live
739,A1XJZKYCHG8BZF:3PB5A5BD0XDF9A8ANGLNX3O8XTT7GX,3558,136184_-0.3484848484848485.png,8,44,live
740,A1XJZKYCHG8BZF:3PB5A5BD0XDF9A8ANGLNX3O8XTT7GX,3472,136227_0.08585858585858586.png,6,46,live
741,A1XJZKYCHG8BZF:3PB5A5BD0XDF9A8ANGLNX3O8XTT7GX,12038,136200_-0.18686868686868685.png,5,47,live
742,A1XJZKYCHG8BZF:3PB5A5BD0XDF9A8ANGLNX3O8XTT7GX,4246,136256_0.3787878787878789.png,6,48,live
743,A1XJZKYCHG8BZF:3PB5A5BD0XDF9A8ANGLNX3O8XTT7GX,4550,136222_0.03535353535353536.png,7,49,live
744,A1XJZKYCHG8BZF:3PB5A5BD0XDF9A8ANGLNX3O8XTT7GX,3221,136225_0.06565656565656575.png,6,50,live
745,A1XJZKYCHG8BZF:3PB5A5BD0XDF9A8ANGLNX3O8XTT7GX,3070,136259_0.40909090909090917.png,6,51,live
746,A1XJZKYCHG8BZF:3PB5A5BD0XDF9A8ANGLNX3O8XTT7GX,3545,136252_0.33838383838383845.png,6,52,live
747,A1XJZKYCHG8BZF:3PB5A5BD0XDF9A8ANGLNX3O8XTT7GX,3067,136171_-0.4797979797979798.png,7,53,live
748,A1XJZKYCHG8BZF:3PB5A5BD0XDF9A8ANGLNX3O8XTT7GX,3374,136239_0.20707070707070718.png,7,54,live
749,A1XJZKYCHG8BZF:3PB5A5BD0XDF9A8ANGLNX3O8XTT7GX,3141,136247_0.28787878787878796.png,6,55,live
750,A1XJZKYCHG8BZF:3PB5A5BD0XDF9A8ANGLNX3O8XTT7GX,3217,136198_-0.20707070707070707.png,6,57,live
751,A1XJZKYCHG8BZF:3PB5A5BD0XDF9A8ANGLNX3O8XTT7GX,3338,136256_0.3787878787878789.png,5,58,live
752,A1XJZKYCHG8BZF:3PB5A5BD0XDF9A8ANGLNX3O8XTT7GX,4222,136174_-0.4494949494949495.png,7,59,live
753,A1XJZKYCHG8BZF:3PB5A5BD0XDF9A8ANGLNX3O8XTT7GX,2845,136237_0.18686868686868696.png,6,60,live
754,A1XJZKYCHG8BZF:3PB5A5BD0XDF9A8ANGLNX3O8XTT7GX,2910,136209_-0.09595959595959591.png,8,61,live
755,A1XJZKYCHG8BZF:3PB5A5BD0XDF9A8ANGLNX3O8XTT7GX,2757,136257_0.38888888888888895.png,7,62,live
756,A1XJZKYCHG8BZF:3PB5A5BD0XDF9A8ANGLNX3O8XTT7GX,2270,136239_0.20707070707070718.png,7,63,live
757,A1XJZKYCHG8BZF:3PB5A5BD0XDF9A8ANGLNX3O8XTT7GX,2413,136185_-0.33838383838383834.png,7,64,live
758,A1XJZKYCHG8BZF:3PB5A5BD0XDF9A8ANGLNX3O8XTT7GX,4237,136203_-0.15656565656565652.png,6,65,live
759,A1XJZKYCHG8BZF:3PB5A5BD0XDF9A8ANGLNX3O8XTT7GX,2597,136261_0.4292929292929294.png,7,66,live
760,A1XJZKYCHG8BZF:3PB5A5BD0XDF9A8ANGLNX3O8XTT7GX,2782,136254_0.3585858585858587.png,5,68,live
761,A1XJZKYCHG8BZF:3PB5A5BD0XDF9A8ANGLNX3O8XTT7GX,3491,136195_-0.23737373737373735.png,6,69,live
762,A1XJZKYCHG8BZF:3PB5A5BD0XDF9A8ANGLNX3O8XTT7GX,4614,136188_-0.30808080808080807.png,7,70,live
763,A1XJZKYCHG8BZF:3PB5A5BD0XDF9A8ANGLNX3O8XTT7GX,3838,136179_-0.398989898989899.png,8,71,live
764,A1XJZKYCHG8BZF:3PB5A5BD0XDF9A8ANGLNX3O8XTT7GX,2745,136223_0.045454545454545525.png,9,72,live
765,A1XJZKYCHG8BZF:3PB5A5BD0XDF9A8ANGLNX3O8XTT7GX,3078,136240_0.21717171717171724.png,6,73,live
766,A1XJZKYCHG8BZF:3PB5A5BD0XDF9A8ANGLNX3O8XTT7GX,2926,136251_0.3282828282828284.png,7,74,live
767,A1XJZKYCHG8BZF:3PB5A5BD0XDF9A8ANGLNX3O8XTT7GX,3341,136189_-0.29797979797979796.png,5,75,live
768,A1XJZKYCHG8BZF:3PB5A5BD0XDF9A8ANGLNX3O8XTT7GX,3030,136202_-0.16666666666666663.png,6,76,live
769,A1XJZKYCHG8BZF:3PB5A5BD0XDF9A8ANGLNX3O8XTT7GX,3054,136231_0.1262626262626263.png,6,77,live
770,A1XJZKYCHG8BZF:3PB5A5BD0XDF9A8ANGLNX3O8XTT7GX,2363,136201_-0.17676767676767674.png,6,79,live
771,A1XJZKYCHG8BZF:3PB5A5BD0XDF9A8ANGLNX3O8XTT7GX,2725,136230_0.11616161616161624.png,6,80,live
772,A1XJZKYCHG8BZF:3PB5A5BD0XDF9A8ANGLNX3O8XTT7GX,2758,136187_-0.3181818181818182.png,7,81,live
773,A1XJZKYCHG8BZF:3PB5A5BD0XDF9A8ANGLNX3O8XTT7GX,2038,136220_0.015151515151515249.png,5,82,live
774,A1XJZKYCHG8BZF:3PB5A5BD0XDF9A8ANGLNX3O8XTT7GX,2549,136183_-0.35858585858585856.png,8,83,live
775,A1XJZKYCHG8BZF:3PB5A5BD0XDF9A8ANGLNX3O8XTT7GX,2661,136253_0.3484848484848485.png,7,84,live
776,A1XJZKYCHG8BZF:3PB5A5BD0XDF9A8ANGLNX3O8XTT7GX,2774,136213_-0.055555555555555525.png,6,85,live
777,A1XJZKYCHG8BZF:3PB5A5BD0XDF9A8ANGLNX3O8XTT7GX,2781,136228_0.09595959595959602.png,5,86,live
778,A1XJZKYCHG8BZF:3PB5A5BD0XDF9A8ANGLNX3O8XTT7GX,4860,136181_-0.3787878787878788.png,6,87,live
779,A1XJZKYCHG8BZF:3PB5A5BD0XDF9A8ANGLNX3O8XTT7GX,6837,136260_0.4191919191919192.png,8,88,live
780,A1XJZKYCHG8BZF:3PB5A5BD0XDF9A8ANGLNX3O8XTT7GX,3725,136234_0.15656565656565657.png,9,90,live
781,A1XJZKYCHG8BZF:3PB5A5BD0XDF9A8ANGLNX3O8XTT7GX,3030,136268_0.5.png,7,91,live
782,A1XJZKYCHG8BZF:3PB5A5BD0XDF9A8ANGLNX3O8XTT7GX,3095,136264_0.45959595959595967.png,8,92,live
783,A1XJZKYCHG8BZF:3PB5A5BD0XDF9A8ANGLNX3O8XTT7GX,2566,136193_-0.25757575757575757.png,6,93,live
784,A1XJZKYCHG8BZF:3PB5A5BD0XDF9A8ANGLNX3O8XTT7GX,2669,136217_-0.015151515151515138.png,7,94,live
785,A1XJZKYCHG8BZF:3PB5A5BD0XDF9A8ANGLNX3O8XTT7GX,2789,136189_-0.29797979797979796.png,5,95,live
786,A1XJZKYCHG8BZF:3PB5A5BD0XDF9A8ANGLNX3O8XTT7GX,2790,136206_-0.12626262626262624.png,6,96,live
787,A1XJZKYCHG8BZF:3PB5A5BD0XDF9A8ANGLNX3O8XTT7GX,3253,136170_-0.4898989898989899.png,7,97,live
788,A1XJZKYCHG8BZF:3PB5A5BD0XDF9A8ANGLNX3O8XTT7GX,2598,136172_-0.4696969696969697.png,8,98,live
789,A1XJZKYCHG8BZF:3PB5A5BD0XDF9A8ANGLNX3O8XTT7GX,2414,136249_0.3080808080808082.png,7,99,live
790,A1XJZKYCHG8BZF:3PB5A5BD0XDF9A8ANGLNX3O8XTT7GX,2803,136249_0.3080808080808082.png,5,101,live
791,A1XJZKYCHG8BZF:3PB5A5BD0XDF9A8ANGLNX3O8XTT7GX,6358,136198_-0.20707070707070707.png,6,102,live
792,A1XJZKYCHG8BZF:3PB5A5BD0XDF9A8ANGLNX3O8XTT7GX,5414,136190_-0.28787878787878785.png,7,103,live
793,A1XJZKYCHG8BZF:3PB5A5BD0XDF9A8ANGLNX3O8XTT7GX,3293,136175_-0.4393939393939394.png,7,104,live
794,A1XJZKYCHG8BZF:3PB5A5BD0XDF9A8ANGLNX3O8XTT7GX,2895,136231_0.1262626262626263.png,7,105,live
795,A1XJZKYCHG8BZF:3PB5A5BD0XDF9A8ANGLNX3O8XTT7GX,2925,136176_-0.4292929292929293.png,6,106,live
796,A1XJZKYCHG8BZF:3PB5A5BD0XDF9A8ANGLNX3O8XTT7GX,3197,136262_0.43939393939393945.png,8,107,live
797,A1XJZKYCHG8BZF:3PB5A5BD0XDF9A8ANGLNX3O8XTT7GX,3511,136178_-0.40909090909090906.png,5,108,live
798,A1XJZKYCHG8BZF:3PB5A5BD0XDF9A8ANGLNX3O8XTT7GX,2791,136265_0.4696969696969697.png,6,109,live
799,A1XJZKYCHG8BZF:3PB5A5BD0XDF9A8ANGLNX3O8XTT7GX,4847,136173_-0.4595959595959596.png,6,110,live
800,ANVLK95ONV5DL:3X4JMASXCOG50I0FMV80HDNO92V0B9,24126,136185_-0.33838383838383834.png,8,2,live
801,ANVLK95ONV5DL:3X4JMASXCOG50I0FMV80HDNO92V0B9,3232,136196_-0.22727272727272724.png,9,3,live
802,ANVLK95ONV5DL:3X4JMASXCOG50I0FMV80HDNO92V0B9,2553,136184_-0.3484848484848485.png,8,4,live
803,ANVLK95ONV5DL:3X4JMASXCOG50I0FMV80HDNO92V0B9,3186,136204_-0.1464646464646464.png,9,5,live
804,ANVLK95ONV5DL:3X4JMASXCOG50I0FMV80HDNO92V0B9,2063,136249_0.3080808080808082.png,8,6,live
805,ANVLK95ONV5DL:3X4JMASXCOG50I0FMV80HDNO92V0B9,2211,136225_0.06565656565656575.png,6,7,live
806,ANVLK95ONV5DL:3X4JMASXCOG50I0FMV80HDNO92V0B9,2000,136171_-0.4797979797979798.png,7,8,live
807,ANVLK95ONV5DL:3X4JMASXCOG50I0FMV80HDNO92V0B9,2936,136208_-0.10606060606060602.png,8,9,live
808,ANVLK95ONV5DL:3X4JMASXCOG50I0FMV80HDNO92V0B9,3233,136231_0.1262626262626263.png,8,10,live
809,ANVLK95ONV5DL:3X4JMASXCOG50I0FMV80HDNO92V0B9,2027,136246_0.2777777777777778.png,6,11,live
810,ANVLK95ONV5DL:3X4JMASXCOG50I0FMV80HDNO92V0B9,4752,136181_-0.3787878787878788.png,7,13,live
811,ANVLK95ONV5DL:3X4JMASXCOG50I0FMV80HDNO92V0B9,2264,136235_0.16666666666666674.png,8,14,live
812,ANVLK95ONV5DL:3X4JMASXCOG50I0FMV80HDNO92V0B9,3876,136265_0.4696969696969697.png,5,15,live
813,ANVLK95ONV5DL:3X4JMASXCOG50I0FMV80HDNO92V0B9,1837,136263_0.4494949494949496.png,6,16,live
814,ANVLK95ONV5DL:3X4JMASXCOG50I0FMV80HDNO92V0B9,2077,136228_0.09595959595959602.png,7,17,live
815,ANVLK95ONV5DL:3X4JMASXCOG50I0FMV80HDNO92V0B9,4165,136191_-0.2777777777777778.png,8,18,live
816,ANVLK95ONV5DL:3X4JMASXCOG50I0FMV80HDNO92V0B9,4070,136250_0.31818181818181823.png,8,19,live
817,ANVLK95ONV5DL:3X4JMASXCOG50I0FMV80HDNO92V0B9,4021,136201_-0.17676767676767674.png,6,20,live
818,ANVLK95ONV5DL:3X4JMASXCOG50I0FMV80HDNO92V0B9,2616,136268_0.5.png,6,21,live
819,ANVLK95ONV5DL:3X4JMASXCOG50I0FMV80HDNO92V0B9,1703,136230_0.11616161616161624.png,7,22,live
820,ANVLK95ONV5DL:3X4JMASXCOG50I0FMV80HDNO92V0B9,3002,136176_-0.4292929292929293.png,8,24,live
821,ANVLK95ONV5DL:3X4JMASXCOG50I0FMV80HDNO92V0B9,1942,136190_-0.28787878787878785.png,9,25,live
822,ANVLK95ONV5DL:3X4JMASXCOG50I0FMV80HDNO92V0B9,26553,136259_0.40909090909090917.png,8,26,live
823,ANVLK95ONV5DL:3X4JMASXCOG50I0FMV80HDNO92V0B9,2123,136223_0.045454545454545525.png,7,27,live
824,ANVLK95ONV5DL:3X4JMASXCOG50I0FMV80HDNO92V0B9,1994,136251_0.3282828282828284.png,8,28,live
825,ANVLK95ONV5DL:3X4JMASXCOG50I0FMV80HDNO92V0B9,2257,136256_0.3787878787878789.png,7,29,live
826,ANVLK95ONV5DL:3X4JMASXCOG50I0FMV80HDNO92V0B9,1933,136174_-0.4494949494949495.png,6,30,live
827,ANVLK95ONV5DL:3X4JMASXCOG50I0FMV80HDNO92V0B9,2731,136172_-0.4696969696969697.png,8,31,live
828,ANVLK95ONV5DL:3X4JMASXCOG50I0FMV80HDNO92V0B9,1919,136182_-0.3686868686868687.png,9,32,live
829,ANVLK95ONV5DL:3X4JMASXCOG50I0FMV80HDNO92V0B9,1707,136206_-0.12626262626262624.png,8,33,live
830,ANVLK95ONV5DL:3X4JMASXCOG50I0FMV80HDNO92V0B9,4561,136237_0.18686868686868696.png,9,35,live
831,ANVLK95ONV5DL:3X4JMASXCOG50I0FMV80HDNO92V0B9,2230,136176_-0.4292929292929293.png,8,36,live
832,ANVLK95ONV5DL:3X4JMASXCOG50I0FMV80HDNO92V0B9,2741,136257_0.38888888888888895.png,7,37,live
833,ANVLK95ONV5DL:3X4JMASXCOG50I0FMV80HDNO92V0B9,1781,136254_0.3585858585858587.png,8,38,live
834,ANVLK95ONV5DL:3X4JMASXCOG50I0FMV80HDNO92V0B9,1807,136249_0.3080808080808082.png,5,39,live
835,ANVLK95ONV5DL:3X4JMASXCOG50I0FMV80HDNO92V0B9,1511,136219_0.005050505050505083.png,6,40,live
836,ANVLK95ONV5DL:3X4JMASXCOG50I0FMV80HDNO92V0B9,1969,136193_-0.25757575757575757.png,7,41,live
837,ANVLK95ONV5DL:3X4JMASXCOG50I0FMV80HDNO92V0B9,1804,136177_-0.41919191919191917.png,8,42,live
838,ANVLK95ONV5DL:3X4JMASXCOG50I0FMV80HDNO92V0B9,3901,136222_0.03535353535353536.png,9,43,live
839,ANVLK95ONV5DL:3X4JMASXCOG50I0FMV80HDNO92V0B9,14021,136239_0.20707070707070718.png,7,44,live
840,ANVLK95ONV5DL:3X4JMASXCOG50I0FMV80HDNO92V0B9,3257,136259_0.40909090909090917.png,8,46,live
841,ANVLK95ONV5DL:3X4JMASXCOG50I0FMV80HDNO92V0B9,2757,136203_-0.15656565656565652.png,6,47,live
842,ANVLK95ONV5DL:3X4JMASXCOG50I0FMV80HDNO92V0B9,1764,136226_0.0757575757575758.png,7,48,live
843,ANVLK95ONV5DL:3X4JMASXCOG50I0FMV80HDNO92V0B9,1868,136188_-0.30808080808080807.png,8,49,live
844,ANVLK95ONV5DL:3X4JMASXCOG50I0FMV80HDNO92V0B9,2202,136255_0.36868686868686873.png,9,50,live
845,ANVLK95ONV5DL:3X4JMASXCOG50I0FMV80HDNO92V0B9,4177,136261_0.4292929292929294.png,7,51,live
846,ANVLK95ONV5DL:3X4JMASXCOG50I0FMV80HDNO92V0B9,2200,136173_-0.4595959595959596.png,8,52,live
847,ANVLK95ONV5DL:3X4JMASXCOG50I0FMV80HDNO92V0B9,2114,136187_-0.3181818181818182.png,6,53,live
848,ANVLK95ONV5DL:3X4JMASXCOG50I0FMV80HDNO92V0B9,3769,136217_-0.015151515151515138.png,7,54,live
849,ANVLK95ONV5DL:3X4JMASXCOG50I0FMV80HDNO92V0B9,3147,136204_-0.1464646464646464.png,8,55,live
850,ANVLK95ONV5DL:3X4JMASXCOG50I0FMV80HDNO92V0B9,2341,136178_-0.40909090909090906.png,9,57,live
851,ANVLK95ONV5DL:3X4JMASXCOG50I0FMV80HDNO92V0B9,1655,136209_-0.09595959595959591.png,8,58,live
852,ANVLK95ONV5DL:3X4JMASXCOG50I0FMV80HDNO92V0B9,1489,136252_0.33838383838383845.png,7,59,live
853,ANVLK95ONV5DL:3X4JMASXCOG50I0FMV80HDNO92V0B9,1340,136198_-0.20707070707070707.png,6,60,live
854,ANVLK95ONV5DL:3X4JMASXCOG50I0FMV80HDNO92V0B9,1193,136171_-0.4797979797979798.png,5,61,live
855,ANVLK95ONV5DL:3X4JMASXCOG50I0FMV80HDNO92V0B9,1783,136200_-0.18686868686868685.png,6,62,live
856,ANVLK95ONV5DL:3X4JMASXCOG50I0FMV80HDNO92V0B9,1498,136185_-0.33838383838383834.png,7,63,live
857,ANVLK95ONV5DL:3X4JMASXCOG50I0FMV80HDNO92V0B9,1523,136198_-0.20707070707070707.png,8,64,live
858,ANVLK95ONV5DL:3X4JMASXCOG50I0FMV80HDNO92V0B9,1922,136264_0.45959595959595967.png,9,65,live
859,ANVLK95ONV5DL:3X4JMASXCOG50I0FMV80HDNO92V0B9,2847,136256_0.3787878787878789.png,7,66,live
860,ANVLK95ONV5DL:3X4JMASXCOG50I0FMV80HDNO92V0B9,5899,136229_0.10606060606060608.png,8,68,live
861,ANVLK95ONV5DL:3X4JMASXCOG50I0FMV80HDNO92V0B9,1756,136183_-0.35858585858585856.png,7,69,live
862,ANVLK95ONV5DL:3X4JMASXCOG50I0FMV80HDNO92V0B9,1966,136169_-0.5.png,8,70,live
863,ANVLK95ONV5DL:3X4JMASXCOG50I0FMV80HDNO92V0B9,1899,136257_0.38888888888888895.png,4,71,live
864,ANVLK95ONV5DL:3X4JMASXCOG50I0FMV80HDNO92V0B9,1505,136239_0.20707070707070718.png,5,72,live
865,ANVLK95ONV5DL:3X4JMASXCOG50I0FMV80HDNO92V0B9,1995,136262_0.43939393939393945.png,3,73,live
866,ANVLK95ONV5DL:3X4JMASXCOG50I0FMV80HDNO92V0B9,1726,136179_-0.398989898989899.png,2,74,live
867,ANVLK95ONV5DL:3X4JMASXCOG50I0FMV80HDNO92V0B9,1488,136241_0.2272727272727273.png,7,75,live
868,ANVLK95ONV5DL:3X4JMASXCOG50I0FMV80HDNO92V0B9,1644,136258_0.3989898989898991.png,8,76,live
869,ANVLK95ONV5DL:3X4JMASXCOG50I0FMV80HDNO92V0B9,1554,136170_-0.4898989898989899.png,9,77,live
870,ANVLK95ONV5DL:3X4JMASXCOG50I0FMV80HDNO92V0B9,2177,136211_-0.07575757575757575.png,7,79,live
871,ANVLK95ONV5DL:3X4JMASXCOG50I0FMV80HDNO92V0B9,1974,136223_0.045454545454545525.png,8,80,live
872,ANVLK95ONV5DL:3X4JMASXCOG50I0FMV80HDNO92V0B9,2144,136206_-0.12626262626262624.png,9,81,live
873,ANVLK95ONV5DL:3X4JMASXCOG50I0FMV80HDNO92V0B9,1367,136260_0.4191919191919192.png,5,82,live
874,ANVLK95ONV5DL:3X4JMASXCOG50I0FMV80HDNO92V0B9,1378,136188_-0.30808080808080807.png,6,83,live
875,ANVLK95ONV5DL:3X4JMASXCOG50I0FMV80HDNO92V0B9,2914,136242_0.23737373737373746.png,7,84,live
876,ANVLK95ONV5DL:3X4JMASXCOG50I0FMV80HDNO92V0B9,1953,136181_-0.3787878787878788.png,8,85,live
877,ANVLK95ONV5DL:3X4JMASXCOG50I0FMV80HDNO92V0B9,2212,136218_-0.0050505050505050275.png,9,86,live
878,ANVLK95ONV5DL:3X4JMASXCOG50I0FMV80HDNO92V0B9,1892,136187_-0.3181818181818182.png,8,87,live
879,ANVLK95ONV5DL:3X4JMASXCOG50I0FMV80HDNO92V0B9,1405,136215_-0.035353535353535304.png,5,88,live
880,ANVLK95ONV5DL:3X4JMASXCOG50I0FMV80HDNO92V0B9,1976,136234_0.15656565656565657.png,7,90,live
881,ANVLK95ONV5DL:3X4JMASXCOG50I0FMV80HDNO92V0B9,1496,136221_0.025252525252525304.png,8,91,live
882,ANVLK95ONV5DL:3X4JMASXCOG50I0FMV80HDNO92V0B9,1719,136189_-0.29797979797979796.png,9,92,live
883,ANVLK95ONV5DL:3X4JMASXCOG50I0FMV80HDNO92V0B9,1748,136195_-0.23737373737373735.png,8,93,live
884,ANVLK95ONV5DL:3X4JMASXCOG50I0FMV80HDNO92V0B9,3563,136175_-0.4393939393939394.png,5,94,live
885,ANVLK95ONV5DL:3X4JMASXCOG50I0FMV80HDNO92V0B9,2082,136240_0.21717171717171724.png,4,95,live
886,ANVLK95ONV5DL:3X4JMASXCOG50I0FMV80HDNO92V0B9,3149,136199_-0.19696969696969696.png,3,96,live
887,ANVLK95ONV5DL:3X4JMASXCOG50I0FMV80HDNO92V0B9,1796,136189_-0.29797979797979796.png,6,97,live
888,ANVLK95ONV5DL:3X4JMASXCOG50I0FMV80HDNO92V0B9,1691,136247_0.28787878787878796.png,7,98,live
889,ANVLK95ONV5DL:3X4JMASXCOG50I0FMV80HDNO92V0B9,1650,136253_0.3484848484848485.png,8,99,live
890,ANVLK95ONV5DL:3X4JMASXCOG50I0FMV80HDNO92V0B9,4727,136238_0.19696969696969702.png,8,101,live
891,ANVLK95ONV5DL:3X4JMASXCOG50I0FMV80HDNO92V0B9,2563,136227_0.08585858585858586.png,7,102,live
892,ANVLK95ONV5DL:3X4JMASXCOG50I0FMV80HDNO92V0B9,1618,136265_0.4696969696969697.png,6,103,live
893,ANVLK95ONV5DL:3X4JMASXCOG50I0FMV80HDNO92V0B9,1429,136231_0.1262626262626263.png,5,104,live
894,ANVLK95ONV5DL:3X4JMASXCOG50I0FMV80HDNO92V0B9,1830,136235_0.16666666666666674.png,8,105,live
895,ANVLK95ONV5DL:3X4JMASXCOG50I0FMV80HDNO92V0B9,4358,136202_-0.16666666666666663.png,9,106,live
896,ANVLK95ONV5DL:3X4JMASXCOG50I0FMV80HDNO92V0B9,2857,136215_-0.035353535353535304.png,8,107,live
897,ANVLK95ONV5DL:3X4JMASXCOG50I0FMV80HDNO92V0B9,2101,136220_0.015151515151515249.png,8,108,live
898,ANVLK95ONV5DL:3X4JMASXCOG50I0FMV80HDNO92V0B9,1755,136213_-0.055555555555555525.png,7,109,live
899,ANVLK95ONV5DL:3X4JMASXCOG50I0FMV80HDNO92V0B9,1481,136207_-0.11616161616161613.png,8,110,live
900,A3KV9A4OE8HSU7:3I33IC7ZWH97DIY1V4CI5QWXOIUA28,4844,136219_0.005050505050505083.png,5,2,live
901,A3KV9A4OE8HSU7:3I33IC7ZWH97DIY1V4CI5QWXOIUA28,31151,136221_0.025252525252525304.png,6,3,live
902,A3KV9A4OE8HSU7:3I33IC7ZWH97DIY1V4CI5QWXOIUA28,3769,136177_-0.41919191919191917.png,4,4,live
903,A3KV9A4OE8HSU7:3I33IC7ZWH97DIY1V4CI5QWXOIUA28,2627,136183_-0.35858585858585856.png,7,5,live
904,A3KV9A4OE8HSU7:3I33IC7ZWH97DIY1V4CI5QWXOIUA28,2566,136188_-0.30808080808080807.png,6,6,live
905,A3KV9A4OE8HSU7:3I33IC7ZWH97DIY1V4CI5QWXOIUA28,2577,136265_0.4696969696969697.png,7,7,live
906,A3KV9A4OE8HSU7:3I33IC7ZWH97DIY1V4CI5QWXOIUA28,3268,136198_-0.20707070707070707.png,8,8,live
907,A3KV9A4OE8HSU7:3I33IC7ZWH97DIY1V4CI5QWXOIUA28,2846,136215_-0.035353535353535304.png,6,9,live
908,A3KV9A4OE8HSU7:3I33IC7ZWH97DIY1V4CI5QWXOIUA28,4942,136239_0.20707070707070718.png,7,10,live
909,A3KV9A4OE8HSU7:3I33IC7ZWH97DIY1V4CI5QWXOIUA28,50905,136193_-0.25757575757575757.png,6,11,live
910,A3KV9A4OE8HSU7:3I33IC7ZWH97DIY1V4CI5QWXOIUA28,5705,136204_-0.1464646464646464.png,5,13,live
911,A3KV9A4OE8HSU7:3I33IC7ZWH97DIY1V4CI5QWXOIUA28,3017,136176_-0.4292929292929293.png,6,14,live
912,A3KV9A4OE8HSU7:3I33IC7ZWH97DIY1V4CI5QWXOIUA28,4233,136190_-0.28787878787878785.png,7,15,live
913,A3KV9A4OE8HSU7:3I33IC7ZWH97DIY1V4CI5QWXOIUA28,6835,136240_0.21717171717171724.png,6,16,live
914,A3KV9A4OE8HSU7:3I33IC7ZWH97DIY1V4CI5QWXOIUA28,3142,136175_-0.4393939393939394.png,4,17,live
915,A3KV9A4OE8HSU7:3I33IC7ZWH97DIY1V4CI5QWXOIUA28,2415,136172_-0.4696969696969697.png,7,18,live
916,A3KV9A4OE8HSU7:3I33IC7ZWH97DIY1V4CI5QWXOIUA28,6233,136198_-0.20707070707070707.png,5,19,live
917,A3KV9A4OE8HSU7:3I33IC7ZWH97DIY1V4CI5QWXOIUA28,72949,136249_0.3080808080808082.png,5,20,live
918,A3KV9A4OE8HSU7:3I33IC7ZWH97DIY1V4CI5QWXOIUA28,9618,136191_-0.2777777777777778.png,6,21,live
919,A3KV9A4OE8HSU7:3I33IC7ZWH97DIY1V4CI5QWXOIUA28,2763,136173_-0.4595959595959596.png,8,22,live
920,A3KV9A4OE8HSU7:3I33IC7ZWH97DIY1V4CI5QWXOIUA28,2957,136209_-0.09595959595959591.png,5,24,live
921,A3KV9A4OE8HSU7:3I33IC7ZWH97DIY1V4CI5QWXOIUA28,70796,136257_0.38888888888888895.png,4,25,live
922,A3KV9A4OE8HSU7:3I33IC7ZWH97DIY1V4CI5QWXOIUA28,2919,136246_0.2777777777777778.png,5,26,live
923,A3KV9A4OE8HSU7:3I33IC7ZWH97DIY1V4CI5QWXOIUA28,4743,136263_0.4494949494949496.png,6,27,live
924,A3KV9A4OE8HSU7:3I33IC7ZWH97DIY1V4CI5QWXOIUA28,2513,136213_-0.055555555555555525.png,4,28,live
925,A3KV9A4OE8HSU7:3I33IC7ZWH97DIY1V4CI5QWXOIUA28,19665,136227_0.08585858585858586.png,7,29,live
926,A3KV9A4OE8HSU7:3I33IC7ZWH97DIY1V4CI5QWXOIUA28,3264,136241_0.2272727272727273.png,4,30,live
927,A3KV9A4OE8HSU7:3I33IC7ZWH97DIY1V4CI5QWXOIUA28,3343,136259_0.40909090909090917.png,8,31,live
928,A3KV9A4OE8HSU7:3I33IC7ZWH97DIY1V4CI5QWXOIUA28,3855,136249_0.3080808080808082.png,5,32,live
929,A3KV9A4OE8HSU7:3I33IC7ZWH97DIY1V4CI5QWXOIUA28,4967,136256_0.3787878787878789.png,5,33,live
930,A3KV9A4OE8HSU7:3I33IC7ZWH97DIY1V4CI5QWXOIUA28,10493,136256_0.3787878787878789.png,3,35,live
931,A3KV9A4OE8HSU7:3I33IC7ZWH97DIY1V4CI5QWXOIUA28,2458,136206_-0.12626262626262624.png,7,36,live
932,A3KV9A4OE8HSU7:3I33IC7ZWH97DIY1V4CI5QWXOIUA28,3810,136237_0.18686868686868696.png,5,37,live
933,A3KV9A4OE8HSU7:3I33IC7ZWH97DIY1V4CI5QWXOIUA28,10827,136238_0.19696969696969702.png,6,38,live
934,A3KV9A4OE8HSU7:3I33IC7ZWH97DIY1V4CI5QWXOIUA28,10296,136171_-0.4797979797979798.png,5,39,live
935,A3KV9A4OE8HSU7:3I33IC7ZWH97DIY1V4CI5QWXOIUA28,6101,136255_0.36868686868686873.png,7,40,live
936,A3KV9A4OE8HSU7:3I33IC7ZWH97DIY1V4CI5QWXOIUA28,12071,136184_-0.3484848484848485.png,5,41,live
937,A3KV9A4OE8HSU7:3I33IC7ZWH97DIY1V4CI5QWXOIUA28,3606,136222_0.03535353535353536.png,6,42,live
938,A3KV9A4OE8HSU7:3I33IC7ZWH97DIY1V4CI5QWXOIUA28,9857,136262_0.43939393939393945.png,7,43,live
939,A3KV9A4OE8HSU7:3I33IC7ZWH97DIY1V4CI5QWXOIUA28,3521,136231_0.1262626262626263.png,5,44,live
940,A3KV9A4OE8HSU7:3I33IC7ZWH97DIY1V4CI5QWXOIUA28,3235,136220_0.015151515151515249.png,5,46,live
941,A3KV9A4OE8HSU7:3I33IC7ZWH97DIY1V4CI5QWXOIUA28,31195,136261_0.4292929292929294.png,6,47,live
942,A3KV9A4OE8HSU7:3I33IC7ZWH97DIY1V4CI5QWXOIUA28,2807,136252_0.33838383838383845.png,5,48,live
943,A3KV9A4OE8HSU7:3I33IC7ZWH97DIY1V4CI5QWXOIUA28,2605,136228_0.09595959595959602.png,8,49,live
944,A3KV9A4OE8HSU7:3I33IC7ZWH97DIY1V4CI5QWXOIUA28,4225,136226_0.0757575757575758.png,7,50,live
945,A3KV9A4OE8HSU7:3I33IC7ZWH97DIY1V4CI5QWXOIUA28,33726,136188_-0.30808080808080807.png,5,51,live
946,A3KV9A4OE8HSU7:3I33IC7ZWH97DIY1V4CI5QWXOIUA28,4681,136182_-0.3686868686868687.png,6,52,live
947,A3KV9A4OE8HSU7:3I33IC7ZWH97DIY1V4CI5QWXOIUA28,3326,136179_-0.398989898989899.png,5,53,live
948,A3KV9A4OE8HSU7:3I33IC7ZWH97DIY1V4CI5QWXOIUA28,2783,136218_-0.0050505050505050275.png,6,54,live
949,A3KV9A4OE8HSU7:3I33IC7ZWH97DIY1V4CI5QWXOIUA28,2194,136251_0.3282828282828284.png,7,55,live
950,A3KV9A4OE8HSU7:3I33IC7ZWH97DIY1V4CI5QWXOIUA28,20494,136200_-0.18686868686868685.png,4,57,live
951,A3KV9A4OE8HSU7:3I33IC7ZWH97DIY1V4CI5QWXOIUA28,2827,136254_0.3585858585858587.png,6,58,live
952,A3KV9A4OE8HSU7:3I33IC7ZWH97DIY1V4CI5QWXOIUA28,2799,136253_0.3484848484848485.png,5,59,live
953,A3KV9A4OE8HSU7:3I33IC7ZWH97DIY1V4CI5QWXOIUA28,4728,136265_0.4696969696969697.png,5,60,live
954,A3KV9A4OE8HSU7:3I33IC7ZWH97DIY1V4CI5QWXOIUA28,2676,136202_-0.16666666666666663.png,6,61,live
955,A3KV9A4OE8HSU7:3I33IC7ZWH97DIY1V4CI5QWXOIUA28,2884,136189_-0.29797979797979796.png,7,62,live
956,A3KV9A4OE8HSU7:3I33IC7ZWH97DIY1V4CI5QWXOIUA28,15208,136231_0.1262626262626263.png,6,63,live
957,A3KV9A4OE8HSU7:3I33IC7ZWH97DIY1V4CI5QWXOIUA28,2718,136215_-0.035353535353535304.png,7,64,live
958,A3KV9A4OE8HSU7:3I33IC7ZWH97DIY1V4CI5QWXOIUA28,3037,136207_-0.11616161616161613.png,3,65,live
959,A3KV9A4OE8HSU7:3I33IC7ZWH97DIY1V4CI5QWXOIUA28,2935,136187_-0.3181818181818182.png,6,66,live
960,A3KV9A4OE8HSU7:3I33IC7ZWH97DIY1V4CI5QWXOIUA28,10646,136268_0.5.png,7,68,live
961,A3KV9A4OE8HSU7:3I33IC7ZWH97DIY1V4CI5QWXOIUA28,2619,136235_0.16666666666666674.png,6,69,live
962,A3KV9A4OE8HSU7:3I33IC7ZWH97DIY1V4CI5QWXOIUA28,2687,136229_0.10606060606060608.png,4,70,live
963,A3KV9A4OE8HSU7:3I33IC7ZWH97DIY1V4CI5QWXOIUA28,10779,136217_-0.015151515151515138.png,5,71,live
964,A3KV9A4OE8HSU7:3I33IC7ZWH97DIY1V4CI5QWXOIUA28,20233,136170_-0.4898989898989899.png,4,72,live
965,A3KV9A4OE8HSU7:3I33IC7ZWH97DIY1V4CI5QWXOIUA28,1982,136204_-0.1464646464646464.png,6,73,live
966,A3KV9A4OE8HSU7:3I33IC7ZWH97DIY1V4CI5QWXOIUA28,34052,136201_-0.17676767676767674.png,5,74,live
967,A3KV9A4OE8HSU7:3I33IC7ZWH97DIY1V4CI5QWXOIUA28,5415,136257_0.38888888888888895.png,7,75,live
968,A3KV9A4OE8HSU7:3I33IC7ZWH97DIY1V4CI5QWXOIUA28,4186,136174_-0.4494949494949495.png,5,76,live
969,A3KV9A4OE8HSU7:3I33IC7ZWH97DIY1V4CI5QWXOIUA28,3277,136260_0.4191919191919192.png,4,77,live
970,A3KV9A4OE8HSU7:3I33IC7ZWH97DIY1V4CI5QWXOIUA28,3414,136239_0.20707070707070718.png,6,79,live
971,A3KV9A4OE8HSU7:3I33IC7ZWH97DIY1V4CI5QWXOIUA28,20097,136178_-0.40909090909090906.png,5,80,live
972,A3KV9A4OE8HSU7:3I33IC7ZWH97DIY1V4CI5QWXOIUA28,3171,136176_-0.4292929292929293.png,7,81,live
973,A3KV9A4OE8HSU7:3I33IC7ZWH97DIY1V4CI5QWXOIUA28,3915,136189_-0.29797979797979796.png,7,82,live
974,A3KV9A4OE8HSU7:3I33IC7ZWH97DIY1V4CI5QWXOIUA28,102744,136234_0.15656565656565657.png,6,83,live
975,A3KV9A4OE8HSU7:3I33IC7ZWH97DIY1V4CI5QWXOIUA28,11019,136223_0.045454545454545525.png,7,84,live
976,A3KV9A4OE8HSU7:3I33IC7ZWH97DIY1V4CI5QWXOIUA28,2565,136195_-0.23737373737373735.png,4,85,live
977,A3KV9A4OE8HSU7:3I33IC7ZWH97DIY1V4CI5QWXOIUA28,3165,136264_0.45959595959595967.png,5,86,live
978,A3KV9A4OE8HSU7:3I33IC7ZWH97DIY1V4CI5QWXOIUA28,3375,136211_-0.07575757575757575.png,7,87,live
979,A3KV9A4OE8HSU7:3I33IC7ZWH97DIY1V4CI5QWXOIUA28,13796,136250_0.31818181818181823.png,3,88,live
980,A3KV9A4OE8HSU7:3I33IC7ZWH97DIY1V4CI5QWXOIUA28,18049,136187_-0.3181818181818182.png,6,90,live
981,A3KV9A4OE8HSU7:3I33IC7ZWH97DIY1V4CI5QWXOIUA28,2430,136225_0.06565656565656575.png,5,91,live
982,A3KV9A4OE8HSU7:3I33IC7ZWH97DIY1V4CI5QWXOIUA28,2293,136259_0.40909090909090917.png,6,92,live
983,A3KV9A4OE8HSU7:3I33IC7ZWH97DIY1V4CI5QWXOIUA28,1975,136185_-0.33838383838383834.png,4,93,live
984,A3KV9A4OE8HSU7:3I33IC7ZWH97DIY1V4CI5QWXOIUA28,2697,136169_-0.5.png,5,94,live
985,A3KV9A4OE8HSU7:3I33IC7ZWH97DIY1V4CI5QWXOIUA28,2095,136171_-0.4797979797979798.png,6,95,live
986,A3KV9A4OE8HSU7:3I33IC7ZWH97DIY1V4CI5QWXOIUA28,3916,136196_-0.22727272727272724.png,5,96,live
987,A3KV9A4OE8HSU7:3I33IC7ZWH97DIY1V4CI5QWXOIUA28,10527,136242_0.23737373737373746.png,7,97,live
988,A3KV9A4OE8HSU7:3I33IC7ZWH97DIY1V4CI5QWXOIUA28,5799,136235_0.16666666666666674.png,5,98,live
989,A3KV9A4OE8HSU7:3I33IC7ZWH97DIY1V4CI5QWXOIUA28,5438,136181_-0.3787878787878788.png,6,99,live
990,A3KV9A4OE8HSU7:3I33IC7ZWH97DIY1V4CI5QWXOIUA28,14878,136223_0.045454545454545525.png,5,101,live
991,A3KV9A4OE8HSU7:3I33IC7ZWH97DIY1V4CI5QWXOIUA28,3267,136203_-0.15656565656565652.png,8,102,live
992,A3KV9A4OE8HSU7:3I33IC7ZWH97DIY1V4CI5QWXOIUA28,1975,136181_-0.3787878787878788.png,7,103,live
993,A3KV9A4OE8HSU7:3I33IC7ZWH97DIY1V4CI5QWXOIUA28,2284,136247_0.28787878787878796.png,5,104,live
994,A3KV9A4OE8HSU7:3I33IC7ZWH97DIY1V4CI5QWXOIUA28,4885,136199_-0.19696969696969696.png,6,105,live
995,A3KV9A4OE8HSU7:3I33IC7ZWH97DIY1V4CI5QWXOIUA28,2708,136258_0.3989898989898991.png,4,106,live
996,A3KV9A4OE8HSU7:3I33IC7ZWH97DIY1V4CI5QWXOIUA28,6397,136185_-0.33838383838383834.png,5,107,live
997,A3KV9A4OE8HSU7:3I33IC7ZWH97DIY1V4CI5QWXOIUA28,2290,136206_-0.12626262626262624.png,6,108,live
998,A3KV9A4OE8HSU7:3I33IC7ZWH97DIY1V4CI5QWXOIUA28,3785,136230_0.11616161616161624.png,3,109,live
999,A3KV9A4OE8HSU7:3I33IC7ZWH97DIY1V4CI5QWXOIUA28,2305,136208_-0.10606060606060602.png,4,110,live
1000,A2DWC6B834QB1X:3OSWBBLG1G46C54A33ODLHYZMURXD7,3511,136249_0.3080808080808082.png,4,2,live
1001,A2DWC6B834QB1X:3OSWBBLG1G46C54A33ODLHYZMURXD7,3741,136259_0.40909090909090917.png,9,3,live
1002,A2DWC6B834QB1X:3OSWBBLG1G46C54A33ODLHYZMURXD7,3140,136257_0.38888888888888895.png,2,4,live
1003,A2DWC6B834QB1X:3OSWBBLG1G46C54A33ODLHYZMURXD7,3210,136206_-0.12626262626262624.png,5,5,live
1004,A2DWC6B834QB1X:3OSWBBLG1G46C54A33ODLHYZMURXD7,2619,136235_0.16666666666666674.png,5,6,live
1005,A2DWC6B834QB1X:3OSWBBLG1G46C54A33ODLHYZMURXD7,2541,136171_-0.4797979797979798.png,6,7,live
1006,A2DWC6B834QB1X:3OSWBBLG1G46C54A33ODLHYZMURXD7,2438,136234_0.15656565656565657.png,7,8,live
1007,A2DWC6B834QB1X:3OSWBBLG1G46C54A33ODLHYZMURXD7,2707,136172_-0.4696969696969697.png,7,9,live
1008,A2DWC6B834QB1X:3OSWBBLG1G46C54A33ODLHYZMURXD7,2785,136207_-0.11616161616161613.png,8,10,live
1009,A2DWC6B834QB1X:3OSWBBLG1G46C54A33ODLHYZMURXD7,2905,136239_0.20707070707070718.png,6,11,live
1010,A2DWC6B834QB1X:3OSWBBLG1G46C54A33ODLHYZMURXD7,2083,136231_0.1262626262626263.png,6,13,live
1011,A2DWC6B834QB1X:3OSWBBLG1G46C54A33ODLHYZMURXD7,2829,136195_-0.23737373737373735.png,3,14,live
1012,A2DWC6B834QB1X:3OSWBBLG1G46C54A33ODLHYZMURXD7,3109,136223_0.045454545454545525.png,2,15,live
1013,A2DWC6B834QB1X:3OSWBBLG1G46C54A33ODLHYZMURXD7,3210,136181_-0.3787878787878788.png,8,16,live
1014,A2DWC6B834QB1X:3OSWBBLG1G46C54A33ODLHYZMURXD7,3045,136188_-0.30808080808080807.png,2,17,live
1015,A2DWC6B834QB1X:3OSWBBLG1G46C54A33ODLHYZMURXD7,2445,136227_0.08585858585858586.png,8,18,live
1016,A2DWC6B834QB1X:3OSWBBLG1G46C54A33ODLHYZMURXD7,2683,136241_0.2272727272727273.png,7,19,live
1017,A2DWC6B834QB1X:3OSWBBLG1G46C54A33ODLHYZMURXD7,2428,136213_-0.055555555555555525.png,7,20,live
1018,A2DWC6B834QB1X:3OSWBBLG1G46C54A33ODLHYZMURXD7,3092,136255_0.36868686868686873.png,8,21,live
1019,A2DWC6B834QB1X:3OSWBBLG1G46C54A33ODLHYZMURXD7,2516,136202_-0.16666666666666663.png,4,22,live
1020,A2DWC6B834QB1X:3OSWBBLG1G46C54A33ODLHYZMURXD7,2005,136246_0.2777777777777778.png,5,24,live
1021,A2DWC6B834QB1X:3OSWBBLG1G46C54A33ODLHYZMURXD7,2265,136268_0.5.png,6,25,live
1022,A2DWC6B834QB1X:3OSWBBLG1G46C54A33ODLHYZMURXD7,2152,136220_0.015151515151515249.png,7,26,live
1023,A2DWC6B834QB1X:3OSWBBLG1G46C54A33ODLHYZMURXD7,2516,136222_0.03535353535353536.png,8,27,live
1024,A2DWC6B834QB1X:3OSWBBLG1G46C54A33ODLHYZMURXD7,2348,136189_-0.29797979797979796.png,7,28,live
1025,A2DWC6B834QB1X:3OSWBBLG1G46C54A33ODLHYZMURXD7,3900,136208_-0.10606060606060602.png,6,29,live
1026,A2DWC6B834QB1X:3OSWBBLG1G46C54A33ODLHYZMURXD7,2419,136203_-0.15656565656565652.png,6,30,live
1027,A2DWC6B834QB1X:3OSWBBLG1G46C54A33ODLHYZMURXD7,4181,136265_0.4696969696969697.png,6,31,live
1028,A2DWC6B834QB1X:3OSWBBLG1G46C54A33ODLHYZMURXD7,2256,136260_0.4191919191919192.png,5,32,live
1029,A2DWC6B834QB1X:3OSWBBLG1G46C54A33ODLHYZMURXD7,25428,136200_-0.18686868686868685.png,7,33,live
1030,A2DWC6B834QB1X:3OSWBBLG1G46C54A33ODLHYZMURXD7,1790,136256_0.3787878787878789.png,6,35,live
1031,A2DWC6B834QB1X:3OSWBBLG1G46C54A33ODLHYZMURXD7,1971,136242_0.23737373737373746.png,7,36,live
1032,A2DWC6B834QB1X:3OSWBBLG1G46C54A33ODLHYZMURXD7,1627,136179_-0.398989898989899.png,8,37,live
1033,A2DWC6B834QB1X:3OSWBBLG1G46C54A33ODLHYZMURXD7,1904,136182_-0.3686868686868687.png,8,38,live
1034,A2DWC6B834QB1X:3OSWBBLG1G46C54A33ODLHYZMURXD7,3367,136217_-0.015151515151515138.png,2,39,live
1035,A2DWC6B834QB1X:3OSWBBLG1G46C54A33ODLHYZMURXD7,4203,136228_0.09595959595959602.png,6,40,live
1036,A2DWC6B834QB1X:3OSWBBLG1G46C54A33ODLHYZMURXD7,2738,136181_-0.3787878787878788.png,8,41,live
1037,A2DWC6B834QB1X:3OSWBBLG1G46C54A33ODLHYZMURXD7,3707,136211_-0.07575757575757575.png,7,42,live
1038,A2DWC6B834QB1X:3OSWBBLG1G46C54A33ODLHYZMURXD7,3763,136175_-0.4393939393939394.png,6,43,live
1039,A2DWC6B834QB1X:3OSWBBLG1G46C54A33ODLHYZMURXD7,3438,136223_0.045454545454545525.png,7,44,live
1040,A2DWC6B834QB1X:3OSWBBLG1G46C54A33ODLHYZMURXD7,1964,136265_0.4696969696969697.png,8,46,live
1041,A2DWC6B834QB1X:3OSWBBLG1G46C54A33ODLHYZMURXD7,3324,136261_0.4292929292929294.png,7,47,live
1042,A2DWC6B834QB1X:3OSWBBLG1G46C54A33ODLHYZMURXD7,2476,136176_-0.4292929292929293.png,6,48,live
1043,A2DWC6B834QB1X:3OSWBBLG1G46C54A33ODLHYZMURXD7,2604,136188_-0.30808080808080807.png,2,49,live
