A3O1UM8O2RBC08:3WJ1OXY92CNIZX0QBLLJFH90AIMA8B,0,1548055332030,"{""rt"": 26305, ""trial_type"": ""instructions"", ""view_history"": ""[{\""page_index\"":0,\""viewing_time\"":5097},{\""page_index\"":1,\""viewing_time\"":9685},{\""page_index\"":2,\""viewing_time\"":11521}]"", ""task_type"": ""instruction"", ""task_payment"": 1, ""task_version"": 1, ""internal_node_id"": ""0.0-0.0"", ""time_elapsed"": 26312, ""debug_mode"": ""live"", ""task_name"": ""trustworthy-modifae-single"", ""task_unique_trial"": 100, ""trial_index"": 0}"
A3O1UM8O2RBC08:3WJ1OXY92CNIZX0QBLLJFH90AIMA8B,1,1548055355109,"{""rt"": 23044, ""trial_type"": ""survey-multi-choice"", ""task_type"": ""demographic-multichoice"", ""responses"": ""{\""Q0\"":\""18-25\"",\""Q1\"":\""Female\"",\""Q2\"":\""No\"",\""Q3\"":\""2\"",\""Q4\"":\""White\"",\""Q5\"":\""Associate degree (e.g. AA, AS)\"",\""Q6\"":\""$20,000  - $49,999\""}"", ""task_payment"": 1, ""task_version"": 1, ""time_elapsed"": 49392, ""sanity_check_1_continue"": true, ""random_num"": 2, ""debug_mode"": ""live"", ""questions"": ""[{\""prompt\"":\""What is your age?\"",\""options\"":[\""Under 18\"",\""18-25\"",\""26-35\"",\""36-45\"",\""46-55\"",\""56+\""],\""required\"":true},{\""prompt\"":\""What is your gender?\"",\""options\"":[\""Male\"",\""Female\"",\""Other/Prefer not to say\""],\""required\"":true},{\""prompt\"":\""Are you of Hispanic, Latino, or Spanish origin?\"",\""options\"":[\""Yes\"",\""No\""],\""required\"":true},{\""prompt\"":\""Please choose the option that matches the number here: 2\"",\""options\"":[\""1\"",\""2\"",\""3\"",\""4\""],\""required\"":true},{\""prompt\"":\""How would you describe yourself?\"",\""options\"":[\""American Indian or Alaskan Native\"",\""Asian\"",\""Black or African-American\"",\""Native Hawaiian or Other Pacific Islander\"",\""White\""],\""required\"":true},{\""prompt\"":\""What is the highest degree or level of school you have completed? (If you&#8217;re currently enrolled in school, please indicate the highest degree you have received)\"",\""options\"":[\""Less than a high school diploma\"",\""High school degree or equivalent (e.g. GED)\"",\""Some college, no degree\"",\""Associate degree (e.g. AA, AS)\"",\""Bachelor&#8217;s degree (e.g. BA, BS) or above\""],\""required\"":true},{\""prompt\"":\""What is the total income of all members of your household?\"",\""options\"":[\""Less than $20,000\"",\""$20,000  - $49,999\"",\""$50,000 - $74,999\"",\""$75,000 and above\""],\""required\"":true}]"", ""internal_node_id"": ""0.0-1.0-0.0"", ""task_unique_trial"": 100, ""task_name"": ""trustworthy-modifae-single"", ""trial_index"": 1}"
A3O1UM8O2RBC08:3WJ1OXY92CNIZX0QBLLJFH90AIMA8B,2,1548055361272,"{""rt"": 6156, ""trial_type"": ""face-likert-amanda"", ""debug_mode"": ""live"", ""task_type"": ""face trials"", ""responses"": ""{\""Q0\"":5}"", ""task_payment"": 1, ""task_version"": 1, ""internal_node_id"": ""0.0-2.0-0.0-0.0"", ""time_elapsed"": 55555, ""imgName"": ""/static/images/modifAE_linspace/trustworthy/136171_-0.4797979797979798.png"", ""questions"": ""[{\""prompt\"":\""<p>How <b>trustworthy</b> does this person look to <b>most people</b>? Rate from 1-9</p>\"",\""labels\"":[\""1 <br/><b>Not trustworthy at all</b>\"",\""2\"",\""3\"",\""4\"",\""5\"",\""6\"",\""7\"",\""8\"",\""9  <br/><b>Extremely trustworthy</b>\""],\""required\"":true}]"", ""task_unique_trial"": 100, ""task_name"": ""trustworthy-modifae-single"", ""trial_index"": 2, ""isRepeat"": 0}"
A3O1UM8O2RBC08:3WJ1OXY92CNIZX0QBLLJFH90AIMA8B,3,1548055366858,"{""rt"": 5581, ""trial_type"": ""face-likert-amanda"", ""debug_mode"": ""live"", ""task_type"": ""face trials"", ""responses"": ""{\""Q0\"":3}"", ""task_payment"": 1, ""task_version"": 1, ""internal_node_id"": ""0.0-2.0-0.0-1.0"", ""time_elapsed"": 61141, ""imgName"": ""/static/images/modifAE_linspace/trustworthy/136237_0.18686868686868696.png"", ""questions"": ""[{\""prompt\"":\""<p>How <b>trustworthy</b> does this person look to <b>most people</b>? Rate from 1-9</p>\"",\""labels\"":[\""1 <br/><b>Not trustworthy at all</b>\"",\""2\"",\""3\"",\""4\"",\""5\"",\""6\"",\""7\"",\""8\"",\""9  <br/><b>Extremely trustworthy</b>\""],\""required\"":true}]"", ""task_unique_trial"": 100, ""task_name"": ""trustworthy-modifae-single"", ""trial_index"": 3, ""isRepeat"": 0}"
A3O1UM8O2RBC08:3WJ1OXY92CNIZX0QBLLJFH90AIMA8B,4,1548055372531,"{""rt"": 5669, ""trial_type"": ""face-likert-amanda"", ""debug_mode"": ""live"", ""task_type"": ""face trials"", ""responses"": ""{\""Q0\"":6}"", ""task_payment"": 1, ""task_version"": 1, ""internal_node_id"": ""0.0-2.0-0.0-2.0"", ""time_elapsed"": 66814, ""imgName"": ""/static/images/modifAE_linspace/trustworthy/136182_-0.3686868686868687.png"", ""questions"": ""[{\""prompt\"":\""<p>How <b>trustworthy</b> does this person look to <b>most people</b>? Rate from 1-9</p>\"",\""labels\"":[\""1 <br/><b>Not trustworthy at all</b>\"",\""2\"",\""3\"",\""4\"",\""5\"",\""6\"",\""7\"",\""8\"",\""9  <br/><b>Extremely trustworthy</b>\""],\""required\"":true}]"", ""task_unique_trial"": 100, ""task_name"": ""trustworthy-modifae-single"", ""trial_index"": 4, ""isRepeat"": 0}"
A3O1UM8O2RBC08:3WJ1OXY92CNIZX0QBLLJFH90AIMA8B,5,1548055376311,"{""rt"": 3775, ""trial_type"": ""face-likert-amanda"", ""debug_mode"": ""live"", ""task_type"": ""face trials"", ""responses"": ""{\""Q0\"":7}"", ""task_payment"": 1, ""task_version"": 1, ""internal_node_id"": ""0.0-2.0-0.0-3.0"", ""time_elapsed"": 70594, ""imgName"": ""/static/images/modifAE_linspace/trustworthy/136252_0.33838383838383845.png"", ""questions"": ""[{\""prompt\"":\""<p>How <b>trustworthy</b> does this person look to <b>most people</b>? Rate from 1-9</p>\"",\""labels\"":[\""1 <br/><b>Not trustworthy at all</b>\"",\""2\"",\""3\"",\""4\"",\""5\"",\""6\"",\""7\"",\""8\"",\""9  <br/><b>Extremely trustworthy</b>\""],\""required\"":true}]"", ""task_unique_trial"": 100, ""task_name"": ""trustworthy-modifae-single"", ""trial_index"": 5, ""isRepeat"": 0}"
A3O1UM8O2RBC08:3WJ1OXY92CNIZX0QBLLJFH90AIMA8B,6,1548055383462,"{""rt"": 7146, ""trial_type"": ""face-likert-amanda"", ""debug_mode"": ""live"", ""task_type"": ""face trials"", ""responses"": ""{\""Q0\"":3}"", ""task_payment"": 1, ""task_version"": 1, ""internal_node_id"": ""0.0-2.0-0.0-4.0"", ""time_elapsed"": 77745, ""imgName"": ""/static/images/modifAE_linspace/trustworthy/136202_-0.16666666666666663.png"", ""questions"": ""[{\""prompt\"":\""<p>How <b>trustworthy</b> does this person look to <b>most people</b>? Rate from 1-9</p>\"",\""labels\"":[\""1 <br/><b>Not trustworthy at all</b>\"",\""2\"",\""3\"",\""4\"",\""5\"",\""6\"",\""7\"",\""8\"",\""9  <br/><b>Extremely trustworthy</b>\""],\""required\"":true}]"", ""task_unique_trial"": 100, ""task_name"": ""trustworthy-modifae-single"", ""trial_index"": 6, ""isRepeat"": 0}"
A3O1UM8O2RBC08:3WJ1OXY92CNIZX0QBLLJFH90AIMA8B,7,1548055389194,"{""rt"": 5727, ""trial_type"": ""face-likert-amanda"", ""debug_mode"": ""live"", ""task_type"": ""face trials"", ""responses"": ""{\""Q0\"":7}"", ""task_payment"": 1, ""task_version"": 1, ""internal_node_id"": ""0.0-2.0-0.0-5.0"", ""time_elapsed"": 83477, ""imgName"": ""/static/images/modifAE_linspace/trustworthy/136223_0.045454545454545525.png"", ""questions"": ""[{\""prompt\"":\""<p>How <b>trustworthy</b> does this person look to <b>most people</b>? Rate from 1-9</p>\"",\""labels\"":[\""1 <br/><b>Not trustworthy at all</b>\"",\""2\"",\""3\"",\""4\"",\""5\"",\""6\"",\""7\"",\""8\"",\""9  <br/><b>Extremely trustworthy</b>\""],\""required\"":true}]"", ""task_unique_trial"": 100, ""task_name"": ""trustworthy-modifae-single"", ""trial_index"": 7, ""isRepeat"": 0}"
A3O1UM8O2RBC08:3WJ1OXY92CNIZX0QBLLJFH90AIMA8B,8,1548055396687,"{""rt"": 7489, ""trial_type"": ""face-likert-amanda"", ""debug_mode"": ""live"", ""task_type"": ""face trials"", ""responses"": ""{\""Q0\"":5}"", ""task_payment"": 1, ""task_version"": 1, ""internal_node_id"": ""0.0-2.0-0.0-6.0"", ""time_elapsed"": 90970, ""imgName"": ""/static/images/modifAE_linspace/trustworthy/136211_-0.07575757575757575.png"", ""questions"": ""[{\""prompt\"":\""<p>How <b>trustworthy</b> does this person look to <b>most people</b>? Rate from 1-9</p>\"",\""labels\"":[\""1 <br/><b>Not trustworthy at all</b>\"",\""2\"",\""3\"",\""4\"",\""5\"",\""6\"",\""7\"",\""8\"",\""9  <br/><b>Extremely trustworthy</b>\""],\""required\"":true}]"", ""task_unique_trial"": 100, ""task_name"": ""trustworthy-modifae-single"", ""trial_index"": 8, ""isRepeat"": 0}"
A3O1UM8O2RBC08:3WJ1OXY92CNIZX0QBLLJFH90AIMA8B,9,1548055402404,"{""rt"": 5713, ""trial_type"": ""face-likert-amanda"", ""debug_mode"": ""live"", ""task_type"": ""face trials"", ""responses"": ""{\""Q0\"":4}"", ""task_payment"": 1, ""task_version"": 1, ""internal_node_id"": ""0.0-2.0-0.0-7.0"", ""time_elapsed"": 96687, ""imgName"": ""/static/images/modifAE_linspace/trustworthy/136173_-0.4595959595959596.png"", ""questions"": ""[{\""prompt\"":\""<p>How <b>trustworthy</b> does this person look to <b>most people</b>? Rate from 1-9</p>\"",\""labels\"":[\""1 <br/><b>Not trustworthy at all</b>\"",\""2\"",\""3\"",\""4\"",\""5\"",\""6\"",\""7\"",\""8\"",\""9  <br/><b>Extremely trustworthy</b>\""],\""required\"":true}]"", ""task_unique_trial"": 100, ""task_name"": ""trustworthy-modifae-single"", ""trial_index"": 9, ""isRepeat"": 0}"
A3O1UM8O2RBC08:3WJ1OXY92CNIZX0QBLLJFH90AIMA8B,10,1548055409322,"{""rt"": 6915, ""trial_type"": ""face-likert-amanda"", ""debug_mode"": ""live"", ""task_type"": ""face trials"", ""responses"": ""{\""Q0\"":6}"", ""task_payment"": 1, ""task_version"": 1, ""internal_node_id"": ""0.0-2.0-0.0-8.0"", ""time_elapsed"": 103605, ""imgName"": ""/static/images/modifAE_linspace/trustworthy/136229_0.10606060606060608.png"", ""questions"": ""[{\""prompt\"":\""<p>How <b>trustworthy</b> does this person look to <b>most people</b>? Rate from 1-9</p>\"",\""labels\"":[\""1 <br/><b>Not trustworthy at all</b>\"",\""2\"",\""3\"",\""4\"",\""5\"",\""6\"",\""7\"",\""8\"",\""9  <br/><b>Extremely trustworthy</b>\""],\""required\"":true}]"", ""task_unique_trial"": 100, ""task_name"": ""trustworthy-modifae-single"", ""trial_index"": 10, ""isRepeat"": 0}"
A3O1UM8O2RBC08:3WJ1OXY92CNIZX0QBLLJFH90AIMA8B,11,1548055414152,"{""rt"": 4826, ""trial_type"": ""face-likert-amanda"", ""debug_mode"": ""live"", ""task_type"": ""face trials"", ""responses"": ""{\""Q0\"":3}"", ""task_payment"": 1, ""task_version"": 1, ""internal_node_id"": ""0.0-2.0-0.0-9.0"", ""time_elapsed"": 108435, ""imgName"": ""/static/images/modifAE_linspace/trustworthy/136231_0.1262626262626263.png"", ""questions"": ""[{\""prompt\"":\""<p>How <b>trustworthy</b> does this person look to <b>most people</b>? Rate from 1-9</p>\"",\""labels\"":[\""1 <br/><b>Not trustworthy at all</b>\"",\""2\"",\""3\"",\""4\"",\""5\"",\""6\"",\""7\"",\""8\"",\""9  <br/><b>Extremely trustworthy</b>\""],\""required\"":true}]"", ""task_unique_trial"": 100, ""task_name"": ""trustworthy-modifae-single"", ""trial_index"": 11, ""isRepeat"": 0}"
A3O1UM8O2RBC08:3WJ1OXY92CNIZX0QBLLJFH90AIMA8B,12,1548055415162,"{""rt"": null, ""trial_type"": ""html-keyboard-response"", ""task_unique_trial"": 100, ""stimulus"": ""<p>Good job!</p>"", ""task_version"": 1, ""internal_node_id"": ""0.0-2.0-1.0"", ""task_payment"": 1, ""time_elapsed"": 109444, ""debug_mode"": ""live"", ""key_press"": null, ""task_name"": ""trustworthy-modifae-single"", ""trial_index"": 12}"
A3O1UM8O2RBC08:3WJ1OXY92CNIZX0QBLLJFH90AIMA8B,13,1548055419404,"{""rt"": 4233, ""trial_type"": ""face-likert-amanda"", ""debug_mode"": ""live"", ""task_type"": ""face trials"", ""responses"": ""{\""Q0\"":6}"", ""task_payment"": 1, ""task_version"": 1, ""internal_node_id"": ""0.0-3.0-0.0-0.0"", ""time_elapsed"": 113687, ""imgName"": ""/static/images/modifAE_linspace/trustworthy/136184_-0.3484848484848485.png"", ""questions"": ""[{\""prompt\"":\""<p>How <b>trustworthy</b> does this person look to <b>most people</b>? Rate from 1-9</p>\"",\""labels\"":[\""1 <br/><b>Not trustworthy at all</b>\"",\""2\"",\""3\"",\""4\"",\""5\"",\""6\"",\""7\"",\""8\"",\""9  <br/><b>Extremely trustworthy</b>\""],\""required\"":true}]"", ""task_unique_trial"": 100, ""task_name"": ""trustworthy-modifae-single"", ""trial_index"": 13, ""isRepeat"": 0}"
A3O1UM8O2RBC08:3WJ1OXY92CNIZX0QBLLJFH90AIMA8B,14,1548055423380,"{""rt"": 3972, ""trial_type"": ""face-likert-amanda"", ""debug_mode"": ""live"", ""task_type"": ""face trials"", ""responses"": ""{\""Q0\"":3}"", ""task_payment"": 1, ""task_version"": 1, ""internal_node_id"": ""0.0-3.0-0.0-1.0"", ""time_elapsed"": 117663, ""imgName"": ""/static/images/modifAE_linspace/trustworthy/136193_-0.25757575757575757.png"", ""questions"": ""[{\""prompt\"":\""<p>How <b>trustworthy</b> does this person look to <b>most people</b>? Rate from 1-9</p>\"",\""labels\"":[\""1 <br/><b>Not trustworthy at all</b>\"",\""2\"",\""3\"",\""4\"",\""5\"",\""6\"",\""7\"",\""8\"",\""9  <br/><b>Extremely trustworthy</b>\""],\""required\"":true}]"", ""task_unique_trial"": 100, ""task_name"": ""trustworthy-modifae-single"", ""trial_index"": 14, ""isRepeat"": 0}"
A3O1UM8O2RBC08:3WJ1OXY92CNIZX0QBLLJFH90AIMA8B,15,1548055428323,"{""rt"": 4939, ""trial_type"": ""face-likert-amanda"", ""debug_mode"": ""live"", ""task_type"": ""face trials"", ""responses"": ""{\""Q0\"":5}"", ""task_payment"": 1, ""task_version"": 1, ""internal_node_id"": ""0.0-3.0-0.0-2.0"", ""time_elapsed"": 122605, ""imgName"": ""/static/images/modifAE_linspace/trustworthy/136213_-0.055555555555555525.png"", ""questions"": ""[{\""prompt\"":\""<p>How <b>trustworthy</b> does this person look to <b>most people</b>? Rate from 1-9</p>\"",\""labels\"":[\""1 <br/><b>Not trustworthy at all</b>\"",\""2\"",\""3\"",\""4\"",\""5\"",\""6\"",\""7\"",\""8\"",\""9  <br/><b>Extremely trustworthy</b>\""],\""required\"":true}]"", ""task_unique_trial"": 100, ""task_name"": ""trustworthy-modifae-single"", ""trial_index"": 15, ""isRepeat"": 0}"
A3O1UM8O2RBC08:3WJ1OXY92CNIZX0QBLLJFH90AIMA8B,16,1548055436923,"{""rt"": 8596, ""trial_type"": ""face-likert-amanda"", ""debug_mode"": ""live"", ""task_type"": ""face trials"", ""responses"": ""{\""Q0\"":4}"", ""task_payment"": 1, ""task_version"": 1, ""internal_node_id"": ""0.0-3.0-0.0-3.0"", ""time_elapsed"": 131205, ""imgName"": ""/static/images/modifAE_linspace/trustworthy/136217_-0.015151515151515138.png"", ""questions"": ""[{\""prompt\"":\""<p>How <b>trustworthy</b> does this person look to <b>most people</b>? Rate from 1-9</p>\"",\""labels\"":[\""1 <br/><b>Not trustworthy at all</b>\"",\""2\"",\""3\"",\""4\"",\""5\"",\""6\"",\""7\"",\""8\"",\""9  <br/><b>Extremely trustworthy</b>\""],\""required\"":true}]"", ""task_unique_trial"": 100, ""task_name"": ""trustworthy-modifae-single"", ""trial_index"": 16, ""isRepeat"": 0}"
A3O1UM8O2RBC08:3WJ1OXY92CNIZX0QBLLJFH90AIMA8B,17,1548055445076,"{""rt"": 8148, ""trial_type"": ""face-likert-amanda"", ""debug_mode"": ""live"", ""task_type"": ""face trials"", ""responses"": ""{\""Q0\"":3}"", ""task_payment"": 1, ""task_version"": 1, ""internal_node_id"": ""0.0-3.0-0.0-4.0"", ""time_elapsed"": 139359, ""imgName"": ""/static/images/modifAE_linspace/trustworthy/136260_0.4191919191919192.png"", ""questions"": ""[{\""prompt\"":\""<p>How <b>trustworthy</b> does this person look to <b>most people</b>? Rate from 1-9</p>\"",\""labels\"":[\""1 <br/><b>Not trustworthy at all</b>\"",\""2\"",\""3\"",\""4\"",\""5\"",\""6\"",\""7\"",\""8\"",\""9  <br/><b>Extremely trustworthy</b>\""],\""required\"":true}]"", ""task_unique_trial"": 100, ""task_name"": ""trustworthy-modifae-single"", ""trial_index"": 17, ""isRepeat"": 0}"
A3O1UM8O2RBC08:3WJ1OXY92CNIZX0QBLLJFH90AIMA8B,18,1548055451427,"{""rt"": 6347, ""trial_type"": ""face-likert-amanda"", ""debug_mode"": ""live"", ""task_type"": ""face trials"", ""responses"": ""{\""Q0\"":5}"", ""task_payment"": 1, ""task_version"": 1, ""internal_node_id"": ""0.0-3.0-0.0-5.0"", ""time_elapsed"": 145710, ""imgName"": ""/static/images/modifAE_linspace/trustworthy/136264_0.45959595959595967.png"", ""questions"": ""[{\""prompt\"":\""<p>How <b>trustworthy</b> does this person look to <b>most people</b>? Rate from 1-9</p>\"",\""labels\"":[\""1 <br/><b>Not trustworthy at all</b>\"",\""2\"",\""3\"",\""4\"",\""5\"",\""6\"",\""7\"",\""8\"",\""9  <br/><b>Extremely trustworthy</b>\""],\""required\"":true}]"", ""task_unique_trial"": 100, ""task_name"": ""trustworthy-modifae-single"", ""trial_index"": 18, ""isRepeat"": 0}"
A3O1UM8O2RBC08:3WJ1OXY92CNIZX0QBLLJFH90AIMA8B,19,1548055456629,"{""rt"": 5197, ""trial_type"": ""face-likert-amanda"", ""debug_mode"": ""live"", ""task_type"": ""face trials"", ""responses"": ""{\""Q0\"":2}"", ""task_payment"": 1, ""task_version"": 1, ""internal_node_id"": ""0.0-3.0-0.0-6.0"", ""time_elapsed"": 150912, ""imgName"": ""/static/images/modifAE_linspace/trustworthy/136189_-0.29797979797979796.png"", ""questions"": ""[{\""prompt\"":\""<p>How <b>trustworthy</b> does this person look to <b>most people</b>? Rate from 1-9</p>\"",\""labels\"":[\""1 <br/><b>Not trustworthy at all</b>\"",\""2\"",\""3\"",\""4\"",\""5\"",\""6\"",\""7\"",\""8\"",\""9  <br/><b>Extremely trustworthy</b>\""],\""required\"":true}]"", ""task_unique_trial"": 100, ""task_name"": ""trustworthy-modifae-single"", ""trial_index"": 19, ""isRepeat"": 0}"
A3O1UM8O2RBC08:3WJ1OXY92CNIZX0QBLLJFH90AIMA8B,20,1548055460977,"{""rt"": 4343, ""trial_type"": ""face-likert-amanda"", ""debug_mode"": ""live"", ""task_type"": ""face trials"", ""responses"": ""{\""Q0\"":4}"", ""task_payment"": 1, ""task_version"": 1, ""internal_node_id"": ""0.0-3.0-0.0-7.0"", ""time_elapsed"": 155260, ""imgName"": ""/static/images/modifAE_linspace/trustworthy/136238_0.19696969696969702.png"", ""questions"": ""[{\""prompt\"":\""<p>How <b>trustworthy</b> does this person look to <b>most people</b>? Rate from 1-9</p>\"",\""labels\"":[\""1 <br/><b>Not trustworthy at all</b>\"",\""2\"",\""3\"",\""4\"",\""5\"",\""6\"",\""7\"",\""8\"",\""9  <br/><b>Extremely trustworthy</b>\""],\""required\"":true}]"", ""task_unique_trial"": 100, ""task_name"": ""trustworthy-modifae-single"", ""trial_index"": 20, ""isRepeat"": 0}"
A3O1UM8O2RBC08:3WJ1OXY92CNIZX0QBLLJFH90AIMA8B,21,1548055464794,"{""rt"": 3813, ""trial_type"": ""face-likert-amanda"", ""debug_mode"": ""live"", ""task_type"": ""face trials"", ""responses"": ""{\""Q0\"":7}"", ""task_payment"": 1, ""task_version"": 1, ""internal_node_id"": ""0.0-3.0-0.0-8.0"", ""time_elapsed"": 159077, ""imgName"": ""/static/images/modifAE_linspace/trustworthy/136203_-0.15656565656565652.png"", ""questions"": ""[{\""prompt\"":\""<p>How <b>trustworthy</b> does this person look to <b>most people</b>? Rate from 1-9</p>\"",\""labels\"":[\""1 <br/><b>Not trustworthy at all</b>\"",\""2\"",\""3\"",\""4\"",\""5\"",\""6\"",\""7\"",\""8\"",\""9  <br/><b>Extremely trustworthy</b>\""],\""required\"":true}]"", ""task_unique_trial"": 100, ""task_name"": ""trustworthy-modifae-single"", ""trial_index"": 21, ""isRepeat"": 0}"
A3O1UM8O2RBC08:3WJ1OXY92CNIZX0QBLLJFH90AIMA8B,22,1548055474046,"{""rt"": 9248, ""trial_type"": ""face-likert-amanda"", ""debug_mode"": ""live"", ""task_type"": ""face trials"", ""responses"": ""{\""Q0\"":3}"", ""task_payment"": 1, ""task_version"": 1, ""internal_node_id"": ""0.0-3.0-0.0-9.0"", ""time_elapsed"": 168328, ""imgName"": ""/static/images/modifAE_linspace/trustworthy/136199_-0.19696969696969696.png"", ""questions"": ""[{\""prompt\"":\""<p>How <b>trustworthy</b> does this person look to <b>most people</b>? Rate from 1-9</p>\"",\""labels\"":[\""1 <br/><b>Not trustworthy at all</b>\"",\""2\"",\""3\"",\""4\"",\""5\"",\""6\"",\""7\"",\""8\"",\""9  <br/><b>Extremely trustworthy</b>\""],\""required\"":true}]"", ""task_unique_trial"": 100, ""task_name"": ""trustworthy-modifae-single"", ""trial_index"": 22, ""isRepeat"": 0}"
A3O1UM8O2RBC08:3WJ1OXY92CNIZX0QBLLJFH90AIMA8B,23,1548055475050,"{""rt"": null, ""trial_type"": ""html-keyboard-response"", ""task_unique_trial"": 100, ""stimulus"": ""<p>Good job!</p>"", ""task_version"": 1, ""internal_node_id"": ""0.0-3.0-1.0"", ""task_payment"": 1, ""time_elapsed"": 169332, ""debug_mode"": ""live"", ""key_press"": null, ""task_name"": ""trustworthy-modifae-single"", ""trial_index"": 23}"
A3O1UM8O2RBC08:3WJ1OXY92CNIZX0QBLLJFH90AIMA8B,24,1548055482262,"{""rt"": 7204, ""trial_type"": ""face-likert-amanda"", ""debug_mode"": ""live"", ""task_type"": ""face trials"", ""responses"": ""{\""Q0\"":5}"", ""task_payment"": 1, ""task_version"": 1, ""internal_node_id"": ""0.0-4.0-0.0-0.0"", ""time_elapsed"": 176545, ""imgName"": ""/static/images/modifAE_linspace/trustworthy/136218_-0.0050505050505050275.png"", ""questions"": ""[{\""prompt\"":\""<p>How <b>trustworthy</b> does this person look to <b>most people</b>? Rate from 1-9</p>\"",\""labels\"":[\""1 <br/><b>Not trustworthy at all</b>\"",\""2\"",\""3\"",\""4\"",\""5\"",\""6\"",\""7\"",\""8\"",\""9  <br/><b>Extremely trustworthy</b>\""],\""required\"":true}]"", ""task_unique_trial"": 100, ""task_name"": ""trustworthy-modifae-single"", ""trial_index"": 24, ""isRepeat"": 0}"
A3O1UM8O2RBC08:3WJ1OXY92CNIZX0QBLLJFH90AIMA8B,25,1548055485745,"{""rt"": 3480, ""trial_type"": ""face-likert-amanda"", ""debug_mode"": ""live"", ""task_type"": ""face trials"", ""responses"": ""{\""Q0\"":6}"", ""task_payment"": 1, ""task_version"": 1, ""internal_node_id"": ""0.0-4.0-0.0-1.0"", ""time_elapsed"": 180028, ""imgName"": ""/static/images/modifAE_linspace/trustworthy/136221_0.025252525252525304.png"", ""questions"": ""[{\""prompt\"":\""<p>How <b>trustworthy</b> does this person look to <b>most people</b>? Rate from 1-9</p>\"",\""labels\"":[\""1 <br/><b>Not trustworthy at all</b>\"",\""2\"",\""3\"",\""4\"",\""5\"",\""6\"",\""7\"",\""8\"",\""9  <br/><b>Extremely trustworthy</b>\""],\""required\"":true}]"", ""task_unique_trial"": 100, ""task_name"": ""trustworthy-modifae-single"", ""trial_index"": 25, ""isRepeat"": 0}"
A3O1UM8O2RBC08:3WJ1OXY92CNIZX0QBLLJFH90AIMA8B,26,1548055489623,"{""rt"": 3874, ""trial_type"": ""face-likert-amanda"", ""debug_mode"": ""live"", ""task_type"": ""face trials"", ""responses"": ""{\""Q0\"":4}"", ""task_payment"": 1, ""task_version"": 1, ""internal_node_id"": ""0.0-4.0-0.0-2.0"", ""time_elapsed"": 183906, ""imgName"": ""/static/images/modifAE_linspace/trustworthy/136261_0.4292929292929294.png"", ""questions"": ""[{\""prompt\"":\""<p>How <b>trustworthy</b> does this person look to <b>most people</b>? Rate from 1-9</p>\"",\""labels\"":[\""1 <br/><b>Not trustworthy at all</b>\"",\""2\"",\""3\"",\""4\"",\""5\"",\""6\"",\""7\"",\""8\"",\""9  <br/><b>Extremely trustworthy</b>\""],\""required\"":true}]"", ""task_unique_trial"": 100, ""task_name"": ""trustworthy-modifae-single"", ""trial_index"": 26, ""isRepeat"": 0}"
A3O1UM8O2RBC08:3WJ1OXY92CNIZX0QBLLJFH90AIMA8B,27,1548055495926,"{""rt"": 6300, ""trial_type"": ""face-likert-amanda"", ""debug_mode"": ""live"", ""task_type"": ""face trials"", ""responses"": ""{\""Q0\"":5}"", ""task_payment"": 1, ""task_version"": 1, ""internal_node_id"": ""0.0-4.0-0.0-3.0"", ""time_elapsed"": 190209, ""imgName"": ""/static/images/modifAE_linspace/trustworthy/136246_0.2777777777777778.png"", ""questions"": ""[{\""prompt\"":\""<p>How <b>trustworthy</b> does this person look to <b>most people</b>? Rate from 1-9</p>\"",\""labels\"":[\""1 <br/><b>Not trustworthy at all</b>\"",\""2\"",\""3\"",\""4\"",\""5\"",\""6\"",\""7\"",\""8\"",\""9  <br/><b>Extremely trustworthy</b>\""],\""required\"":true}]"", ""task_unique_trial"": 100, ""task_name"": ""trustworthy-modifae-single"", ""trial_index"": 27, ""isRepeat"": 0}"
A3O1UM8O2RBC08:3WJ1OXY92CNIZX0QBLLJFH90AIMA8B,28,1548055501448,"{""rt"": 5519, ""trial_type"": ""face-likert-amanda"", ""debug_mode"": ""live"", ""task_type"": ""face trials"", ""responses"": ""{\""Q0\"":3}"", ""task_payment"": 1, ""task_version"": 1, ""internal_node_id"": ""0.0-4.0-0.0-4.0"", ""time_elapsed"": 195731, ""imgName"": ""/static/images/modifAE_linspace/trustworthy/136249_0.3080808080808082.png"", ""questions"": ""[{\""prompt\"":\""<p>How <b>trustworthy</b> does this person look to <b>most people</b>? Rate from 1-9</p>\"",\""labels\"":[\""1 <br/><b>Not trustworthy at all</b>\"",\""2\"",\""3\"",\""4\"",\""5\"",\""6\"",\""7\"",\""8\"",\""9  <br/><b>Extremely trustworthy</b>\""],\""required\"":true}]"", ""task_unique_trial"": 100, ""task_name"": ""trustworthy-modifae-single"", ""trial_index"": 28, ""isRepeat"": 0}"
A3O1UM8O2RBC08:3WJ1OXY92CNIZX0QBLLJFH90AIMA8B,29,1548055505426,"{""rt"": 3975, ""trial_type"": ""face-likert-amanda"", ""debug_mode"": ""live"", ""task_type"": ""face trials"", ""responses"": ""{\""Q0\"":6}"", ""task_payment"": 1, ""task_version"": 1, ""internal_node_id"": ""0.0-4.0-0.0-5.0"", ""time_elapsed"": 199709, ""imgName"": ""/static/images/modifAE_linspace/trustworthy/136201_-0.17676767676767674.png"", ""questions"": ""[{\""prompt\"":\""<p>How <b>trustworthy</b> does this person look to <b>most people</b>? Rate from 1-9</p>\"",\""labels\"":[\""1 <br/><b>Not trustworthy at all</b>\"",\""2\"",\""3\"",\""4\"",\""5\"",\""6\"",\""7\"",\""8\"",\""9  <br/><b>Extremely trustworthy</b>\""],\""required\"":true}]"", ""task_unique_trial"": 100, ""task_name"": ""trustworthy-modifae-single"", ""trial_index"": 29, ""isRepeat"": 0}"
A3O1UM8O2RBC08:3WJ1OXY92CNIZX0QBLLJFH90AIMA8B,30,1548055509813,"{""rt"": 4382, ""trial_type"": ""face-likert-amanda"", ""debug_mode"": ""live"", ""task_type"": ""face trials"", ""responses"": ""{\""Q0\"":7}"", ""task_payment"": 1, ""task_version"": 1, ""internal_node_id"": ""0.0-4.0-0.0-6.0"", ""time_elapsed"": 204095, ""imgName"": ""/static/images/modifAE_linspace/trustworthy/136262_0.43939393939393945.png"", ""questions"": ""[{\""prompt\"":\""<p>How <b>trustworthy</b> does this person look to <b>most people</b>? Rate from 1-9</p>\"",\""labels\"":[\""1 <br/><b>Not trustworthy at all</b>\"",\""2\"",\""3\"",\""4\"",\""5\"",\""6\"",\""7\"",\""8\"",\""9  <br/><b>Extremely trustworthy</b>\""],\""required\"":true}]"", ""task_unique_trial"": 100, ""task_name"": ""trustworthy-modifae-single"", ""trial_index"": 30, ""isRepeat"": 0}"
A3O1UM8O2RBC08:3WJ1OXY92CNIZX0QBLLJFH90AIMA8B,31,1548055515814,"{""rt"": 5997, ""trial_type"": ""face-likert-amanda"", ""debug_mode"": ""live"", ""task_type"": ""face trials"", ""responses"": ""{\""Q0\"":6}"", ""task_payment"": 1, ""task_version"": 1, ""internal_node_id"": ""0.0-4.0-0.0-7.0"", ""time_elapsed"": 210097, ""imgName"": ""/static/images/modifAE_linspace/trustworthy/136188_-0.30808080808080807.png"", ""questions"": ""[{\""prompt\"":\""<p>How <b>trustworthy</b> does this person look to <b>most people</b>? Rate from 1-9</p>\"",\""labels\"":[\""1 <br/><b>Not trustworthy at all</b>\"",\""2\"",\""3\"",\""4\"",\""5\"",\""6\"",\""7\"",\""8\"",\""9  <br/><b>Extremely trustworthy</b>\""],\""required\"":true}]"", ""task_unique_trial"": 100, ""task_name"": ""trustworthy-modifae-single"", ""trial_index"": 31, ""isRepeat"": 0}"
A3O1UM8O2RBC08:3WJ1OXY92CNIZX0QBLLJFH90AIMA8B,32,1548055520162,"{""rt"": 4345, ""trial_type"": ""face-likert-amanda"", ""debug_mode"": ""live"", ""task_type"": ""face trials"", ""responses"": ""{\""Q0\"":4}"", ""task_payment"": 1, ""task_version"": 1, ""internal_node_id"": ""0.0-4.0-0.0-8.0"", ""time_elapsed"": 214445, ""imgName"": ""/static/images/modifAE_linspace/trustworthy/136239_0.20707070707070718.png"", ""questions"": ""[{\""prompt\"":\""<p>How <b>trustworthy</b> does this person look to <b>most people</b>? Rate from 1-9</p>\"",\""labels\"":[\""1 <br/><b>Not trustworthy at all</b>\"",\""2\"",\""3\"",\""4\"",\""5\"",\""6\"",\""7\"",\""8\"",\""9  <br/><b>Extremely trustworthy</b>\""],\""required\"":true}]"", ""task_unique_trial"": 100, ""task_name"": ""trustworthy-modifae-single"", ""trial_index"": 32, ""isRepeat"": 0}"
A3O1UM8O2RBC08:3WJ1OXY92CNIZX0QBLLJFH90AIMA8B,33,1548055531590,"{""rt"": 11423, ""trial_type"": ""face-likert-amanda"", ""debug_mode"": ""live"", ""task_type"": ""face trials"", ""responses"": ""{\""Q0\"":4}"", ""task_payment"": 1, ""task_version"": 1, ""internal_node_id"": ""0.0-4.0-0.0-9.0"", ""time_elapsed"": 225872, ""imgName"": ""/static/images/modifAE_linspace/trustworthy/136235_0.16666666666666674.png"", ""questions"": ""[{\""prompt\"":\""<p>How <b>trustworthy</b> does this person look to <b>most people</b>? Rate from 1-9</p>\"",\""labels\"":[\""1 <br/><b>Not trustworthy at all</b>\"",\""2\"",\""3\"",\""4\"",\""5\"",\""6\"",\""7\"",\""8\"",\""9  <br/><b>Extremely trustworthy</b>\""],\""required\"":true}]"", ""task_unique_trial"": 100, ""task_name"": ""trustworthy-modifae-single"", ""trial_index"": 33, ""isRepeat"": 0}"
A3O1UM8O2RBC08:3WJ1OXY92CNIZX0QBLLJFH90AIMA8B,34,1548055532596,"{""rt"": null, ""trial_type"": ""html-keyboard-response"", ""task_unique_trial"": 100, ""stimulus"": ""<p>Good job!</p>"", ""task_version"": 1, ""internal_node_id"": ""0.0-4.0-1.0"", ""task_payment"": 1, ""time_elapsed"": 226877, ""debug_mode"": ""live"", ""key_press"": null, ""task_name"": ""trustworthy-modifae-single"", ""trial_index"": 34}"
A3O1UM8O2RBC08:3WJ1OXY92CNIZX0QBLLJFH90AIMA8B,35,1548055540138,"{""rt"": 7535, ""trial_type"": ""face-likert-amanda"", ""debug_mode"": ""live"", ""task_type"": ""face trials"", ""responses"": ""{\""Q0\"":3}"", ""task_payment"": 1, ""task_version"": 1, ""internal_node_id"": ""0.0-5.0-0.0-0.0"", ""time_elapsed"": 234421, ""imgName"": ""/static/images/modifAE_linspace/trustworthy/136198_-0.20707070707070707.png"", ""questions"": ""[{\""prompt\"":\""<p>How <b>trustworthy</b> does this person look to <b>most people</b>? Rate from 1-9</p>\"",\""labels\"":[\""1 <br/><b>Not trustworthy at all</b>\"",\""2\"",\""3\"",\""4\"",\""5\"",\""6\"",\""7\"",\""8\"",\""9  <br/><b>Extremely trustworthy</b>\""],\""required\"":true}]"", ""task_unique_trial"": 100, ""task_name"": ""trustworthy-modifae-single"", ""trial_index"": 35, ""isRepeat"": 0}"
A3O1UM8O2RBC08:3WJ1OXY92CNIZX0QBLLJFH90AIMA8B,36,1548055544967,"{""rt"": 4824, ""trial_type"": ""face-likert-amanda"", ""debug_mode"": ""live"", ""task_type"": ""face trials"", ""responses"": ""{\""Q0\"":3}"", ""task_payment"": 1, ""task_version"": 1, ""internal_node_id"": ""0.0-5.0-0.0-1.0"", ""time_elapsed"": 239250, ""imgName"": ""/static/images/modifAE_linspace/trustworthy/136178_-0.40909090909090906.png"", ""questions"": ""[{\""prompt\"":\""<p>How <b>trustworthy</b> does this person look to <b>most people</b>? Rate from 1-9</p>\"",\""labels\"":[\""1 <br/><b>Not trustworthy at all</b>\"",\""2\"",\""3\"",\""4\"",\""5\"",\""6\"",\""7\"",\""8\"",\""9  <br/><b>Extremely trustworthy</b>\""],\""required\"":true}]"", ""task_unique_trial"": 100, ""task_name"": ""trustworthy-modifae-single"", ""trial_index"": 36, ""isRepeat"": 0}"
A3O1UM8O2RBC08:3WJ1OXY92CNIZX0QBLLJFH90AIMA8B,37,1548055549821,"{""rt"": 4851, ""trial_type"": ""face-likert-amanda"", ""debug_mode"": ""live"", ""task_type"": ""face trials"", ""responses"": ""{\""Q0\"":2}"", ""task_payment"": 1, ""task_version"": 1, ""internal_node_id"": ""0.0-5.0-0.0-2.0"", ""time_elapsed"": 244104, ""imgName"": ""/static/images/modifAE_linspace/trustworthy/136181_-0.3787878787878788.png"", ""questions"": ""[{\""prompt\"":\""<p>How <b>trustworthy</b> does this person look to <b>most people</b>? Rate from 1-9</p>\"",\""labels\"":[\""1 <br/><b>Not trustworthy at all</b>\"",\""2\"",\""3\"",\""4\"",\""5\"",\""6\"",\""7\"",\""8\"",\""9  <br/><b>Extremely trustworthy</b>\""],\""required\"":true}]"", ""task_unique_trial"": 100, ""task_name"": ""trustworthy-modifae-single"", ""trial_index"": 37, ""isRepeat"": 0}"
A3O1UM8O2RBC08:3WJ1OXY92CNIZX0QBLLJFH90AIMA8B,38,1548055558829,"{""rt"": 9004, ""trial_type"": ""face-likert-amanda"", ""debug_mode"": ""live"", ""task_type"": ""face trials"", ""responses"": ""{\""Q0\"":5}"", ""task_payment"": 1, ""task_version"": 1, ""internal_node_id"": ""0.0-5.0-0.0-3.0"", ""time_elapsed"": 253112, ""imgName"": ""/static/images/modifAE_linspace/trustworthy/136179_-0.398989898989899.png"", ""questions"": ""[{\""prompt\"":\""<p>How <b>trustworthy</b> does this person look to <b>most people</b>? Rate from 1-9</p>\"",\""labels\"":[\""1 <br/><b>Not trustworthy at all</b>\"",\""2\"",\""3\"",\""4\"",\""5\"",\""6\"",\""7\"",\""8\"",\""9  <br/><b>Extremely trustworthy</b>\""],\""required\"":true}]"", ""task_unique_trial"": 100, ""task_name"": ""trustworthy-modifae-single"", ""trial_index"": 38, ""isRepeat"": 0}"
A3O1UM8O2RBC08:3WJ1OXY92CNIZX0QBLLJFH90AIMA8B,39,1548055563278,"{""rt"": 4444, ""trial_type"": ""face-likert-amanda"", ""debug_mode"": ""live"", ""task_type"": ""face trials"", ""responses"": ""{\""Q0\"":3}"", ""task_payment"": 1, ""task_version"": 1, ""internal_node_id"": ""0.0-5.0-0.0-4.0"", ""time_elapsed"": 257561, ""imgName"": ""/static/images/modifAE_linspace/trustworthy/136198_-0.20707070707070707.png"", ""questions"": ""[{\""prompt\"":\""<p>How <b>trustworthy</b> does this person look to <b>most people</b>? Rate from 1-9</p>\"",\""labels\"":[\""1 <br/><b>Not trustworthy at all</b>\"",\""2\"",\""3\"",\""4\"",\""5\"",\""6\"",\""7\"",\""8\"",\""9  <br/><b>Extremely trustworthy</b>\""],\""required\"":true}]"", ""task_unique_trial"": 100, ""task_name"": ""trustworthy-modifae-single"", ""trial_index"": 39, ""isRepeat"": 0}"
A3O1UM8O2RBC08:3WJ1OXY92CNIZX0QBLLJFH90AIMA8B,40,1548055568640,"{""rt"": 5359, ""trial_type"": ""face-likert-amanda"", ""debug_mode"": ""live"", ""task_type"": ""face trials"", ""responses"": ""{\""Q0\"":3}"", ""task_payment"": 1, ""task_version"": 1, ""internal_node_id"": ""0.0-5.0-0.0-5.0"", ""time_elapsed"": 262922, ""imgName"": ""/static/images/modifAE_linspace/trustworthy/136191_-0.2777777777777778.png"", ""questions"": ""[{\""prompt\"":\""<p>How <b>trustworthy</b> does this person look to <b>most people</b>? Rate from 1-9</p>\"",\""labels\"":[\""1 <br/><b>Not trustworthy at all</b>\"",\""2\"",\""3\"",\""4\"",\""5\"",\""6\"",\""7\"",\""8\"",\""9  <br/><b>Extremely trustworthy</b>\""],\""required\"":true}]"", ""task_unique_trial"": 100, ""task_name"": ""trustworthy-modifae-single"", ""trial_index"": 40, ""isRepeat"": 0}"
A3O1UM8O2RBC08:3WJ1OXY92CNIZX0QBLLJFH90AIMA8B,41,1548055572567,"{""rt"": 3923, ""trial_type"": ""face-likert-amanda"", ""debug_mode"": ""live"", ""task_type"": ""face trials"", ""responses"": ""{\""Q0\"":6}"", ""task_payment"": 1, ""task_version"": 1, ""internal_node_id"": ""0.0-5.0-0.0-6.0"", ""time_elapsed"": 266849, ""imgName"": ""/static/images/modifAE_linspace/trustworthy/136185_-0.33838383838383834.png"", ""questions"": ""[{\""prompt\"":\""<p>How <b>trustworthy</b> does this person look to <b>most people</b>? Rate from 1-9</p>\"",\""labels\"":[\""1 <br/><b>Not trustworthy at all</b>\"",\""2\"",\""3\"",\""4\"",\""5\"",\""6\"",\""7\"",\""8\"",\""9  <br/><b>Extremely trustworthy</b>\""],\""required\"":true}]"", ""task_unique_trial"": 100, ""task_name"": ""trustworthy-modifae-single"", ""trial_index"": 41, ""isRepeat"": 0}"
A3O1UM8O2RBC08:3WJ1OXY92CNIZX0QBLLJFH90AIMA8B,42,1548055577474,"{""rt"": 4903, ""trial_type"": ""face-likert-amanda"", ""debug_mode"": ""live"", ""task_type"": ""face trials"", ""responses"": ""{\""Q0\"":4}"", ""task_payment"": 1, ""task_version"": 1, ""internal_node_id"": ""0.0-5.0-0.0-7.0"", ""time_elapsed"": 271757, ""imgName"": ""/static/images/modifAE_linspace/trustworthy/136250_0.31818181818181823.png"", ""questions"": ""[{\""prompt\"":\""<p>How <b>trustworthy</b> does this person look to <b>most people</b>? Rate from 1-9</p>\"",\""labels\"":[\""1 <br/><b>Not trustworthy at all</b>\"",\""2\"",\""3\"",\""4\"",\""5\"",\""6\"",\""7\"",\""8\"",\""9  <br/><b>Extremely trustworthy</b>\""],\""required\"":true}]"", ""task_unique_trial"": 100, ""task_name"": ""trustworthy-modifae-single"", ""trial_index"": 42, ""isRepeat"": 0}"
A3O1UM8O2RBC08:3WJ1OXY92CNIZX0QBLLJFH90AIMA8B,43,1548055584527,"{""rt"": 7050, ""trial_type"": ""face-likert-amanda"", ""debug_mode"": ""live"", ""task_type"": ""face trials"", ""responses"": ""{\""Q0\"":3}"", ""task_payment"": 1, ""task_version"": 1, ""internal_node_id"": ""0.0-5.0-0.0-8.0"", ""time_elapsed"": 278810, ""imgName"": ""/static/images/modifAE_linspace/trustworthy/136265_0.4696969696969697.png"", ""questions"": ""[{\""prompt\"":\""<p>How <b>trustworthy</b> does this person look to <b>most people</b>? Rate from 1-9</p>\"",\""labels\"":[\""1 <br/><b>Not trustworthy at all</b>\"",\""2\"",\""3\"",\""4\"",\""5\"",\""6\"",\""7\"",\""8\"",\""9  <br/><b>Extremely trustworthy</b>\""],\""required\"":true}]"", ""task_unique_trial"": 100, ""task_name"": ""trustworthy-modifae-single"", ""trial_index"": 43, ""isRepeat"": 0}"
A3O1UM8O2RBC08:3WJ1OXY92CNIZX0QBLLJFH90AIMA8B,44,1548055589886,"{""rt"": 5355, ""trial_type"": ""face-likert-amanda"", ""debug_mode"": ""live"", ""task_type"": ""face trials"", ""responses"": ""{\""Q0\"":7}"", ""task_payment"": 1, ""task_version"": 1, ""internal_node_id"": ""0.0-5.0-0.0-9.0"", ""time_elapsed"": 284169, ""imgName"": ""/static/images/modifAE_linspace/trustworthy/136255_0.36868686868686873.png"", ""questions"": ""[{\""prompt\"":\""<p>How <b>trustworthy</b> does this person look to <b>most people</b>? Rate from 1-9</p>\"",\""labels\"":[\""1 <br/><b>Not trustworthy at all</b>\"",\""2\"",\""3\"",\""4\"",\""5\"",\""6\"",\""7\"",\""8\"",\""9  <br/><b>Extremely trustworthy</b>\""],\""required\"":true}]"", ""task_unique_trial"": 100, ""task_name"": ""trustworthy-modifae-single"", ""trial_index"": 44, ""isRepeat"": 0}"
A3O1UM8O2RBC08:3WJ1OXY92CNIZX0QBLLJFH90AIMA8B,45,1548055590893,"{""rt"": null, ""trial_type"": ""html-keyboard-response"", ""task_unique_trial"": 100, ""stimulus"": ""<p>Good job!</p>"", ""task_version"": 1, ""internal_node_id"": ""0.0-5.0-1.0"", ""task_payment"": 1, ""time_elapsed"": 285175, ""debug_mode"": ""live"", ""key_press"": null, ""task_name"": ""trustworthy-modifae-single"", ""trial_index"": 45}"
A3O1UM8O2RBC08:3WJ1OXY92CNIZX0QBLLJFH90AIMA8B,46,1548055595913,"{""rt"": 5017, ""trial_type"": ""face-likert-amanda"", ""debug_mode"": ""live"", ""task_type"": ""face trials"", ""responses"": ""{\""Q0\"":5}"", ""task_payment"": 1, ""task_version"": 1, ""internal_node_id"": ""0.0-6.0-0.0-0.0"", ""time_elapsed"": 290196, ""imgName"": ""/static/images/modifAE_linspace/trustworthy/136170_-0.4898989898989899.png"", ""questions"": ""[{\""prompt\"":\""<p>How <b>trustworthy</b> does this person look to <b>most people</b>? Rate from 1-9</p>\"",\""labels\"":[\""1 <br/><b>Not trustworthy at all</b>\"",\""2\"",\""3\"",\""4\"",\""5\"",\""6\"",\""7\"",\""8\"",\""9  <br/><b>Extremely trustworthy</b>\""],\""required\"":true}]"", ""task_unique_trial"": 100, ""task_name"": ""trustworthy-modifae-single"", ""trial_index"": 46, ""isRepeat"": 0}"
A3O1UM8O2RBC08:3WJ1OXY92CNIZX0QBLLJFH90AIMA8B,47,1548055602668,"{""rt"": 6750, ""trial_type"": ""face-likert-amanda"", ""debug_mode"": ""live"", ""task_type"": ""face trials"", ""responses"": ""{\""Q0\"":2}"", ""task_payment"": 1, ""task_version"": 1, ""internal_node_id"": ""0.0-6.0-0.0-1.0"", ""time_elapsed"": 296951, ""imgName"": ""/static/images/modifAE_linspace/trustworthy/136181_-0.3787878787878788.png"", ""questions"": ""[{\""prompt\"":\""<p>How <b>trustworthy</b> does this person look to <b>most people</b>? Rate from 1-9</p>\"",\""labels\"":[\""1 <br/><b>Not trustworthy at all</b>\"",\""2\"",\""3\"",\""4\"",\""5\"",\""6\"",\""7\"",\""8\"",\""9  <br/><b>Extremely trustworthy</b>\""],\""required\"":true}]"", ""task_unique_trial"": 100, ""task_name"": ""trustworthy-modifae-single"", ""trial_index"": 47, ""isRepeat"": 0}"
A3O1UM8O2RBC08:3WJ1OXY92CNIZX0QBLLJFH90AIMA8B,48,1548055607103,"{""rt"": 4432, ""trial_type"": ""face-likert-amanda"", ""debug_mode"": ""live"", ""task_type"": ""face trials"", ""responses"": ""{\""Q0\"":4}"", ""task_payment"": 1, ""task_version"": 1, ""internal_node_id"": ""0.0-6.0-0.0-2.0"", ""time_elapsed"": 301386, ""imgName"": ""/static/images/modifAE_linspace/trustworthy/136200_-0.18686868686868685.png"", ""questions"": ""[{\""prompt\"":\""<p>How <b>trustworthy</b> does this person look to <b>most people</b>? Rate from 1-9</p>\"",\""labels\"":[\""1 <br/><b>Not trustworthy at all</b>\"",\""2\"",\""3\"",\""4\"",\""5\"",\""6\"",\""7\"",\""8\"",\""9  <br/><b>Extremely trustworthy</b>\""],\""required\"":true}]"", ""task_unique_trial"": 100, ""task_name"": ""trustworthy-modifae-single"", ""trial_index"": 48, ""isRepeat"": 0}"
A3O1UM8O2RBC08:3WJ1OXY92CNIZX0QBLLJFH90AIMA8B,49,1548055612687,"{""rt"": 5580, ""trial_type"": ""face-likert-amanda"", ""debug_mode"": ""live"", ""task_type"": ""face trials"", ""responses"": ""{\""Q0\"":3}"", ""task_payment"": 1, ""task_version"": 1, ""internal_node_id"": ""0.0-6.0-0.0-3.0"", ""time_elapsed"": 306970, ""imgName"": ""/static/images/modifAE_linspace/trustworthy/136183_-0.35858585858585856.png"", ""questions"": ""[{\""prompt\"":\""<p>How <b>trustworthy</b> does this person look to <b>most people</b>? Rate from 1-9</p>\"",\""labels\"":[\""1 <br/><b>Not trustworthy at all</b>\"",\""2\"",\""3\"",\""4\"",\""5\"",\""6\"",\""7\"",\""8\"",\""9  <br/><b>Extremely trustworthy</b>\""],\""required\"":true}]"", ""task_unique_trial"": 100, ""task_name"": ""trustworthy-modifae-single"", ""trial_index"": 49, ""isRepeat"": 0}"
A3O1UM8O2RBC08:3WJ1OXY92CNIZX0QBLLJFH90AIMA8B,50,1548055616688,"{""rt"": 3998, ""trial_type"": ""face-likert-amanda"", ""debug_mode"": ""live"", ""task_type"": ""face trials"", ""responses"": ""{\""Q0\"":7}"", ""task_payment"": 1, ""task_version"": 1, ""internal_node_id"": ""0.0-6.0-0.0-4.0"", ""time_elapsed"": 310971, ""imgName"": ""/static/images/modifAE_linspace/trustworthy/136230_0.11616161616161624.png"", ""questions"": ""[{\""prompt\"":\""<p>How <b>trustworthy</b> does this person look to <b>most people</b>? Rate from 1-9</p>\"",\""labels\"":[\""1 <br/><b>Not trustworthy at all</b>\"",\""2\"",\""3\"",\""4\"",\""5\"",\""6\"",\""7\"",\""8\"",\""9  <br/><b>Extremely trustworthy</b>\""],\""required\"":true}]"", ""task_unique_trial"": 100, ""task_name"": ""trustworthy-modifae-single"", ""trial_index"": 50, ""isRepeat"": 0}"
A3O1UM8O2RBC08:3WJ1OXY92CNIZX0QBLLJFH90AIMA8B,51,1548055620001,"{""rt"": 3307, ""trial_type"": ""face-likert-amanda"", ""debug_mode"": ""live"", ""task_type"": ""face trials"", ""responses"": ""{\""Q0\"":3}"", ""task_payment"": 1, ""task_version"": 1, ""internal_node_id"": ""0.0-6.0-0.0-5.0"", ""time_elapsed"": 314284, ""imgName"": ""/static/images/modifAE_linspace/trustworthy/136265_0.4696969696969697.png"", ""questions"": ""[{\""prompt\"":\""<p>How <b>trustworthy</b> does this person look to <b>most people</b>? Rate from 1-9</p>\"",\""labels\"":[\""1 <br/><b>Not trustworthy at all</b>\"",\""2\"",\""3\"",\""4\"",\""5\"",\""6\"",\""7\"",\""8\"",\""9  <br/><b>Extremely trustworthy</b>\""],\""required\"":true}]"", ""task_unique_trial"": 100, ""task_name"": ""trustworthy-modifae-single"", ""trial_index"": 51, ""isRepeat"": 0}"
A3O1UM8O2RBC08:3WJ1OXY92CNIZX0QBLLJFH90AIMA8B,52,1548055627412,"{""rt"": 7406, ""trial_type"": ""face-likert-amanda"", ""debug_mode"": ""live"", ""task_type"": ""face trials"", ""responses"": ""{\""Q0\"":5}"", ""task_payment"": 1, ""task_version"": 1, ""internal_node_id"": ""0.0-6.0-0.0-6.0"", ""time_elapsed"": 321695, ""imgName"": ""/static/images/modifAE_linspace/trustworthy/136206_-0.12626262626262624.png"", ""questions"": ""[{\""prompt\"":\""<p>How <b>trustworthy</b> does this person look to <b>most people</b>? Rate from 1-9</p>\"",\""labels\"":[\""1 <br/><b>Not trustworthy at all</b>\"",\""2\"",\""3\"",\""4\"",\""5\"",\""6\"",\""7\"",\""8\"",\""9  <br/><b>Extremely trustworthy</b>\""],\""required\"":true}]"", ""task_unique_trial"": 100, ""task_name"": ""trustworthy-modifae-single"", ""trial_index"": 52, ""isRepeat"": 0}"
A3O1UM8O2RBC08:3WJ1OXY92CNIZX0QBLLJFH90AIMA8B,53,1548055632267,"{""rt"": 4852, ""trial_type"": ""face-likert-amanda"", ""debug_mode"": ""live"", ""task_type"": ""face trials"", ""responses"": ""{\""Q0\"":4}"", ""task_payment"": 1, ""task_version"": 1, ""internal_node_id"": ""0.0-6.0-0.0-7.0"", ""time_elapsed"": 326549, ""imgName"": ""/static/images/modifAE_linspace/trustworthy/136256_0.3787878787878789.png"", ""questions"": ""[{\""prompt\"":\""<p>How <b>trustworthy</b> does this person look to <b>most people</b>? Rate from 1-9</p>\"",\""labels\"":[\""1 <br/><b>Not trustworthy at all</b>\"",\""2\"",\""3\"",\""4\"",\""5\"",\""6\"",\""7\"",\""8\"",\""9  <br/><b>Extremely trustworthy</b>\""],\""required\"":true}]"", ""task_unique_trial"": 100, ""task_name"": ""trustworthy-modifae-single"", ""trial_index"": 53, ""isRepeat"": 0}"
A3O1UM8O2RBC08:3WJ1OXY92CNIZX0QBLLJFH90AIMA8B,54,1548055636738,"{""rt"": 4466, ""trial_type"": ""face-likert-amanda"", ""debug_mode"": ""live"", ""task_type"": ""face trials"", ""responses"": ""{\""Q0\"":1}"", ""task_payment"": 1, ""task_version"": 1, ""internal_node_id"": ""0.0-6.0-0.0-8.0"", ""time_elapsed"": 331021, ""imgName"": ""/static/images/modifAE_linspace/trustworthy/136174_-0.4494949494949495.png"", ""questions"": ""[{\""prompt\"":\""<p>How <b>trustworthy</b> does this person look to <b>most people</b>? Rate from 1-9</p>\"",\""labels\"":[\""1 <br/><b>Not trustworthy at all</b>\"",\""2\"",\""3\"",\""4\"",\""5\"",\""6\"",\""7\"",\""8\"",\""9  <br/><b>Extremely trustworthy</b>\""],\""required\"":true}]"", ""task_unique_trial"": 100, ""task_name"": ""trustworthy-modifae-single"", ""trial_index"": 54, ""isRepeat"": 0}"
A3O1UM8O2RBC08:3WJ1OXY92CNIZX0QBLLJFH90AIMA8B,55,1548055640158,"{""rt"": 3415, ""trial_type"": ""face-likert-amanda"", ""debug_mode"": ""live"", ""task_type"": ""face trials"", ""responses"": ""{\""Q0\"":6}"", ""task_payment"": 1, ""task_version"": 1, ""internal_node_id"": ""0.0-6.0-0.0-9.0"", ""time_elapsed"": 334441, ""imgName"": ""/static/images/modifAE_linspace/trustworthy/136188_-0.30808080808080807.png"", ""questions"": ""[{\""prompt\"":\""<p>How <b>trustworthy</b> does this person look to <b>most people</b>? Rate from 1-9</p>\"",\""labels\"":[\""1 <br/><b>Not trustworthy at all</b>\"",\""2\"",\""3\"",\""4\"",\""5\"",\""6\"",\""7\"",\""8\"",\""9  <br/><b>Extremely trustworthy</b>\""],\""required\"":true}]"", ""task_unique_trial"": 100, ""task_name"": ""trustworthy-modifae-single"", ""trial_index"": 55, ""isRepeat"": 0}"
A3O1UM8O2RBC08:3WJ1OXY92CNIZX0QBLLJFH90AIMA8B,56,1548055641163,"{""rt"": null, ""trial_type"": ""html-keyboard-response"", ""task_unique_trial"": 100, ""stimulus"": ""<p>Good job!</p>"", ""task_version"": 1, ""internal_node_id"": ""0.0-6.0-1.0"", ""task_payment"": 1, ""time_elapsed"": 335446, ""debug_mode"": ""live"", ""key_press"": null, ""task_name"": ""trustworthy-modifae-single"", ""trial_index"": 56}"
A3O1UM8O2RBC08:3WJ1OXY92CNIZX0QBLLJFH90AIMA8B,57,1548055645642,"{""rt"": 4473, ""trial_type"": ""face-likert-amanda"", ""debug_mode"": ""live"", ""task_type"": ""face trials"", ""responses"": ""{\""Q0\"":3}"", ""task_payment"": 1, ""task_version"": 1, ""internal_node_id"": ""0.0-7.0-0.0-0.0"", ""time_elapsed"": 339925, ""imgName"": ""/static/images/modifAE_linspace/trustworthy/136195_-0.23737373737373735.png"", ""questions"": ""[{\""prompt\"":\""<p>How <b>trustworthy</b> does this person look to <b>most people</b>? Rate from 1-9</p>\"",\""labels\"":[\""1 <br/><b>Not trustworthy at all</b>\"",\""2\"",\""3\"",\""4\"",\""5\"",\""6\"",\""7\"",\""8\"",\""9  <br/><b>Extremely trustworthy</b>\""],\""required\"":true}]"", ""task_unique_trial"": 100, ""task_name"": ""trustworthy-modifae-single"", ""trial_index"": 57, ""isRepeat"": 0}"
A3O1UM8O2RBC08:3WJ1OXY92CNIZX0QBLLJFH90AIMA8B,58,1548055652079,"{""rt"": 6433, ""trial_type"": ""face-likert-amanda"", ""debug_mode"": ""live"", ""task_type"": ""face trials"", ""responses"": ""{\""Q0\"":4}"", ""task_payment"": 1, ""task_version"": 1, ""internal_node_id"": ""0.0-7.0-0.0-1.0"", ""time_elapsed"": 346361, ""imgName"": ""/static/images/modifAE_linspace/trustworthy/136227_0.08585858585858586.png"", ""questions"": ""[{\""prompt\"":\""<p>How <b>trustworthy</b> does this person look to <b>most people</b>? Rate from 1-9</p>\"",\""labels\"":[\""1 <br/><b>Not trustworthy at all</b>\"",\""2\"",\""3\"",\""4\"",\""5\"",\""6\"",\""7\"",\""8\"",\""9  <br/><b>Extremely trustworthy</b>\""],\""required\"":true}]"", ""task_unique_trial"": 100, ""task_name"": ""trustworthy-modifae-single"", ""trial_index"": 58, ""isRepeat"": 0}"
A3O1UM8O2RBC08:3WJ1OXY92CNIZX0QBLLJFH90AIMA8B,59,1548055655747,"{""rt"": 3664, ""trial_type"": ""face-likert-amanda"", ""debug_mode"": ""live"", ""task_type"": ""face trials"", ""responses"": ""{\""Q0\"":4}"", ""task_payment"": 1, ""task_version"": 1, ""internal_node_id"": ""0.0-7.0-0.0-2.0"", ""time_elapsed"": 350030, ""imgName"": ""/static/images/modifAE_linspace/trustworthy/136235_0.16666666666666674.png"", ""questions"": ""[{\""prompt\"":\""<p>How <b>trustworthy</b> does this person look to <b>most people</b>? Rate from 1-9</p>\"",\""labels\"":[\""1 <br/><b>Not trustworthy at all</b>\"",\""2\"",\""3\"",\""4\"",\""5\"",\""6\"",\""7\"",\""8\"",\""9  <br/><b>Extremely trustworthy</b>\""],\""required\"":true}]"", ""task_unique_trial"": 100, ""task_name"": ""trustworthy-modifae-single"", ""trial_index"": 59, ""isRepeat"": 0}"
A3O1UM8O2RBC08:3WJ1OXY92CNIZX0QBLLJFH90AIMA8B,60,1548055660910,"{""rt"": 5159, ""trial_type"": ""face-likert-amanda"", ""debug_mode"": ""live"", ""task_type"": ""face trials"", ""responses"": ""{\""Q0\"":6}"", ""task_payment"": 1, ""task_version"": 1, ""internal_node_id"": ""0.0-7.0-0.0-3.0"", ""time_elapsed"": 355193, ""imgName"": ""/static/images/modifAE_linspace/trustworthy/136263_0.4494949494949496.png"", ""questions"": ""[{\""prompt\"":\""<p>How <b>trustworthy</b> does this person look to <b>most people</b>? Rate from 1-9</p>\"",\""labels\"":[\""1 <br/><b>Not trustworthy at all</b>\"",\""2\"",\""3\"",\""4\"",\""5\"",\""6\"",\""7\"",\""8\"",\""9  <br/><b>Extremely trustworthy</b>\""],\""required\"":true}]"", ""task_unique_trial"": 100, ""task_name"": ""trustworthy-modifae-single"", ""trial_index"": 60, ""isRepeat"": 0}"
A3O1UM8O2RBC08:3WJ1OXY92CNIZX0QBLLJFH90AIMA8B,61,1548055666063,"{""rt"": 5148, ""trial_type"": ""face-likert-amanda"", ""debug_mode"": ""live"", ""task_type"": ""face trials"", ""responses"": ""{\""Q0\"":3}"", ""task_payment"": 1, ""task_version"": 1, ""internal_node_id"": ""0.0-7.0-0.0-4.0"", ""time_elapsed"": 360346, ""imgName"": ""/static/images/modifAE_linspace/trustworthy/136209_-0.09595959595959591.png"", ""questions"": ""[{\""prompt\"":\""<p>How <b>trustworthy</b> does this person look to <b>most people</b>? Rate from 1-9</p>\"",\""labels\"":[\""1 <br/><b>Not trustworthy at all</b>\"",\""2\"",\""3\"",\""4\"",\""5\"",\""6\"",\""7\"",\""8\"",\""9  <br/><b>Extremely trustworthy</b>\""],\""required\"":true}]"", ""task_unique_trial"": 100, ""task_name"": ""trustworthy-modifae-single"", ""trial_index"": 61, ""isRepeat"": 0}"
A3O1UM8O2RBC08:3WJ1OXY92CNIZX0QBLLJFH90AIMA8B,62,1548055670559,"{""rt"": 4492, ""trial_type"": ""face-likert-amanda"", ""debug_mode"": ""live"", ""task_type"": ""face trials"", ""responses"": ""{\""Q0\"":5}"", ""task_payment"": 1, ""task_version"": 1, ""internal_node_id"": ""0.0-7.0-0.0-5.0"", ""time_elapsed"": 364842, ""imgName"": ""/static/images/modifAE_linspace/trustworthy/136190_-0.28787878787878785.png"", ""questions"": ""[{\""prompt\"":\""<p>How <b>trustworthy</b> does this person look to <b>most people</b>? Rate from 1-9</p>\"",\""labels\"":[\""1 <br/><b>Not trustworthy at all</b>\"",\""2\"",\""3\"",\""4\"",\""5\"",\""6\"",\""7\"",\""8\"",\""9  <br/><b>Extremely trustworthy</b>\""],\""required\"":true}]"", ""task_unique_trial"": 100, ""task_name"": ""trustworthy-modifae-single"", ""trial_index"": 62, ""isRepeat"": 0}"
A3O1UM8O2RBC08:3WJ1OXY92CNIZX0QBLLJFH90AIMA8B,63,1548055676650,"{""rt"": 6087, ""trial_type"": ""face-likert-amanda"", ""debug_mode"": ""live"", ""task_type"": ""face trials"", ""responses"": ""{\""Q0\"":6}"", ""task_payment"": 1, ""task_version"": 1, ""internal_node_id"": ""0.0-7.0-0.0-6.0"", ""time_elapsed"": 370933, ""imgName"": ""/static/images/modifAE_linspace/trustworthy/136247_0.28787878787878796.png"", ""questions"": ""[{\""prompt\"":\""<p>How <b>trustworthy</b> does this person look to <b>most people</b>? Rate from 1-9</p>\"",\""labels\"":[\""1 <br/><b>Not trustworthy at all</b>\"",\""2\"",\""3\"",\""4\"",\""5\"",\""6\"",\""7\"",\""8\"",\""9  <br/><b>Extremely trustworthy</b>\""],\""required\"":true}]"", ""task_unique_trial"": 100, ""task_name"": ""trustworthy-modifae-single"", ""trial_index"": 63, ""isRepeat"": 0}"
A3O1UM8O2RBC08:3WJ1OXY92CNIZX0QBLLJFH90AIMA8B,64,1548055681122,"{""rt"": 4469, ""trial_type"": ""face-likert-amanda"", ""debug_mode"": ""live"", ""task_type"": ""face trials"", ""responses"": ""{\""Q0\"":5}"", ""task_payment"": 1, ""task_version"": 1, ""internal_node_id"": ""0.0-7.0-0.0-7.0"", ""time_elapsed"": 375405, ""imgName"": ""/static/images/modifAE_linspace/trustworthy/136259_0.40909090909090917.png"", ""questions"": ""[{\""prompt\"":\""<p>How <b>trustworthy</b> does this person look to <b>most people</b>? Rate from 1-9</p>\"",\""labels\"":[\""1 <br/><b>Not trustworthy at all</b>\"",\""2\"",\""3\"",\""4\"",\""5\"",\""6\"",\""7\"",\""8\"",\""9  <br/><b>Extremely trustworthy</b>\""],\""required\"":true}]"", ""task_unique_trial"": 100, ""task_name"": ""trustworthy-modifae-single"", ""trial_index"": 64, ""isRepeat"": 0}"
A3O1UM8O2RBC08:3WJ1OXY92CNIZX0QBLLJFH90AIMA8B,65,1548055686065,"{""rt"": 4938, ""trial_type"": ""face-likert-amanda"", ""debug_mode"": ""live"", ""task_type"": ""face trials"", ""responses"": ""{\""Q0\"":4}"", ""task_payment"": 1, ""task_version"": 1, ""internal_node_id"": ""0.0-7.0-0.0-8.0"", ""time_elapsed"": 380347, ""imgName"": ""/static/images/modifAE_linspace/trustworthy/136215_-0.035353535353535304.png"", ""questions"": ""[{\""prompt\"":\""<p>How <b>trustworthy</b> does this person look to <b>most people</b>? Rate from 1-9</p>\"",\""labels\"":[\""1 <br/><b>Not trustworthy at all</b>\"",\""2\"",\""3\"",\""4\"",\""5\"",\""6\"",\""7\"",\""8\"",\""9  <br/><b>Extremely trustworthy</b>\""],\""required\"":true}]"", ""task_unique_trial"": 100, ""task_name"": ""trustworthy-modifae-single"", ""trial_index"": 65, ""isRepeat"": 0}"
A3O1UM8O2RBC08:3WJ1OXY92CNIZX0QBLLJFH90AIMA8B,66,1548055691649,"{""rt"": 5580, ""trial_type"": ""face-likert-amanda"", ""debug_mode"": ""live"", ""task_type"": ""face trials"", ""responses"": ""{\""Q0\"":6}"", ""task_payment"": 1, ""task_version"": 1, ""internal_node_id"": ""0.0-7.0-0.0-9.0"", ""time_elapsed"": 385931, ""imgName"": ""/static/images/modifAE_linspace/trustworthy/136220_0.015151515151515249.png"", ""questions"": ""[{\""prompt\"":\""<p>How <b>trustworthy</b> does this person look to <b>most people</b>? Rate from 1-9</p>\"",\""labels\"":[\""1 <br/><b>Not trustworthy at all</b>\"",\""2\"",\""3\"",\""4\"",\""5\"",\""6\"",\""7\"",\""8\"",\""9  <br/><b>Extremely trustworthy</b>\""],\""required\"":true}]"", ""task_unique_trial"": 100, ""task_name"": ""trustworthy-modifae-single"", ""trial_index"": 66, ""isRepeat"": 0}"
A3O1UM8O2RBC08:3WJ1OXY92CNIZX0QBLLJFH90AIMA8B,67,1548055692653,"{""rt"": null, ""trial_type"": ""html-keyboard-response"", ""task_unique_trial"": 100, ""stimulus"": ""<p>Good job!</p>"", ""task_version"": 1, ""internal_node_id"": ""0.0-7.0-1.0"", ""task_payment"": 1, ""time_elapsed"": 386935, ""debug_mode"": ""live"", ""key_press"": null, ""task_name"": ""trustworthy-modifae-single"", ""trial_index"": 67}"
A3O1UM8O2RBC08:3WJ1OXY92CNIZX0QBLLJFH90AIMA8B,68,1548055698484,"{""rt"": 5818, ""trial_type"": ""face-likert-amanda"", ""debug_mode"": ""live"", ""task_type"": ""face trials"", ""responses"": ""{\""Q0\"":4}"", ""task_payment"": 1, ""task_version"": 1, ""internal_node_id"": ""0.0-8.0-0.0-0.0"", ""time_elapsed"": 392761, ""imgName"": ""/static/images/modifAE_linspace/trustworthy/136257_0.38888888888888895.png"", ""questions"": ""[{\""prompt\"":\""<p>How <b>trustworthy</b> does this person look to <b>most people</b>? Rate from 1-9</p>\"",\""labels\"":[\""1 <br/><b>Not trustworthy at all</b>\"",\""2\"",\""3\"",\""4\"",\""5\"",\""6\"",\""7\"",\""8\"",\""9  <br/><b>Extremely trustworthy</b>\""],\""required\"":true}]"", ""task_unique_trial"": 100, ""task_name"": ""trustworthy-modifae-single"", ""trial_index"": 68, ""isRepeat"": 0}"
A3O1UM8O2RBC08:3WJ1OXY92CNIZX0QBLLJFH90AIMA8B,69,1548055709892,"{""rt"": 11405, ""trial_type"": ""face-likert-amanda"", ""debug_mode"": ""live"", ""task_type"": ""face trials"", ""responses"": ""{\""Q0\"":4}"", ""task_payment"": 1, ""task_version"": 1, ""internal_node_id"": ""0.0-8.0-0.0-1.0"", ""time_elapsed"": 404175, ""imgName"": ""/static/images/modifAE_linspace/trustworthy/136259_0.40909090909090917.png"", ""questions"": ""[{\""prompt\"":\""<p>How <b>trustworthy</b> does this person look to <b>most people</b>? Rate from 1-9</p>\"",\""labels\"":[\""1 <br/><b>Not trustworthy at all</b>\"",\""2\"",\""3\"",\""4\"",\""5\"",\""6\"",\""7\"",\""8\"",\""9  <br/><b>Extremely trustworthy</b>\""],\""required\"":true}]"", ""task_unique_trial"": 100, ""task_name"": ""trustworthy-modifae-single"", ""trial_index"": 69, ""isRepeat"": 0}"
A3O1UM8O2RBC08:3WJ1OXY92CNIZX0QBLLJFH90AIMA8B,70,1548055712932,"{""rt"": 3035, ""trial_type"": ""face-likert-amanda"", ""debug_mode"": ""live"", ""task_type"": ""face trials"", ""responses"": ""{\""Q0\"":6}"", ""task_payment"": 1, ""task_version"": 1, ""internal_node_id"": ""0.0-8.0-0.0-2.0"", ""time_elapsed"": 407215, ""imgName"": ""/static/images/modifAE_linspace/trustworthy/136185_-0.33838383838383834.png"", ""questions"": ""[{\""prompt\"":\""<p>How <b>trustworthy</b> does this person look to <b>most people</b>? Rate from 1-9</p>\"",\""labels\"":[\""1 <br/><b>Not trustworthy at all</b>\"",\""2\"",\""3\"",\""4\"",\""5\"",\""6\"",\""7\"",\""8\"",\""9  <br/><b>Extremely trustworthy</b>\""],\""required\"":true}]"", ""task_unique_trial"": 100, ""task_name"": ""trustworthy-modifae-single"", ""trial_index"": 70, ""isRepeat"": 0}"
A3O1UM8O2RBC08:3WJ1OXY92CNIZX0QBLLJFH90AIMA8B,71,1548055716898,"{""rt"": 3962, ""trial_type"": ""face-likert-amanda"", ""debug_mode"": ""live"", ""task_type"": ""face trials"", ""responses"": ""{\""Q0\"":3}"", ""task_payment"": 1, ""task_version"": 1, ""internal_node_id"": ""0.0-8.0-0.0-3.0"", ""time_elapsed"": 411181, ""imgName"": ""/static/images/modifAE_linspace/trustworthy/136176_-0.4292929292929293.png"", ""questions"": ""[{\""prompt\"":\""<p>How <b>trustworthy</b> does this person look to <b>most people</b>? Rate from 1-9</p>\"",\""labels\"":[\""1 <br/><b>Not trustworthy at all</b>\"",\""2\"",\""3\"",\""4\"",\""5\"",\""6\"",\""7\"",\""8\"",\""9  <br/><b>Extremely trustworthy</b>\""],\""required\"":true}]"", ""task_unique_trial"": 100, ""task_name"": ""trustworthy-modifae-single"", ""trial_index"": 71, ""isRepeat"": 0}"
A3O1UM8O2RBC08:3WJ1OXY92CNIZX0QBLLJFH90AIMA8B,72,1548055720999,"{""rt"": 4098, ""trial_type"": ""face-likert-amanda"", ""debug_mode"": ""live"", ""task_type"": ""face trials"", ""responses"": ""{\""Q0\"":5}"", ""task_payment"": 1, ""task_version"": 1, ""internal_node_id"": ""0.0-8.0-0.0-4.0"", ""time_elapsed"": 415282, ""imgName"": ""/static/images/modifAE_linspace/trustworthy/136208_-0.10606060606060602.png"", ""questions"": ""[{\""prompt\"":\""<p>How <b>trustworthy</b> does this person look to <b>most people</b>? Rate from 1-9</p>\"",\""labels\"":[\""1 <br/><b>Not trustworthy at all</b>\"",\""2\"",\""3\"",\""4\"",\""5\"",\""6\"",\""7\"",\""8\"",\""9  <br/><b>Extremely trustworthy</b>\""],\""required\"":true}]"", ""task_unique_trial"": 100, ""task_name"": ""trustworthy-modifae-single"", ""trial_index"": 72, ""isRepeat"": 0}"
A3O1UM8O2RBC08:3WJ1OXY92CNIZX0QBLLJFH90AIMA8B,73,1548055724618,"{""rt"": 3614, ""trial_type"": ""face-likert-amanda"", ""debug_mode"": ""live"", ""task_type"": ""face trials"", ""responses"": ""{\""Q0\"":4}"", ""task_payment"": 1, ""task_version"": 1, ""internal_node_id"": ""0.0-8.0-0.0-5.0"", ""time_elapsed"": 418901, ""imgName"": ""/static/images/modifAE_linspace/trustworthy/136239_0.20707070707070718.png"", ""questions"": ""[{\""prompt\"":\""<p>How <b>trustworthy</b> does this person look to <b>most people</b>? Rate from 1-9</p>\"",\""labels\"":[\""1 <br/><b>Not trustworthy at all</b>\"",\""2\"",\""3\"",\""4\"",\""5\"",\""6\"",\""7\"",\""8\"",\""9  <br/><b>Extremely trustworthy</b>\""],\""required\"":true}]"", ""task_unique_trial"": 100, ""task_name"": ""trustworthy-modifae-single"", ""trial_index"": 73, ""isRepeat"": 0}"
A3O1UM8O2RBC08:3WJ1OXY92CNIZX0QBLLJFH90AIMA8B,74,1548055729250,"{""rt"": 4627, ""trial_type"": ""face-likert-amanda"", ""debug_mode"": ""live"", ""task_type"": ""face trials"", ""responses"": ""{\""Q0\"":5}"", ""task_payment"": 1, ""task_version"": 1, ""internal_node_id"": ""0.0-8.0-0.0-6.0"", ""time_elapsed"": 423533, ""imgName"": ""/static/images/modifAE_linspace/trustworthy/136177_-0.41919191919191917.png"", ""questions"": ""[{\""prompt\"":\""<p>How <b>trustworthy</b> does this person look to <b>most people</b>? Rate from 1-9</p>\"",\""labels\"":[\""1 <br/><b>Not trustworthy at all</b>\"",\""2\"",\""3\"",\""4\"",\""5\"",\""6\"",\""7\"",\""8\"",\""9  <br/><b>Extremely trustworthy</b>\""],\""required\"":true}]"", ""task_unique_trial"": 100, ""task_name"": ""trustworthy-modifae-single"", ""trial_index"": 74, ""isRepeat"": 0}"
A3O1UM8O2RBC08:3WJ1OXY92CNIZX0QBLLJFH90AIMA8B,75,1548055738183,"{""rt"": 8928, ""trial_type"": ""face-likert-amanda"", ""debug_mode"": ""live"", ""task_type"": ""face trials"", ""responses"": ""{\""Q0\"":5}"", ""task_payment"": 1, ""task_version"": 1, ""internal_node_id"": ""0.0-8.0-0.0-7.0"", ""time_elapsed"": 432465, ""imgName"": ""/static/images/modifAE_linspace/trustworthy/136171_-0.4797979797979798.png"", ""questions"": ""[{\""prompt\"":\""<p>How <b>trustworthy</b> does this person look to <b>most people</b>? Rate from 1-9</p>\"",\""labels\"":[\""1 <br/><b>Not trustworthy at all</b>\"",\""2\"",\""3\"",\""4\"",\""5\"",\""6\"",\""7\"",\""8\"",\""9  <br/><b>Extremely trustworthy</b>\""],\""required\"":true}]"", ""task_unique_trial"": 100, ""task_name"": ""trustworthy-modifae-single"", ""trial_index"": 75, ""isRepeat"": 0}"
A3O1UM8O2RBC08:3WJ1OXY92CNIZX0QBLLJFH90AIMA8B,76,1548055747854,"{""rt"": 9668, ""trial_type"": ""face-likert-amanda"", ""debug_mode"": ""live"", ""task_type"": ""face trials"", ""responses"": ""{\""Q0\"":4}"", ""task_payment"": 1, ""task_version"": 1, ""internal_node_id"": ""0.0-8.0-0.0-8.0"", ""time_elapsed"": 442137, ""imgName"": ""/static/images/modifAE_linspace/trustworthy/136242_0.23737373737373746.png"", ""questions"": ""[{\""prompt\"":\""<p>How <b>trustworthy</b> does this person look to <b>most people</b>? Rate from 1-9</p>\"",\""labels\"":[\""1 <br/><b>Not trustworthy at all</b>\"",\""2\"",\""3\"",\""4\"",\""5\"",\""6\"",\""7\"",\""8\"",\""9  <br/><b>Extremely trustworthy</b>\""],\""required\"":true}]"", ""task_unique_trial"": 100, ""task_name"": ""trustworthy-modifae-single"", ""trial_index"": 76, ""isRepeat"": 0}"
A3O1UM8O2RBC08:3WJ1OXY92CNIZX0QBLLJFH90AIMA8B,77,1548055754572,"{""rt"": 6715, ""trial_type"": ""face-likert-amanda"", ""debug_mode"": ""live"", ""task_type"": ""face trials"", ""responses"": ""{\""Q0\"":3}"", ""task_payment"": 1, ""task_version"": 1, ""internal_node_id"": ""0.0-8.0-0.0-9.0"", ""time_elapsed"": 448855, ""imgName"": ""/static/images/modifAE_linspace/trustworthy/136226_0.0757575757575758.png"", ""questions"": ""[{\""prompt\"":\""<p>How <b>trustworthy</b> does this person look to <b>most people</b>? Rate from 1-9</p>\"",\""labels\"":[\""1 <br/><b>Not trustworthy at all</b>\"",\""2\"",\""3\"",\""4\"",\""5\"",\""6\"",\""7\"",\""8\"",\""9  <br/><b>Extremely trustworthy</b>\""],\""required\"":true}]"", ""task_unique_trial"": 100, ""task_name"": ""trustworthy-modifae-single"", ""trial_index"": 77, ""isRepeat"": 0}"
A3O1UM8O2RBC08:3WJ1OXY92CNIZX0QBLLJFH90AIMA8B,78,1548055755578,"{""rt"": null, ""trial_type"": ""html-keyboard-response"", ""task_unique_trial"": 100, ""stimulus"": ""<p>Good job!</p>"", ""task_version"": 1, ""internal_node_id"": ""0.0-8.0-1.0"", ""task_payment"": 1, ""time_elapsed"": 449861, ""debug_mode"": ""live"", ""key_press"": null, ""task_name"": ""trustworthy-modifae-single"", ""trial_index"": 78}"
A3O1UM8O2RBC08:3WJ1OXY92CNIZX0QBLLJFH90AIMA8B,79,1548055760506,"{""rt"": 4924, ""trial_type"": ""face-likert-amanda"", ""debug_mode"": ""live"", ""task_type"": ""face trials"", ""responses"": ""{\""Q0\"":4}"", ""task_payment"": 1, ""task_version"": 1, ""internal_node_id"": ""0.0-9.0-0.0-0.0"", ""time_elapsed"": 454788, ""imgName"": ""/static/images/modifAE_linspace/trustworthy/136256_0.3787878787878789.png"", ""questions"": ""[{\""prompt\"":\""<p>How <b>trustworthy</b> does this person look to <b>most people</b>? Rate from 1-9</p>\"",\""labels\"":[\""1 <br/><b>Not trustworthy at all</b>\"",\""2\"",\""3\"",\""4\"",\""5\"",\""6\"",\""7\"",\""8\"",\""9  <br/><b>Extremely trustworthy</b>\""],\""required\"":true}]"", ""task_unique_trial"": 100, ""task_name"": ""trustworthy-modifae-single"", ""trial_index"": 79, ""isRepeat"": 0}"
A3O1UM8O2RBC08:3WJ1OXY92CNIZX0QBLLJFH90AIMA8B,80,1548055764175,"{""rt"": 3666, ""trial_type"": ""face-likert-amanda"", ""debug_mode"": ""live"", ""task_type"": ""face trials"", ""responses"": ""{\""Q0\"":3}"", ""task_payment"": 1, ""task_version"": 1, ""internal_node_id"": ""0.0-9.0-0.0-1.0"", ""time_elapsed"": 458458, ""imgName"": ""/static/images/modifAE_linspace/trustworthy/136231_0.1262626262626263.png"", ""questions"": ""[{\""prompt\"":\""<p>How <b>trustworthy</b> does this person look to <b>most people</b>? Rate from 1-9</p>\"",\""labels\"":[\""1 <br/><b>Not trustworthy at all</b>\"",\""2\"",\""3\"",\""4\"",\""5\"",\""6\"",\""7\"",\""8\"",\""9  <br/><b>Extremely trustworthy</b>\""],\""required\"":true}]"", ""task_unique_trial"": 100, ""task_name"": ""trustworthy-modifae-single"", ""trial_index"": 80, ""isRepeat"": 0}"
A3O1UM8O2RBC08:3WJ1OXY92CNIZX0QBLLJFH90AIMA8B,81,1548055768264,"{""rt"": 4085, ""trial_type"": ""face-likert-amanda"", ""debug_mode"": ""live"", ""task_type"": ""face trials"", ""responses"": ""{\""Q0\"":5}"", ""task_payment"": 1, ""task_version"": 1, ""internal_node_id"": ""0.0-9.0-0.0-2.0"", ""time_elapsed"": 462547, ""imgName"": ""/static/images/modifAE_linspace/trustworthy/136258_0.3989898989898991.png"", ""questions"": ""[{\""prompt\"":\""<p>How <b>trustworthy</b> does this person look to <b>most people</b>? Rate from 1-9</p>\"",\""labels\"":[\""1 <br/><b>Not trustworthy at all</b>\"",\""2\"",\""3\"",\""4\"",\""5\"",\""6\"",\""7\"",\""8\"",\""9  <br/><b>Extremely trustworthy</b>\""],\""required\"":true}]"", ""task_unique_trial"": 100, ""task_name"": ""trustworthy-modifae-single"", ""trial_index"": 81, ""isRepeat"": 0}"
A3O1UM8O2RBC08:3WJ1OXY92CNIZX0QBLLJFH90AIMA8B,82,1548055772748,"{""rt"": 4479, ""trial_type"": ""face-likert-amanda"", ""debug_mode"": ""live"", ""task_type"": ""face trials"", ""responses"": ""{\""Q0\"":6}"", ""task_payment"": 1, ""task_version"": 1, ""internal_node_id"": ""0.0-9.0-0.0-3.0"", ""time_elapsed"": 467030, ""imgName"": ""/static/images/modifAE_linspace/trustworthy/136169_-0.5.png"", ""questions"": ""[{\""prompt\"":\""<p>How <b>trustworthy</b> does this person look to <b>most people</b>? Rate from 1-9</p>\"",\""labels\"":[\""1 <br/><b>Not trustworthy at all</b>\"",\""2\"",\""3\"",\""4\"",\""5\"",\""6\"",\""7\"",\""8\"",\""9  <br/><b>Extremely trustworthy</b>\""],\""required\"":true}]"", ""task_unique_trial"": 100, ""task_name"": ""trustworthy-modifae-single"", ""trial_index"": 82, ""isRepeat"": 0}"
A3O1UM8O2RBC08:3WJ1OXY92CNIZX0QBLLJFH90AIMA8B,83,1548055778072,"{""rt"": 5320, ""trial_type"": ""face-likert-amanda"", ""debug_mode"": ""live"", ""task_type"": ""face trials"", ""responses"": ""{\""Q0\"":5}"", ""task_payment"": 1, ""task_version"": 1, ""internal_node_id"": ""0.0-9.0-0.0-4.0"", ""time_elapsed"": 472355, ""imgName"": ""/static/images/modifAE_linspace/trustworthy/136254_0.3585858585858587.png"", ""questions"": ""[{\""prompt\"":\""<p>How <b>trustworthy</b> does this person look to <b>most people</b>? Rate from 1-9</p>\"",\""labels\"":[\""1 <br/><b>Not trustworthy at all</b>\"",\""2\"",\""3\"",\""4\"",\""5\"",\""6\"",\""7\"",\""8\"",\""9  <br/><b>Extremely trustworthy</b>\""],\""required\"":true}]"", ""task_unique_trial"": 100, ""task_name"": ""trustworthy-modifae-single"", ""trial_index"": 83, ""isRepeat"": 0}"
A3O1UM8O2RBC08:3WJ1OXY92CNIZX0QBLLJFH90AIMA8B,84,1548055782728,"{""rt"": 4652, ""trial_type"": ""face-likert-amanda"", ""debug_mode"": ""live"", ""task_type"": ""face trials"", ""responses"": ""{\""Q0\"":4}"", ""task_payment"": 1, ""task_version"": 1, ""internal_node_id"": ""0.0-9.0-0.0-5.0"", ""time_elapsed"": 477011, ""imgName"": ""/static/images/modifAE_linspace/trustworthy/136241_0.2272727272727273.png"", ""questions"": ""[{\""prompt\"":\""<p>How <b>trustworthy</b> does this person look to <b>most people</b>? Rate from 1-9</p>\"",\""labels\"":[\""1 <br/><b>Not trustworthy at all</b>\"",\""2\"",\""3\"",\""4\"",\""5\"",\""6\"",\""7\"",\""8\"",\""9  <br/><b>Extremely trustworthy</b>\""],\""required\"":true}]"", ""task_unique_trial"": 100, ""task_name"": ""trustworthy-modifae-single"", ""trial_index"": 84, ""isRepeat"": 0}"
A3O1UM8O2RBC08:3WJ1OXY92CNIZX0QBLLJFH90AIMA8B,85,1548055786510,"{""rt"": 3778, ""trial_type"": ""face-likert-amanda"", ""debug_mode"": ""live"", ""task_type"": ""face trials"", ""responses"": ""{\""Q0\"":5}"", ""task_payment"": 1, ""task_version"": 1, ""internal_node_id"": ""0.0-9.0-0.0-6.0"", ""time_elapsed"": 480793, ""imgName"": ""/static/images/modifAE_linspace/trustworthy/136206_-0.12626262626262624.png"", ""questions"": ""[{\""prompt\"":\""<p>How <b>trustworthy</b> does this person look to <b>most people</b>? Rate from 1-9</p>\"",\""labels\"":[\""1 <br/><b>Not trustworthy at all</b>\"",\""2\"",\""3\"",\""4\"",\""5\"",\""6\"",\""7\"",\""8\"",\""9  <br/><b>Extremely trustworthy</b>\""],\""required\"":true}]"", ""task_unique_trial"": 100, ""task_name"": ""trustworthy-modifae-single"", ""trial_index"": 85, ""isRepeat"": 0}"
A3O1UM8O2RBC08:3WJ1OXY92CNIZX0QBLLJFH90AIMA8B,86,1548055794020,"{""rt"": 7506, ""trial_type"": ""face-likert-amanda"", ""debug_mode"": ""live"", ""task_type"": ""face trials"", ""responses"": ""{\""Q0\"":6}"", ""task_payment"": 1, ""task_version"": 1, ""internal_node_id"": ""0.0-9.0-0.0-7.0"", ""time_elapsed"": 488303, ""imgName"": ""/static/images/modifAE_linspace/trustworthy/136187_-0.3181818181818182.png"", ""questions"": ""[{\""prompt\"":\""<p>How <b>trustworthy</b> does this person look to <b>most people</b>? Rate from 1-9</p>\"",\""labels\"":[\""1 <br/><b>Not trustworthy at all</b>\"",\""2\"",\""3\"",\""4\"",\""5\"",\""6\"",\""7\"",\""8\"",\""9  <br/><b>Extremely trustworthy</b>\""],\""required\"":true}]"", ""task_unique_trial"": 100, ""task_name"": ""trustworthy-modifae-single"", ""trial_index"": 86, ""isRepeat"": 0}"
A3O1UM8O2RBC08:3WJ1OXY92CNIZX0QBLLJFH90AIMA8B,87,1548055801149,"{""rt"": 7125, ""trial_type"": ""face-likert-amanda"", ""debug_mode"": ""live"", ""task_type"": ""face trials"", ""responses"": ""{\""Q0\"":2}"", ""task_payment"": 1, ""task_version"": 1, ""internal_node_id"": ""0.0-9.0-0.0-8.0"", ""time_elapsed"": 495432, ""imgName"": ""/static/images/modifAE_linspace/trustworthy/136189_-0.29797979797979796.png"", ""questions"": ""[{\""prompt\"":\""<p>How <b>trustworthy</b> does this person look to <b>most people</b>? Rate from 1-9</p>\"",\""labels\"":[\""1 <br/><b>Not trustworthy at all</b>\"",\""2\"",\""3\"",\""4\"",\""5\"",\""6\"",\""7\"",\""8\"",\""9  <br/><b>Extremely trustworthy</b>\""],\""required\"":true}]"", ""task_unique_trial"": 100, ""task_name"": ""trustworthy-modifae-single"", ""trial_index"": 87, ""isRepeat"": 0}"
A3O1UM8O2RBC08:3WJ1OXY92CNIZX0QBLLJFH90AIMA8B,88,1548055805684,"{""rt"": 4531, ""trial_type"": ""face-likert-amanda"", ""debug_mode"": ""live"", ""task_type"": ""face trials"", ""responses"": ""{\""Q0\"":3}"", ""task_payment"": 1, ""task_version"": 1, ""internal_node_id"": ""0.0-9.0-0.0-9.0"", ""time_elapsed"": 499967, ""imgName"": ""/static/images/modifAE_linspace/trustworthy/136219_0.005050505050505083.png"", ""questions"": ""[{\""prompt\"":\""<p>How <b>trustworthy</b> does this person look to <b>most people</b>? Rate from 1-9</p>\"",\""labels\"":[\""1 <br/><b>Not trustworthy at all</b>\"",\""2\"",\""3\"",\""4\"",\""5\"",\""6\"",\""7\"",\""8\"",\""9  <br/><b>Extremely trustworthy</b>\""],\""required\"":true}]"", ""task_unique_trial"": 100, ""task_name"": ""trustworthy-modifae-single"", ""trial_index"": 88, ""isRepeat"": 0}"
A3O1UM8O2RBC08:3WJ1OXY92CNIZX0QBLLJFH90AIMA8B,89,1548055806691,"{""rt"": null, ""trial_type"": ""html-keyboard-response"", ""task_unique_trial"": 100, ""stimulus"": ""<p>Good job!</p>"", ""task_version"": 1, ""internal_node_id"": ""0.0-9.0-1.0"", ""task_payment"": 1, ""time_elapsed"": 500974, ""debug_mode"": ""live"", ""key_press"": null, ""task_name"": ""trustworthy-modifae-single"", ""trial_index"": 89}"
A3O1UM8O2RBC08:3WJ1OXY92CNIZX0QBLLJFH90AIMA8B,90,1548055812714,"{""rt"": 6014, ""trial_type"": ""face-likert-amanda"", ""debug_mode"": ""live"", ""task_type"": ""face trials"", ""responses"": ""{\""Q0\"":5}"", ""task_payment"": 1, ""task_version"": 1, ""internal_node_id"": ""0.0-10.0-0.0-0.0"", ""time_elapsed"": 506996, ""imgName"": ""/static/images/modifAE_linspace/trustworthy/136196_-0.22727272727272724.png"", ""questions"": ""[{\""prompt\"":\""<p>How <b>trustworthy</b> does this person look to <b>most people</b>? Rate from 1-9</p>\"",\""labels\"":[\""1 <br/><b>Not trustworthy at all</b>\"",\""2\"",\""3\"",\""4\"",\""5\"",\""6\"",\""7\"",\""8\"",\""9  <br/><b>Extremely trustworthy</b>\""],\""required\"":true}]"", ""task_unique_trial"": 100, ""task_name"": ""trustworthy-modifae-single"", ""trial_index"": 90, ""isRepeat"": 0}"
A3O1UM8O2RBC08:3WJ1OXY92CNIZX0QBLLJFH90AIMA8B,91,1548055818507,"{""rt"": 5789, ""trial_type"": ""face-likert-amanda"", ""debug_mode"": ""live"", ""task_type"": ""face trials"", ""responses"": ""{\""Q0\"":4}"", ""task_payment"": 1, ""task_version"": 1, ""internal_node_id"": ""0.0-10.0-0.0-1.0"", ""time_elapsed"": 512790, ""imgName"": ""/static/images/modifAE_linspace/trustworthy/136240_0.21717171717171724.png"", ""questions"": ""[{\""prompt\"":\""<p>How <b>trustworthy</b> does this person look to <b>most people</b>? Rate from 1-9</p>\"",\""labels\"":[\""1 <br/><b>Not trustworthy at all</b>\"",\""2\"",\""3\"",\""4\"",\""5\"",\""6\"",\""7\"",\""8\"",\""9  <br/><b>Extremely trustworthy</b>\""],\""required\"":true}]"", ""task_unique_trial"": 100, ""task_name"": ""trustworthy-modifae-single"", ""trial_index"": 91, ""isRepeat"": 0}"
A3O1UM8O2RBC08:3WJ1OXY92CNIZX0QBLLJFH90AIMA8B,92,1548055825648,"{""rt"": 7135, ""trial_type"": ""face-likert-amanda"", ""debug_mode"": ""live"", ""task_type"": ""face trials"", ""responses"": ""{\""Q0\"":3}"", ""task_payment"": 1, ""task_version"": 1, ""internal_node_id"": ""0.0-10.0-0.0-2.0"", ""time_elapsed"": 519931, ""imgName"": ""/static/images/modifAE_linspace/trustworthy/136176_-0.4292929292929293.png"", ""questions"": ""[{\""prompt\"":\""<p>How <b>trustworthy</b> does this person look to <b>most people</b>? Rate from 1-9</p>\"",\""labels\"":[\""1 <br/><b>Not trustworthy at all</b>\"",\""2\"",\""3\"",\""4\"",\""5\"",\""6\"",\""7\"",\""8\"",\""9  <br/><b>Extremely trustworthy</b>\""],\""required\"":true}]"", ""task_unique_trial"": 100, ""task_name"": ""trustworthy-modifae-single"", ""trial_index"": 92, ""isRepeat"": 0}"
A3O1UM8O2RBC08:3WJ1OXY92CNIZX0QBLLJFH90AIMA8B,93,1548055828996,"{""rt"": 3344, ""trial_type"": ""face-likert-amanda"", ""debug_mode"": ""live"", ""task_type"": ""face trials"", ""responses"": ""{\""Q0\"":6}"", ""task_payment"": 1, ""task_version"": 1, ""internal_node_id"": ""0.0-10.0-0.0-3.0"", ""time_elapsed"": 523279, ""imgName"": ""/static/images/modifAE_linspace/trustworthy/136204_-0.1464646464646464.png"", ""questions"": ""[{\""prompt\"":\""<p>How <b>trustworthy</b> does this person look to <b>most people</b>? Rate from 1-9</p>\"",\""labels\"":[\""1 <br/><b>Not trustworthy at all</b>\"",\""2\"",\""3\"",\""4\"",\""5\"",\""6\"",\""7\"",\""8\"",\""9  <br/><b>Extremely trustworthy</b>\""],\""required\"":true}]"", ""task_unique_trial"": 100, ""task_name"": ""trustworthy-modifae-single"", ""trial_index"": 93, ""isRepeat"": 0}"
A3O1UM8O2RBC08:3WJ1OXY92CNIZX0QBLLJFH90AIMA8B,94,1548055833530,"{""rt"": 4530, ""trial_type"": ""face-likert-amanda"", ""debug_mode"": ""live"", ""task_type"": ""face trials"", ""responses"": ""{\""Q0\"":3}"", ""task_payment"": 1, ""task_version"": 1, ""internal_node_id"": ""0.0-10.0-0.0-4.0"", ""time_elapsed"": 527813, ""imgName"": ""/static/images/modifAE_linspace/trustworthy/136251_0.3282828282828284.png"", ""questions"": ""[{\""prompt\"":\""<p>How <b>trustworthy</b> does this person look to <b>most people</b>? Rate from 1-9</p>\"",\""labels\"":[\""1 <br/><b>Not trustworthy at all</b>\"",\""2\"",\""3\"",\""4\"",\""5\"",\""6\"",\""7\"",\""8\"",\""9  <br/><b>Extremely trustworthy</b>\""],\""required\"":true}]"", ""task_unique_trial"": 100, ""task_name"": ""trustworthy-modifae-single"", ""trial_index"": 94, ""isRepeat"": 0}"
A3O1UM8O2RBC08:3WJ1OXY92CNIZX0QBLLJFH90AIMA8B,95,1548055836519,"{""rt"": 2985, ""trial_type"": ""face-likert-amanda"", ""debug_mode"": ""live"", ""task_type"": ""face trials"", ""responses"": ""{\""Q0\"":7}"", ""task_payment"": 1, ""task_version"": 1, ""internal_node_id"": ""0.0-10.0-0.0-5.0"", ""time_elapsed"": 530802, ""imgName"": ""/static/images/modifAE_linspace/trustworthy/136223_0.045454545454545525.png"", ""questions"": ""[{\""prompt\"":\""<p>How <b>trustworthy</b> does this person look to <b>most people</b>? Rate from 1-9</p>\"",\""labels\"":[\""1 <br/><b>Not trustworthy at all</b>\"",\""2\"",\""3\"",\""4\"",\""5\"",\""6\"",\""7\"",\""8\"",\""9  <br/><b>Extremely trustworthy</b>\""],\""required\"":true}]"", ""task_unique_trial"": 100, ""task_name"": ""trustworthy-modifae-single"", ""trial_index"": 95, ""isRepeat"": 0}"
A3O1UM8O2RBC08:3WJ1OXY92CNIZX0QBLLJFH90AIMA8B,96,1548055841893,"{""rt"": 5369, ""trial_type"": ""face-likert-amanda"", ""debug_mode"": ""live"", ""task_type"": ""face trials"", ""responses"": ""{\""Q0\"":4}"", ""task_payment"": 1, ""task_version"": 1, ""internal_node_id"": ""0.0-10.0-0.0-6.0"", ""time_elapsed"": 536176, ""imgName"": ""/static/images/modifAE_linspace/trustworthy/136175_-0.4393939393939394.png"", ""questions"": ""[{\""prompt\"":\""<p>How <b>trustworthy</b> does this person look to <b>most people</b>? Rate from 1-9</p>\"",\""labels\"":[\""1 <br/><b>Not trustworthy at all</b>\"",\""2\"",\""3\"",\""4\"",\""5\"",\""6\"",\""7\"",\""8\"",\""9  <br/><b>Extremely trustworthy</b>\""],\""required\"":true}]"", ""task_unique_trial"": 100, ""task_name"": ""trustworthy-modifae-single"", ""trial_index"": 96, ""isRepeat"": 0}"
A3O1UM8O2RBC08:3WJ1OXY92CNIZX0QBLLJFH90AIMA8B,97,1548055848326,"{""rt"": 6430, ""trial_type"": ""face-likert-amanda"", ""debug_mode"": ""live"", ""task_type"": ""face trials"", ""responses"": ""{\""Q0\"":3}"", ""task_payment"": 1, ""task_version"": 1, ""internal_node_id"": ""0.0-10.0-0.0-7.0"", ""time_elapsed"": 542609, ""imgName"": ""/static/images/modifAE_linspace/trustworthy/136215_-0.035353535353535304.png"", ""questions"": ""[{\""prompt\"":\""<p>How <b>trustworthy</b> does this person look to <b>most people</b>? Rate from 1-9</p>\"",\""labels\"":[\""1 <br/><b>Not trustworthy at all</b>\"",\""2\"",\""3\"",\""4\"",\""5\"",\""6\"",\""7\"",\""8\"",\""9  <br/><b>Extremely trustworthy</b>\""],\""required\"":true}]"", ""task_unique_trial"": 100, ""task_name"": ""trustworthy-modifae-single"", ""trial_index"": 97, ""isRepeat"": 0}"
A3O1UM8O2RBC08:3WJ1OXY92CNIZX0QBLLJFH90AIMA8B,98,1548055852414,"{""rt"": 4084, ""trial_type"": ""face-likert-amanda"", ""debug_mode"": ""live"", ""task_type"": ""face trials"", ""responses"": ""{\""Q0\"":5}"", ""task_payment"": 1, ""task_version"": 1, ""internal_node_id"": ""0.0-10.0-0.0-8.0"", ""time_elapsed"": 546697, ""imgName"": ""/static/images/modifAE_linspace/trustworthy/136249_0.3080808080808082.png"", ""questions"": ""[{\""prompt\"":\""<p>How <b>trustworthy</b> does this person look to <b>most people</b>? Rate from 1-9</p>\"",\""labels\"":[\""1 <br/><b>Not trustworthy at all</b>\"",\""2\"",\""3\"",\""4\"",\""5\"",\""6\"",\""7\"",\""8\"",\""9  <br/><b>Extremely trustworthy</b>\""],\""required\"":true}]"", ""task_unique_trial"": 100, ""task_name"": ""trustworthy-modifae-single"", ""trial_index"": 98, ""isRepeat"": 0}"
A3O1UM8O2RBC08:3WJ1OXY92CNIZX0QBLLJFH90AIMA8B,99,1548055856664,"{""rt"": 4245, ""trial_type"": ""face-likert-amanda"", ""debug_mode"": ""live"", ""task_type"": ""face trials"", ""responses"": ""{\""Q0\"":5}"", ""task_payment"": 1, ""task_version"": 1, ""internal_node_id"": ""0.0-10.0-0.0-9.0"", ""time_elapsed"": 550947, ""imgName"": ""/static/images/modifAE_linspace/trustworthy/136268_0.5.png"", ""questions"": ""[{\""prompt\"":\""<p>How <b>trustworthy</b> does this person look to <b>most people</b>? Rate from 1-9</p>\"",\""labels\"":[\""1 <br/><b>Not trustworthy at all</b>\"",\""2\"",\""3\"",\""4\"",\""5\"",\""6\"",\""7\"",\""8\"",\""9  <br/><b>Extremely trustworthy</b>\""],\""required\"":true}]"", ""task_unique_trial"": 100, ""task_name"": ""trustworthy-modifae-single"", ""trial_index"": 99, ""isRepeat"": 0}"
A3O1UM8O2RBC08:3WJ1OXY92CNIZX0QBLLJFH90AIMA8B,100,1548055858168,"{""rt"": null, ""trial_type"": ""html-keyboard-response"", ""task_unique_trial"": 100, ""stimulus"": ""<p>Good job!</p>"", ""task_version"": 1, ""internal_node_id"": ""0.0-10.0-1.0"", ""task_payment"": 1, ""time_elapsed"": 552451, ""debug_mode"": ""live"", ""key_press"": null, ""task_name"": ""trustworthy-modifae-single"", ""trial_index"": 100}"
A3O1UM8O2RBC08:3WJ1OXY92CNIZX0QBLLJFH90AIMA8B,101,1548055862692,"{""rt"": 4514, ""trial_type"": ""face-likert-amanda"", ""debug_mode"": ""live"", ""task_type"": ""face trials"", ""responses"": ""{\""Q0\"":4}"", ""task_payment"": 1, ""task_version"": 1, ""internal_node_id"": ""0.0-11.0-0.0-0.0"", ""time_elapsed"": 556975, ""imgName"": ""/static/images/modifAE_linspace/trustworthy/136234_0.15656565656565657.png"", ""questions"": ""[{\""prompt\"":\""<p>How <b>trustworthy</b> does this person look to <b>most people</b>? Rate from 1-9</p>\"",\""labels\"":[\""1 <br/><b>Not trustworthy at all</b>\"",\""2\"",\""3\"",\""4\"",\""5\"",\""6\"",\""7\"",\""8\"",\""9  <br/><b>Extremely trustworthy</b>\""],\""required\"":true}]"", ""task_unique_trial"": 100, ""task_name"": ""trustworthy-modifae-single"", ""trial_index"": 101, ""isRepeat"": 0}"
A3O1UM8O2RBC08:3WJ1OXY92CNIZX0QBLLJFH90AIMA8B,102,1548055866274,"{""rt"": 3578, ""trial_type"": ""face-likert-amanda"", ""debug_mode"": ""live"", ""task_type"": ""face trials"", ""responses"": ""{\""Q0\"":6}"", ""task_payment"": 1, ""task_version"": 1, ""internal_node_id"": ""0.0-11.0-0.0-1.0"", ""time_elapsed"": 560557, ""imgName"": ""/static/images/modifAE_linspace/trustworthy/136204_-0.1464646464646464.png"", ""questions"": ""[{\""prompt\"":\""<p>How <b>trustworthy</b> does this person look to <b>most people</b>? Rate from 1-9</p>\"",\""labels\"":[\""1 <br/><b>Not trustworthy at all</b>\"",\""2\"",\""3\"",\""4\"",\""5\"",\""6\"",\""7\"",\""8\"",\""9  <br/><b>Extremely trustworthy</b>\""],\""required\"":true}]"", ""task_unique_trial"": 100, ""task_name"": ""trustworthy-modifae-single"", ""trial_index"": 102, ""isRepeat"": 0}"
A3O1UM8O2RBC08:3WJ1OXY92CNIZX0QBLLJFH90AIMA8B,103,1548055871696,"{""rt"": 5417, ""trial_type"": ""face-likert-amanda"", ""debug_mode"": ""live"", ""task_type"": ""face trials"", ""responses"": ""{\""Q0\"":3}"", ""task_payment"": 1, ""task_version"": 1, ""internal_node_id"": ""0.0-11.0-0.0-2.0"", ""time_elapsed"": 565978, ""imgName"": ""/static/images/modifAE_linspace/trustworthy/136222_0.03535353535353536.png"", ""questions"": ""[{\""prompt\"":\""<p>How <b>trustworthy</b> does this person look to <b>most people</b>? Rate from 1-9</p>\"",\""labels\"":[\""1 <br/><b>Not trustworthy at all</b>\"",\""2\"",\""3\"",\""4\"",\""5\"",\""6\"",\""7\"",\""8\"",\""9  <br/><b>Extremely trustworthy</b>\""],\""required\"":true}]"", ""task_unique_trial"": 100, ""task_name"": ""trustworthy-modifae-single"", ""trial_index"": 103, ""isRepeat"": 0}"
A3O1UM8O2RBC08:3WJ1OXY92CNIZX0QBLLJFH90AIMA8B,104,1548055876366,"{""rt"": 4666, ""trial_type"": ""face-likert-amanda"", ""debug_mode"": ""live"", ""task_type"": ""face trials"", ""responses"": ""{\""Q0\"":4}"", ""task_payment"": 1, ""task_version"": 1, ""internal_node_id"": ""0.0-11.0-0.0-3.0"", ""time_elapsed"": 570649, ""imgName"": ""/static/images/modifAE_linspace/trustworthy/136225_0.06565656565656575.png"", ""questions"": ""[{\""prompt\"":\""<p>How <b>trustworthy</b> does this person look to <b>most people</b>? Rate from 1-9</p>\"",\""labels\"":[\""1 <br/><b>Not trustworthy at all</b>\"",\""2\"",\""3\"",\""4\"",\""5\"",\""6\"",\""7\"",\""8\"",\""9  <br/><b>Extremely trustworthy</b>\""],\""required\"":true}]"", ""task_unique_trial"": 100, ""task_name"": ""trustworthy-modifae-single"", ""trial_index"": 104, ""isRepeat"": 0}"
A3O1UM8O2RBC08:3WJ1OXY92CNIZX0QBLLJFH90AIMA8B,105,1548055882121,"{""rt"": 5751, ""trial_type"": ""face-likert-amanda"", ""debug_mode"": ""live"", ""task_type"": ""face trials"", ""responses"": ""{\""Q0\"":2}"", ""task_payment"": 1, ""task_version"": 1, ""internal_node_id"": ""0.0-11.0-0.0-4.0"", ""time_elapsed"": 576404, ""imgName"": ""/static/images/modifAE_linspace/trustworthy/136207_-0.11616161616161613.png"", ""questions"": ""[{\""prompt\"":\""<p>How <b>trustworthy</b> does this person look to <b>most people</b>? Rate from 1-9</p>\"",\""labels\"":[\""1 <br/><b>Not trustworthy at all</b>\"",\""2\"",\""3\"",\""4\"",\""5\"",\""6\"",\""7\"",\""8\"",\""9  <br/><b>Extremely trustworthy</b>\""],\""required\"":true}]"", ""task_unique_trial"": 100, ""task_name"": ""trustworthy-modifae-single"", ""trial_index"": 105, ""isRepeat"": 0}"
A3O1UM8O2RBC08:3WJ1OXY92CNIZX0QBLLJFH90AIMA8B,106,1548055886458,"{""rt"": 4332, ""trial_type"": ""face-likert-amanda"", ""debug_mode"": ""live"", ""task_type"": ""face trials"", ""responses"": ""{\""Q0\"":2}"", ""task_payment"": 1, ""task_version"": 1, ""internal_node_id"": ""0.0-11.0-0.0-5.0"", ""time_elapsed"": 580741, ""imgName"": ""/static/images/modifAE_linspace/trustworthy/136228_0.09595959595959602.png"", ""questions"": ""[{\""prompt\"":\""<p>How <b>trustworthy</b> does this person look to <b>most people</b>? Rate from 1-9</p>\"",\""labels\"":[\""1 <br/><b>Not trustworthy at all</b>\"",\""2\"",\""3\"",\""4\"",\""5\"",\""6\"",\""7\"",\""8\"",\""9  <br/><b>Extremely trustworthy</b>\""],\""required\"":true}]"", ""task_unique_trial"": 100, ""task_name"": ""trustworthy-modifae-single"", ""trial_index"": 106, ""isRepeat"": 0}"
A3O1UM8O2RBC08:3WJ1OXY92CNIZX0QBLLJFH90AIMA8B,107,1548055894372,"{""rt"": 7909, ""trial_type"": ""face-likert-amanda"", ""debug_mode"": ""live"", ""task_type"": ""face trials"", ""responses"": ""{\""Q0\"":2}"", ""task_payment"": 1, ""task_version"": 1, ""internal_node_id"": ""0.0-11.0-0.0-6.0"", ""time_elapsed"": 588655, ""imgName"": ""/static/images/modifAE_linspace/trustworthy/136172_-0.4696969696969697.png"", ""questions"": ""[{\""prompt\"":\""<p>How <b>trustworthy</b> does this person look to <b>most people</b>? Rate from 1-9</p>\"",\""labels\"":[\""1 <br/><b>Not trustworthy at all</b>\"",\""2\"",\""3\"",\""4\"",\""5\"",\""6\"",\""7\"",\""8\"",\""9  <br/><b>Extremely trustworthy</b>\""],\""required\"":true}]"", ""task_unique_trial"": 100, ""task_name"": ""trustworthy-modifae-single"", ""trial_index"": 107, ""isRepeat"": 0}"
A3O1UM8O2RBC08:3WJ1OXY92CNIZX0QBLLJFH90AIMA8B,108,1548055899412,"{""rt"": 5035, ""trial_type"": ""face-likert-amanda"", ""debug_mode"": ""live"", ""task_type"": ""face trials"", ""responses"": ""{\""Q0\"":4}"", ""task_payment"": 1, ""task_version"": 1, ""internal_node_id"": ""0.0-11.0-0.0-7.0"", ""time_elapsed"": 593695, ""imgName"": ""/static/images/modifAE_linspace/trustworthy/136253_0.3484848484848485.png"", ""questions"": ""[{\""prompt\"":\""<p>How <b>trustworthy</b> does this person look to <b>most people</b>? Rate from 1-9</p>\"",\""labels\"":[\""1 <br/><b>Not trustworthy at all</b>\"",\""2\"",\""3\"",\""4\"",\""5\"",\""6\"",\""7\"",\""8\"",\""9  <br/><b>Extremely trustworthy</b>\""],\""required\"":true}]"", ""task_unique_trial"": 100, ""task_name"": ""trustworthy-modifae-single"", ""trial_index"": 108, ""isRepeat"": 0}"
A3O1UM8O2RBC08:3WJ1OXY92CNIZX0QBLLJFH90AIMA8B,109,1548055903560,"{""rt"": 4144, ""trial_type"": ""face-likert-amanda"", ""debug_mode"": ""live"", ""task_type"": ""face trials"", ""responses"": ""{\""Q0\"":6}"", ""task_payment"": 1, ""task_version"": 1, ""internal_node_id"": ""0.0-11.0-0.0-8.0"", ""time_elapsed"": 597843, ""imgName"": ""/static/images/modifAE_linspace/trustworthy/136187_-0.3181818181818182.png"", ""questions"": ""[{\""prompt\"":\""<p>How <b>trustworthy</b> does this person look to <b>most people</b>? Rate from 1-9</p>\"",\""labels\"":[\""1 <br/><b>Not trustworthy at all</b>\"",\""2\"",\""3\"",\""4\"",\""5\"",\""6\"",\""7\"",\""8\"",\""9  <br/><b>Extremely trustworthy</b>\""],\""required\"":true}]"", ""task_unique_trial"": 100, ""task_name"": ""trustworthy-modifae-single"", ""trial_index"": 109, ""isRepeat"": 0}"
A3O1UM8O2RBC08:3WJ1OXY92CNIZX0QBLLJFH90AIMA8B,110,1548055907180,"{""rt"": 3616, ""trial_type"": ""face-likert-amanda"", ""debug_mode"": ""live"", ""task_type"": ""face trials"", ""responses"": ""{\""Q0\"":4}"", ""task_payment"": 1, ""task_version"": 1, ""internal_node_id"": ""0.0-11.0-0.0-9.0"", ""time_elapsed"": 601463, ""imgName"": ""/static/images/modifAE_linspace/trustworthy/136257_0.38888888888888895.png"", ""questions"": ""[{\""prompt\"":\""<p>How <b>trustworthy</b> does this person look to <b>most people</b>? Rate from 1-9</p>\"",\""labels\"":[\""1 <br/><b>Not trustworthy at all</b>\"",\""2\"",\""3\"",\""4\"",\""5\"",\""6\"",\""7\"",\""8\"",\""9  <br/><b>Extremely trustworthy</b>\""],\""required\"":true}]"", ""task_unique_trial"": 100, ""task_name"": ""trustworthy-modifae-single"", ""trial_index"": 110, ""isRepeat"": 0}"
A3O1UM8O2RBC08:3WJ1OXY92CNIZX0QBLLJFH90AIMA8B,111,1548055909187,"{""rt"": null, ""trial_type"": ""html-keyboard-response"", ""task_unique_trial"": 100, ""stimulus"": ""<p>Good job!</p>"", ""task_version"": 1, ""internal_node_id"": ""0.0-11.0-1.0"", ""task_payment"": 1, ""time_elapsed"": 603470, ""debug_mode"": ""live"", ""key_press"": null, ""task_name"": ""trustworthy-modifae-single"", ""trial_index"": 111}"
A3O1UM8O2RBC08:3WJ1OXY92CNIZX0QBLLJFH90AIMA8B,112,1548055953851,"{""rt"": 44658, ""trial_type"": ""survey-text-req"", ""task_type"": ""feedback for HIT"", ""responses"": ""{\""Q0\"":\""I actually enjoyed thinking about what I look for when looking at someone for the first time, and why I rated them how I did. It was interactive, fun, and well paid!\""}"", ""task_payment"": 1, ""task_version"": 1, ""internal_node_id"": ""0.0-12.0"", ""time_elapsed"": 648133, ""debug_mode"": ""live"", ""task_name"": ""trustworthy-modifae-single"", ""task_unique_trial"": 100, ""trial_index"": 112}"
A1AAO2R3FH2G49:3XXU1SWE8O20H8VNGH84M23IRKAA0O,0,1548084135867,"{""rt"": 5701, ""trial_type"": ""instructions"", ""view_history"": ""[{\""page_index\"":0,\""viewing_time\"":2449},{\""page_index\"":1,\""viewing_time\"":1720},{\""page_index\"":2,\""viewing_time\"":1530}]"", ""task_type"": ""instruction"", ""task_payment"": 1, ""task_version"": 1, ""internal_node_id"": ""0.0-0.0"", ""time_elapsed"": 5713, ""debug_mode"": ""live"", ""task_name"": ""trustworthy-modifae-single"", ""task_unique_trial"": 100, ""trial_index"": 0}"
A1AAO2R3FH2G49:3XXU1SWE8O20H8VNGH84M23IRKAA0O,1,1548084160476,"{""rt"": 24589, ""trial_type"": ""survey-multi-choice"", ""task_type"": ""demographic-multichoice"", ""responses"": ""{\""Q0\"":\""26-35\"",\""Q1\"":\""Female\"",\""Q2\"":\""No\"",\""Q3\"":\""3\"",\""Q4\"":\""White\"",\""Q5\"":\""Bachelor&#8217;s degree (e.g. BA, BS) or above\"",\""Q6\"":\""$50,000 - $74,999\""}"", ""task_payment"": 1, ""task_version"": 1, ""time_elapsed"": 30322, ""sanity_check_1_continue"": true, ""random_num"": 3, ""debug_mode"": ""live"", ""questions"": ""[{\""prompt\"":\""What is your age?\"",\""options\"":[\""Under 18\"",\""18-25\"",\""26-35\"",\""36-45\"",\""46-55\"",\""56+\""],\""required\"":true},{\""prompt\"":\""What is your gender?\"",\""options\"":[\""Male\"",\""Female\"",\""Other/Prefer not to say\""],\""required\"":true},{\""prompt\"":\""Are you of Hispanic, Latino, or Spanish origin?\"",\""options\"":[\""Yes\"",\""No\""],\""required\"":true},{\""prompt\"":\""Please choose the option that matches the number here: 3\"",\""options\"":[\""1\"",\""2\"",\""3\"",\""4\""],\""required\"":true},{\""prompt\"":\""How would you describe yourself?\"",\""options\"":[\""American Indian or Alaskan Native\"",\""Asian\"",\""Black or African-American\"",\""Native Hawaiian or Other Pacific Islander\"",\""White\""],\""required\"":true},{\""prompt\"":\""What is the highest degree or level of school you have completed? (If you&#8217;re currently enrolled in school, please indicate the highest degree you have received)\"",\""options\"":[\""Less than a high school diploma\"",\""High school degree or equivalent (e.g. GED)\"",\""Some college, no degree\"",\""Associate degree (e.g. AA, AS)\"",\""Bachelor&#8217;s degree (e.g. BA, BS) or above\""],\""required\"":true},{\""prompt\"":\""What is the total income of all members of your household?\"",\""options\"":[\""Less than $20,000\"",\""$20,000  - $49,999\"",\""$50,000 - $74,999\"",\""$75,000 and above\""],\""required\"":true}]"", ""internal_node_id"": ""0.0-1.0-0.0"", ""task_unique_trial"": 100, ""task_name"": ""trustworthy-modifae-single"", ""trial_index"": 1}"
A1AAO2R3FH2G49:3XXU1SWE8O20H8VNGH84M23IRKAA0O,2,1548084167786,"{""rt"": 7306, ""trial_type"": ""face-likert-amanda"", ""debug_mode"": ""live"", ""task_type"": ""face trials"", ""responses"": ""{\""Q0\"":5}"", ""task_payment"": 1, ""task_version"": 1, ""internal_node_id"": ""0.0-2.0-0.0-0.0"", ""time_elapsed"": 37632, ""imgName"": ""/static/images/modifAE_linspace/trustworthy/136211_-0.07575757575757575.png"", ""questions"": ""[{\""prompt\"":\""<p>How <b>trustworthy</b> does this person look to <b>most people</b>? Rate from 1-9</p>\"",\""labels\"":[\""1 <br/><b>Not trustworthy at all</b>\"",\""2\"",\""3\"",\""4\"",\""5\"",\""6\"",\""7\"",\""8\"",\""9  <br/><b>Extremely trustworthy</b>\""],\""required\"":true}]"", ""task_unique_trial"": 100, ""task_name"": ""trustworthy-modifae-single"", ""trial_index"": 2, ""isRepeat"": 0}"
A1AAO2R3FH2G49:3XXU1SWE8O20H8VNGH84M23IRKAA0O,3,1548084173146,"{""rt"": 5357, ""trial_type"": ""face-likert-amanda"", ""debug_mode"": ""live"", ""task_type"": ""face trials"", ""responses"": ""{\""Q0\"":5}"", ""task_payment"": 1, ""task_version"": 1, ""internal_node_id"": ""0.0-2.0-0.0-1.0"", ""time_elapsed"": 42992, ""imgName"": ""/static/images/modifAE_linspace/trustworthy/136201_-0.17676767676767674.png"", ""questions"": ""[{\""prompt\"":\""<p>How <b>trustworthy</b> does this person look to <b>most people</b>? Rate from 1-9</p>\"",\""labels\"":[\""1 <br/><b>Not trustworthy at all</b>\"",\""2\"",\""3\"",\""4\"",\""5\"",\""6\"",\""7\"",\""8\"",\""9  <br/><b>Extremely trustworthy</b>\""],\""required\"":true}]"", ""task_unique_trial"": 100, ""task_name"": ""trustworthy-modifae-single"", ""trial_index"": 3, ""isRepeat"": 0}"
A1AAO2R3FH2G49:3XXU1SWE8O20H8VNGH84M23IRKAA0O,4,1548084178637,"{""rt"": 5489, ""trial_type"": ""face-likert-amanda"", ""debug_mode"": ""live"", ""task_type"": ""face trials"", ""responses"": ""{\""Q0\"":6}"", ""task_payment"": 1, ""task_version"": 1, ""internal_node_id"": ""0.0-2.0-0.0-2.0"", ""time_elapsed"": 48483, ""imgName"": ""/static/images/modifAE_linspace/trustworthy/136256_0.3787878787878789.png"", ""questions"": ""[{\""prompt\"":\""<p>How <b>trustworthy</b> does this person look to <b>most people</b>? Rate from 1-9</p>\"",\""labels\"":[\""1 <br/><b>Not trustworthy at all</b>\"",\""2\"",\""3\"",\""4\"",\""5\"",\""6\"",\""7\"",\""8\"",\""9  <br/><b>Extremely trustworthy</b>\""],\""required\"":true}]"", ""task_unique_trial"": 100, ""task_name"": ""trustworthy-modifae-single"", ""trial_index"": 4, ""isRepeat"": 0}"
A1AAO2R3FH2G49:3XXU1SWE8O20H8VNGH84M23IRKAA0O,5,1548084183845,"{""rt"": 5207, ""trial_type"": ""face-likert-amanda"", ""debug_mode"": ""live"", ""task_type"": ""face trials"", ""responses"": ""{\""Q0\"":4}"", ""task_payment"": 1, ""task_version"": 1, ""internal_node_id"": ""0.0-2.0-0.0-3.0"", ""time_elapsed"": 53691, ""imgName"": ""/static/images/modifAE_linspace/trustworthy/136193_-0.25757575757575757.png"", ""questions"": ""[{\""prompt\"":\""<p>How <b>trustworthy</b> does this person look to <b>most people</b>? Rate from 1-9</p>\"",\""labels\"":[\""1 <br/><b>Not trustworthy at all</b>\"",\""2\"",\""3\"",\""4\"",\""5\"",\""6\"",\""7\"",\""8\"",\""9  <br/><b>Extremely trustworthy</b>\""],\""required\"":true}]"", ""task_unique_trial"": 100, ""task_name"": ""trustworthy-modifae-single"", ""trial_index"": 5, ""isRepeat"": 0}"
A1AAO2R3FH2G49:3XXU1SWE8O20H8VNGH84M23IRKAA0O,6,1548084188785,"{""rt"": 4937, ""trial_type"": ""face-likert-amanda"", ""debug_mode"": ""live"", ""task_type"": ""face trials"", ""responses"": ""{\""Q0\"":7}"", ""task_payment"": 1, ""task_version"": 1, ""internal_node_id"": ""0.0-2.0-0.0-4.0"", ""time_elapsed"": 58631, ""imgName"": ""/static/images/modifAE_linspace/trustworthy/136171_-0.4797979797979798.png"", ""questions"": ""[{\""prompt\"":\""<p>How <b>trustworthy</b> does this person look to <b>most people</b>? Rate from 1-9</p>\"",\""labels\"":[\""1 <br/><b>Not trustworthy at all</b>\"",\""2\"",\""3\"",\""4\"",\""5\"",\""6\"",\""7\"",\""8\"",\""9  <br/><b>Extremely trustworthy</b>\""],\""required\"":true}]"", ""task_unique_trial"": 100, ""task_name"": ""trustworthy-modifae-single"", ""trial_index"": 6, ""isRepeat"": 0}"
A1AAO2R3FH2G49:3XXU1SWE8O20H8VNGH84M23IRKAA0O,7,1548084193356,"{""rt"": 4568, ""trial_type"": ""face-likert-amanda"", ""debug_mode"": ""live"", ""task_type"": ""face trials"", ""responses"": ""{\""Q0\"":7}"", ""task_payment"": 1, ""task_version"": 1, ""internal_node_id"": ""0.0-2.0-0.0-5.0"", ""time_elapsed"": 63202, ""imgName"": ""/static/images/modifAE_linspace/trustworthy/136226_0.0757575757575758.png"", ""questions"": ""[{\""prompt\"":\""<p>How <b>trustworthy</b> does this person look to <b>most people</b>? Rate from 1-9</p>\"",\""labels\"":[\""1 <br/><b>Not trustworthy at all</b>\"",\""2\"",\""3\"",\""4\"",\""5\"",\""6\"",\""7\"",\""8\"",\""9  <br/><b>Extremely trustworthy</b>\""],\""required\"":true}]"", ""task_unique_trial"": 100, ""task_name"": ""trustworthy-modifae-single"", ""trial_index"": 7, ""isRepeat"": 0}"
A1AAO2R3FH2G49:3XXU1SWE8O20H8VNGH84M23IRKAA0O,8,1548084197677,"{""rt"": 4315, ""trial_type"": ""face-likert-amanda"", ""debug_mode"": ""live"", ""task_type"": ""face trials"", ""responses"": ""{\""Q0\"":6}"", ""task_payment"": 1, ""task_version"": 1, ""internal_node_id"": ""0.0-2.0-0.0-6.0"", ""time_elapsed"": 67521, ""imgName"": ""/static/images/modifAE_linspace/trustworthy/136203_-0.15656565656565652.png"", ""questions"": ""[{\""prompt\"":\""<p>How <b>trustworthy</b> does this person look to <b>most people</b>? Rate from 1-9</p>\"",\""labels\"":[\""1 <br/><b>Not trustworthy at all</b>\"",\""2\"",\""3\"",\""4\"",\""5\"",\""6\"",\""7\"",\""8\"",\""9  <br/><b>Extremely trustworthy</b>\""],\""required\"":true}]"", ""task_unique_trial"": 100, ""task_name"": ""trustworthy-modifae-single"", ""trial_index"": 8, ""isRepeat"": 0}"
