,UserId,trialId,rt,trial_type,view_history,internal_node_id,time_elapsed,trial_index,responses,imgName,isRepeat,isRandom,stimulus,key_press,prompt,options,required,horizontal,labels
0,A6XBXQC3G59N8:3VP0C6EFSI3WXKQRF9ERIP60I906M0,1542248532061,31308.0,instructions,"[{""page_index"":0,""viewing_time"":28962},{""page_index"":1,""viewing_time"":1139},{""page_index"":2,""viewing_time"":1206}]",0.0-0.0,31309,0,,,,,,,[None],[None],[None],[None],[None]
1,A6XBXQC3G59N8:3VP0C6EFSI3WXKQRF9ERIP60I906M0,1542248546610,12926.0,survey-multi-choice,,0.0-1.0-0.0,44245,1,"{""Q0"":""Under 18"",""Q1"":""Male"",""Q2"":""Yes"",""Q3"":""1"",""Q4"":""American Indian or Alaskan Native"",""Q5"":""Less than a high school diploma""}",,,,,,"[None, None, None, None, None, None]","[None, None, None, None, None, None]","[None, None, None, None, None, None]","[None, None, None, None, None, None]","[None, None, None, None, None, None]"
2,A6XBXQC3G59N8:3VP0C6EFSI3WXKQRF9ERIP60I906M0,1542248557119,10502.0,survey-multi-choice,,0.0-1.1-0.1,56368,2,"{""Q0"":""Under 18"",""Q1"":""Male"",""Q2"":""Yes"",""Q3"":""4"",""Q4"":""American Indian or Alaskan Native"",""Q5"":""Less than a high school diploma""}",,,,,,"[None, None, None, None, None, None]","[None, None, None, None, None, None]","[None, None, None, None, None, None]","[None, None, None, None, None, None]","[None, None, None, None, None, None]"
3,A6XBXQC3G59N8:3VP0C6EFSI3WXKQRF9ERIP60I906M0,1542248566065,8944.0,survey-text-req,,0.0-2.0,65314,3,"{""Q0"":""debug"",""Q1"":""debug"",""Q2"":""debug""}",,,,,,[None],[None],[None],[None],[None]
4,A6XBXQC3G59N8:3VP0C6EFSI3WXKQRF9ERIP60I906M0,1542248573421,7353.0,survey-text-req,,0.0-3.0-0.0,72670,4,"{""Q0"":""How willing or unwilling do you think this person is to take risks?""}",,,,,,[None],[None],[None],[None],[None]
5,A6XBXQC3G59N8:3VP0C6EFSI3WXKQRF9ERIP60I906M0,1542248576553,3130.0,face-likert-amanda,,0.0-4.0,75802,5,"{""Q0"":0}",/static/images/faces/empty-image-1.jpg,False,,,,"[[u'1 <br/>(Completely unwilling to take risks)', u'2', u'3', u'4', u'5', u'6', u'7', u'8', u'9  <br/>(Very willing to take risks)']]","[[u'1 <br/>(Completely unwilling to take risks)', u'2', u'3', u'4', u'5', u'6', u'7', u'8', u'9  <br/>(Very willing to take risks)']]","[[u'1 <br/>(Completely unwilling to take risks)', u'2', u'3', u'4', u'5', u'6', u'7', u'8', u'9  <br/>(Very willing to take risks)']]","[[u'1 <br/>(Completely unwilling to take risks)', u'2', u'3', u'4', u'5', u'6', u'7', u'8', u'9  <br/>(Very willing to take risks)']]","[[u'1 <br/>(Completely unwilling to take risks)', u'2', u'3', u'4', u'5', u'6', u'7', u'8', u'9  <br/>(Very willing to take risks)']]"
6,A6XBXQC3G59N8:3VP0C6EFSI3WXKQRF9ERIP60I906M0,1542248577654,1101.0,instructions,"[{""page_index"":0,""viewing_time"":1101}]",0.0-5.0,76903,6,,,,,,,[None],[None],[None],[None],[None]
7,A6XBXQC3G59N8:3VP0C6EFSI3WXKQRF9ERIP60I906M0,1542248580379,2723.0,face-likert-amanda,,0.0-6.0-0.0-0.0,79627,7,"{""Q0"":0}",/static/images/2kfaces/Google_1_Gloria Canada_13_oval.jpg,0,,,,"[[u'1 <br/>(Completely unwilling to take risks)', u'2', u'3', u'4', u'5', u'6', u'7', u'8', u'9  <br/>(Very willing to take risks)']]","[[u'1 <br/>(Completely unwilling to take risks)', u'2', u'3', u'4', u'5', u'6', u'7', u'8', u'9  <br/>(Very willing to take risks)']]","[[u'1 <br/>(Completely unwilling to take risks)', u'2', u'3', u'4', u'5', u'6', u'7', u'8', u'9  <br/>(Very willing to take risks)']]","[[u'1 <br/>(Completely unwilling to take risks)', u'2', u'3', u'4', u'5', u'6', u'7', u'8', u'9  <br/>(Very willing to take risks)']]","[[u'1 <br/>(Completely unwilling to take risks)', u'2', u'3', u'4', u'5', u'6', u'7', u'8', u'9  <br/>(Very willing to take risks)']]"
8,A6XBXQC3G59N8:3VP0C6EFSI3WXKQRF9ERIP60I906M0,1542248582722,2342.0,face-likert-amanda,,0.0-6.0-0.0-1.0,81971,8,"{""Q0"":0}",/static/images/2kfaces/Google_1_Gertrude Bayne_11_oval.jpg,0,,,,"[[u'1 <br/>(Completely unwilling to take risks)', u'2', u'3', u'4', u'5', u'6', u'7', u'8', u'9  <br/>(Very willing to take risks)']]","[[u'1 <br/>(Completely unwilling to take risks)', u'2', u'3', u'4', u'5', u'6', u'7', u'8', u'9  <br/>(Very willing to take risks)']]","[[u'1 <br/>(Completely unwilling to take risks)', u'2', u'3', u'4', u'5', u'6', u'7', u'8', u'9  <br/>(Very willing to take risks)']]","[[u'1 <br/>(Completely unwilling to take risks)', u'2', u'3', u'4', u'5', u'6', u'7', u'8', u'9  <br/>(Very willing to take risks)']]","[[u'1 <br/>(Completely unwilling to take risks)', u'2', u'3', u'4', u'5', u'6', u'7', u'8', u'9  <br/>(Very willing to take risks)']]"
9,A6XBXQC3G59N8:3VP0C6EFSI3WXKQRF9ERIP60I906M0,1542248585363,2639.0,face-likert-amanda,,0.0-6.0-0.0-2.0,84612,9,"{""Q0"":0}",/static/images/2kfaces/Google_1_Ernest Crump_3_oval.jpg,0,,,,"[[u'1 <br/>(Completely unwilling to take risks)', u'2', u'3', u'4', u'5', u'6', u'7', u'8', u'9  <br/>(Very willing to take risks)']]","[[u'1 <br/>(Completely unwilling to take risks)', u'2', u'3', u'4', u'5', u'6', u'7', u'8', u'9  <br/>(Very willing to take risks)']]","[[u'1 <br/>(Completely unwilling to take risks)', u'2', u'3', u'4', u'5', u'6', u'7', u'8', u'9  <br/>(Very willing to take risks)']]","[[u'1 <br/>(Completely unwilling to take risks)', u'2', u'3', u'4', u'5', u'6', u'7', u'8', u'9  <br/>(Very willing to take risks)']]","[[u'1 <br/>(Completely unwilling to take risks)', u'2', u'3', u'4', u'5', u'6', u'7', u'8', u'9  <br/>(Very willing to take risks)']]"
10,A6XBXQC3G59N8:3VP0C6EFSI3WXKQRF9ERIP60I906M0,1542248587469,2104.0,face-likert-amanda,,0.0-6.0-0.0-3.0,86718,10,"{""Q0"":0}",/static/images/2kfaces/Google_1_Frank Whitehouse_3_oval.jpg,0,,,,"[[u'1 <br/>(Completely unwilling to take risks)', u'2', u'3', u'4', u'5', u'6', u'7', u'8', u'9  <br/>(Very willing to take risks)']]","[[u'1 <br/>(Completely unwilling to take risks)', u'2', u'3', u'4', u'5', u'6', u'7', u'8', u'9  <br/>(Very willing to take risks)']]","[[u'1 <br/>(Completely unwilling to take risks)', u'2', u'3', u'4', u'5', u'6', u'7', u'8', u'9  <br/>(Very willing to take risks)']]","[[u'1 <br/>(Completely unwilling to take risks)', u'2', u'3', u'4', u'5', u'6', u'7', u'8', u'9  <br/>(Very willing to take risks)']]","[[u'1 <br/>(Completely unwilling to take risks)', u'2', u'3', u'4', u'5', u'6', u'7', u'8', u'9  <br/>(Very willing to take risks)']]"
11,A6XBXQC3G59N8:3VP0C6EFSI3WXKQRF9ERIP60I906M0,1542248589363,1893.0,face-likert-amanda,,0.0-6.0-0.0-4.0,88612,11,"{""Q0"":0}",/static/images/2kfaces/Google_1_Rose Barlow_1_oval.jpg,0,,,,"[[u'1 <br/>(Completely unwilling to take risks)', u'2', u'3', u'4', u'5', u'6', u'7', u'8', u'9  <br/>(Very willing to take risks)']]","[[u'1 <br/>(Completely unwilling to take risks)', u'2', u'3', u'4', u'5', u'6', u'7', u'8', u'9  <br/>(Very willing to take risks)']]","[[u'1 <br/>(Completely unwilling to take risks)', u'2', u'3', u'4', u'5', u'6', u'7', u'8', u'9  <br/>(Very willing to take risks)']]","[[u'1 <br/>(Completely unwilling to take risks)', u'2', u'3', u'4', u'5', u'6', u'7', u'8', u'9  <br/>(Very willing to take risks)']]","[[u'1 <br/>(Completely unwilling to take risks)', u'2', u'3', u'4', u'5', u'6', u'7', u'8', u'9  <br/>(Very willing to take risks)']]"
12,A6XBXQC3G59N8:3VP0C6EFSI3WXKQRF9ERIP60I906M0,1542248590677,1313.0,face-likert-amanda,,0.0-6.0-0.0-5.0,89926,12,"{""Q0"":0}",/static/images/2kfaces/Google_1_Billy Kiely_1_oval.jpg,0,,,,"[[u'1 <br/>(Completely unwilling to take risks)', u'2', u'3', u'4', u'5', u'6', u'7', u'8', u'9  <br/>(Very willing to take risks)']]","[[u'1 <br/>(Completely unwilling to take risks)', u'2', u'3', u'4', u'5', u'6', u'7', u'8', u'9  <br/>(Very willing to take risks)']]","[[u'1 <br/>(Completely unwilling to take risks)', u'2', u'3', u'4', u'5', u'6', u'7', u'8', u'9  <br/>(Very willing to take risks)']]","[[u'1 <br/>(Completely unwilling to take risks)', u'2', u'3', u'4', u'5', u'6', u'7', u'8', u'9  <br/>(Very willing to take risks)']]","[[u'1 <br/>(Completely unwilling to take risks)', u'2', u'3', u'4', u'5', u'6', u'7', u'8', u'9  <br/>(Very willing to take risks)']]"
13,A6XBXQC3G59N8:3VP0C6EFSI3WXKQRF9ERIP60I906M0,1542248595547,4868.0,face-likert-amanda,,0.0-6.0-0.0-6.0,94796,13,"{""Q0"":0}",/static/images/2kfaces/Google_1_Frank Luke_9_oval.jpg,0,,,,"[[u'1 <br/>(Completely unwilling to take risks)', u'2', u'3', u'4', u'5', u'6', u'7', u'8', u'9  <br/>(Very willing to take risks)']]","[[u'1 <br/>(Completely unwilling to take risks)', u'2', u'3', u'4', u'5', u'6', u'7', u'8', u'9  <br/>(Very willing to take risks)']]","[[u'1 <br/>(Completely unwilling to take risks)', u'2', u'3', u'4', u'5', u'6', u'7', u'8', u'9  <br/>(Very willing to take risks)']]","[[u'1 <br/>(Completely unwilling to take risks)', u'2', u'3', u'4', u'5', u'6', u'7', u'8', u'9  <br/>(Very willing to take risks)']]","[[u'1 <br/>(Completely unwilling to take risks)', u'2', u'3', u'4', u'5', u'6', u'7', u'8', u'9  <br/>(Very willing to take risks)']]"
14,A6XBXQC3G59N8:3VP0C6EFSI3WXKQRF9ERIP60I906M0,1542248598129,2580.0,face-likert-amanda,,0.0-6.0-0.0-7.0,97378,14,"{""Q0"":0}",/static/images/2kfaces/Google_1_Diana Bateman_7_oval.jpg,0,,,,"[[u'1 <br/>(Completely unwilling to take risks)', u'2', u'3', u'4', u'5', u'6', u'7', u'8', u'9  <br/>(Very willing to take risks)']]","[[u'1 <br/>(Completely unwilling to take risks)', u'2', u'3', u'4', u'5', u'6', u'7', u'8', u'9  <br/>(Very willing to take risks)']]","[[u'1 <br/>(Completely unwilling to take risks)', u'2', u'3', u'4', u'5', u'6', u'7', u'8', u'9  <br/>(Very willing to take risks)']]","[[u'1 <br/>(Completely unwilling to take risks)', u'2', u'3', u'4', u'5', u'6', u'7', u'8', u'9  <br/>(Very willing to take risks)']]","[[u'1 <br/>(Completely unwilling to take risks)', u'2', u'3', u'4', u'5', u'6', u'7', u'8', u'9  <br/>(Very willing to take risks)']]"
15,A6XBXQC3G59N8:3VP0C6EFSI3WXKQRF9ERIP60I906M0,1542248599983,1853.0,face-likert-amanda,,0.0-6.0-0.0-8.0,99232,15,"{""Q0"":0}",/static/images/2kfaces/Google_1_Shelley Lund_5_oval.jpg,0,,,,"[[u'1 <br/>(Completely unwilling to take risks)', u'2', u'3', u'4', u'5', u'6', u'7', u'8', u'9  <br/>(Very willing to take risks)']]","[[u'1 <br/>(Completely unwilling to take risks)', u'2', u'3', u'4', u'5', u'6', u'7', u'8', u'9  <br/>(Very willing to take risks)']]","[[u'1 <br/>(Completely unwilling to take risks)', u'2', u'3', u'4', u'5', u'6', u'7', u'8', u'9  <br/>(Very willing to take risks)']]","[[u'1 <br/>(Completely unwilling to take risks)', u'2', u'3', u'4', u'5', u'6', u'7', u'8', u'9  <br/>(Very willing to take risks)']]","[[u'1 <br/>(Completely unwilling to take risks)', u'2', u'3', u'4', u'5', u'6', u'7', u'8', u'9  <br/>(Very willing to take risks)']]"
16,A6XBXQC3G59N8:3VP0C6EFSI3WXKQRF9ERIP60I906M0,1542248602747,2763.0,face-likert-amanda,,0.0-6.0-0.0-9.0,101996,16,"{""Q0"":0}",/static/images/2kfaces/Google_1_Stanley Rowden_19_oval.jpg,0,,,,"[[u'1 <br/>(Completely unwilling to take risks)', u'2', u'3', u'4', u'5', u'6', u'7', u'8', u'9  <br/>(Very willing to take risks)']]","[[u'1 <br/>(Completely unwilling to take risks)', u'2', u'3', u'4', u'5', u'6', u'7', u'8', u'9  <br/>(Very willing to take risks)']]","[[u'1 <br/>(Completely unwilling to take risks)', u'2', u'3', u'4', u'5', u'6', u'7', u'8', u'9  <br/>(Very willing to take risks)']]","[[u'1 <br/>(Completely unwilling to take risks)', u'2', u'3', u'4', u'5', u'6', u'7', u'8', u'9  <br/>(Very willing to take risks)']]","[[u'1 <br/>(Completely unwilling to take risks)', u'2', u'3', u'4', u'5', u'6', u'7', u'8', u'9  <br/>(Very willing to take risks)']]"
17,A6XBXQC3G59N8:3VP0C6EFSI3WXKQRF9ERIP60I906M0,1542248607459,4711.0,face-likert-amanda,,0.0-6.0-0.0-10.0,106708,17,"{""Q0"":6}",/static/images/2kfaces/Google_1_Ryan Marvel_15_oval.jpg,0,,,,"[[u'1 <br/>(Completely unwilling to take risks)', u'2', u'3', u'4', u'5', u'6', u'7', u'8', u'9  <br/>(Very willing to take risks)']]","[[u'1 <br/>(Completely unwilling to take risks)', u'2', u'3', u'4', u'5', u'6', u'7', u'8', u'9  <br/>(Very willing to take risks)']]","[[u'1 <br/>(Completely unwilling to take risks)', u'2', u'3', u'4', u'5', u'6', u'7', u'8', u'9  <br/>(Very willing to take risks)']]","[[u'1 <br/>(Completely unwilling to take risks)', u'2', u'3', u'4', u'5', u'6', u'7', u'8', u'9  <br/>(Very willing to take risks)']]","[[u'1 <br/>(Completely unwilling to take risks)', u'2', u'3', u'4', u'5', u'6', u'7', u'8', u'9  <br/>(Very willing to take risks)']]"
18,A6XBXQC3G59N8:3VP0C6EFSI3WXKQRF9ERIP60I906M0,1542248614605,7144.0,face-likert-amanda,,0.0-6.0-0.0-11.0,113854,18,"{""Q0"":3}",/static/images/2kfaces/Google_1_Samuel Goff_1_oval.jpg,0,,,,"[[u'1 <br/>(Completely unwilling to take risks)', u'2', u'3', u'4', u'5', u'6', u'7', u'8', u'9  <br/>(Very willing to take risks)']]","[[u'1 <br/>(Completely unwilling to take risks)', u'2', u'3', u'4', u'5', u'6', u'7', u'8', u'9  <br/>(Very willing to take risks)']]","[[u'1 <br/>(Completely unwilling to take risks)', u'2', u'3', u'4', u'5', u'6', u'7', u'8', u'9  <br/>(Very willing to take risks)']]","[[u'1 <br/>(Completely unwilling to take risks)', u'2', u'3', u'4', u'5', u'6', u'7', u'8', u'9  <br/>(Very willing to take risks)']]","[[u'1 <br/>(Completely unwilling to take risks)', u'2', u'3', u'4', u'5', u'6', u'7', u'8', u'9  <br/>(Very willing to take risks)']]"
19,A6XBXQC3G59N8:3VP0C6EFSI3WXKQRF9ERIP60I906M0,1542248617703,3096.0,face-likert-amanda,,0.0-6.0-0.0-12.0,116952,19,"{""Q0"":5}",/static/images/2kfaces/Google_1_Erika Fletcher_1_oval.jpg,0,,,,"[[u'1 <br/>(Completely unwilling to take risks)', u'2', u'3', u'4', u'5', u'6', u'7', u'8', u'9  <br/>(Very willing to take risks)']]","[[u'1 <br/>(Completely unwilling to take risks)', u'2', u'3', u'4', u'5', u'6', u'7', u'8', u'9  <br/>(Very willing to take risks)']]","[[u'1 <br/>(Completely unwilling to take risks)', u'2', u'3', u'4', u'5', u'6', u'7', u'8', u'9  <br/>(Very willing to take risks)']]","[[u'1 <br/>(Completely unwilling to take risks)', u'2', u'3', u'4', u'5', u'6', u'7', u'8', u'9  <br/>(Very willing to take risks)']]","[[u'1 <br/>(Completely unwilling to take risks)', u'2', u'3', u'4', u'5', u'6', u'7', u'8', u'9  <br/>(Very willing to take risks)']]"
20,A6XBXQC3G59N8:3VP0C6EFSI3WXKQRF9ERIP60I906M0,1542248620320,2616.0,face-likert-amanda,,0.0-6.0-0.0-13.0,119569,20,"{""Q0"":3}",/static/images/2kfaces/Google_1_Cindy Morehead_5_oval.jpg,0,,,,"[[u'1 <br/>(Completely unwilling to take risks)', u'2', u'3', u'4', u'5', u'6', u'7', u'8', u'9  <br/>(Very willing to take risks)']]","[[u'1 <br/>(Completely unwilling to take risks)', u'2', u'3', u'4', u'5', u'6', u'7', u'8', u'9  <br/>(Very willing to take risks)']]","[[u'1 <br/>(Completely unwilling to take risks)', u'2', u'3', u'4', u'5', u'6', u'7', u'8', u'9  <br/>(Very willing to take risks)']]","[[u'1 <br/>(Completely unwilling to take risks)', u'2', u'3', u'4', u'5', u'6', u'7', u'8', u'9  <br/>(Very willing to take risks)']]","[[u'1 <br/>(Completely unwilling to take risks)', u'2', u'3', u'4', u'5', u'6', u'7', u'8', u'9  <br/>(Very willing to take risks)']]"
21,A6XBXQC3G59N8:3VP0C6EFSI3WXKQRF9ERIP60I906M0,1542248623573,3253.0,face-likert-amanda,,0.0-6.0-0.0-14.0,122822,21,"{""Q0"":5}",/static/images/2kfaces/Google_1_Samuel Paschal_17_oval.jpg,0,,,,"[[u'1 <br/>(Completely unwilling to take risks)', u'2', u'3', u'4', u'5', u'6', u'7', u'8', u'9  <br/>(Very willing to take risks)']]","[[u'1 <br/>(Completely unwilling to take risks)', u'2', u'3', u'4', u'5', u'6', u'7', u'8', u'9  <br/>(Very willing to take risks)']]","[[u'1 <br/>(Completely unwilling to take risks)', u'2', u'3', u'4', u'5', u'6', u'7', u'8', u'9  <br/>(Very willing to take risks)']]","[[u'1 <br/>(Completely unwilling to take risks)', u'2', u'3', u'4', u'5', u'6', u'7', u'8', u'9  <br/>(Very willing to take risks)']]","[[u'1 <br/>(Completely unwilling to take risks)', u'2', u'3', u'4', u'5', u'6', u'7', u'8', u'9  <br/>(Very willing to take risks)']]"
22,A6XBXQC3G59N8:3VP0C6EFSI3WXKQRF9ERIP60I906M0,1542248626842,3266.0,face-likert-amanda,,0.0-6.0-0.0-15.0,126091,22,"{""Q0"":6}",/static/images/2kfaces/Google_1_Sara Guajardo_1_oval.jpg,0,,,,"[[u'1 <br/>(Completely unwilling to take risks)', u'2', u'3', u'4', u'5', u'6', u'7', u'8', u'9  <br/>(Very willing to take risks)']]","[[u'1 <br/>(Completely unwilling to take risks)', u'2', u'3', u'4', u'5', u'6', u'7', u'8', u'9  <br/>(Very willing to take risks)']]","[[u'1 <br/>(Completely unwilling to take risks)', u'2', u'3', u'4', u'5', u'6', u'7', u'8', u'9  <br/>(Very willing to take risks)']]","[[u'1 <br/>(Completely unwilling to take risks)', u'2', u'3', u'4', u'5', u'6', u'7', u'8', u'9  <br/>(Very willing to take risks)']]","[[u'1 <br/>(Completely unwilling to take risks)', u'2', u'3', u'4', u'5', u'6', u'7', u'8', u'9  <br/>(Very willing to take risks)']]"
23,A6XBXQC3G59N8:3VP0C6EFSI3WXKQRF9ERIP60I906M0,1542248629145,2303.0,face-likert-amanda,,0.0-6.0-0.0-16.0,128394,23,"{""Q0"":6}",/static/images/2kfaces/Google_1_Donna Asberry_5_oval.jpg,0,,,,"[[u'1 <br/>(Completely unwilling to take risks)', u'2', u'3', u'4', u'5', u'6', u'7', u'8', u'9  <br/>(Very willing to take risks)']]","[[u'1 <br/>(Completely unwilling to take risks)', u'2', u'3', u'4', u'5', u'6', u'7', u'8', u'9  <br/>(Very willing to take risks)']]","[[u'1 <br/>(Completely unwilling to take risks)', u'2', u'3', u'4', u'5', u'6', u'7', u'8', u'9  <br/>(Very willing to take risks)']]","[[u'1 <br/>(Completely unwilling to take risks)', u'2', u'3', u'4', u'5', u'6', u'7', u'8', u'9  <br/>(Very willing to take risks)']]","[[u'1 <br/>(Completely unwilling to take risks)', u'2', u'3', u'4', u'5', u'6', u'7', u'8', u'9  <br/>(Very willing to take risks)']]"
24,A6XBXQC3G59N8:3VP0C6EFSI3WXKQRF9ERIP60I906M0,1542248631847,2700.0,face-likert-amanda,,0.0-6.0-0.0-17.0,131096,24,"{""Q0"":3}",/static/images/2kfaces/Google_1_Claudia Rohrer_13_oval.jpg,0,,,,"[[u'1 <br/>(Completely unwilling to take risks)', u'2', u'3', u'4', u'5', u'6', u'7', u'8', u'9  <br/>(Very willing to take risks)']]","[[u'1 <br/>(Completely unwilling to take risks)', u'2', u'3', u'4', u'5', u'6', u'7', u'8', u'9  <br/>(Very willing to take risks)']]","[[u'1 <br/>(Completely unwilling to take risks)', u'2', u'3', u'4', u'5', u'6', u'7', u'8', u'9  <br/>(Very willing to take risks)']]","[[u'1 <br/>(Completely unwilling to take risks)', u'2', u'3', u'4', u'5', u'6', u'7', u'8', u'9  <br/>(Very willing to take risks)']]","[[u'1 <br/>(Completely unwilling to take risks)', u'2', u'3', u'4', u'5', u'6', u'7', u'8', u'9  <br/>(Very willing to take risks)']]"
25,A6XBXQC3G59N8:3VP0C6EFSI3WXKQRF9ERIP60I906M0,1542248634695,2847.0,face-likert-amanda,,0.0-6.0-0.0-18.0,133944,25,"{""Q0"":7}",/static/images/2kfaces/Google_1_Ronald Driver_19_oval.jpg,0,,,,"[[u'1 <br/>(Completely unwilling to take risks)', u'2', u'3', u'4', u'5', u'6', u'7', u'8', u'9  <br/>(Very willing to take risks)']]","[[u'1 <br/>(Completely unwilling to take risks)', u'2', u'3', u'4', u'5', u'6', u'7', u'8', u'9  <br/>(Very willing to take risks)']]","[[u'1 <br/>(Completely unwilling to take risks)', u'2', u'3', u'4', u'5', u'6', u'7', u'8', u'9  <br/>(Very willing to take risks)']]","[[u'1 <br/>(Completely unwilling to take risks)', u'2', u'3', u'4', u'5', u'6', u'7', u'8', u'9  <br/>(Very willing to take risks)']]","[[u'1 <br/>(Completely unwilling to take risks)', u'2', u'3', u'4', u'5', u'6', u'7', u'8', u'9  <br/>(Very willing to take risks)']]"
26,A6XBXQC3G59N8:3VP0C6EFSI3WXKQRF9ERIP60I906M0,1542248638076,3378.0,face-likert-amanda,,0.0-6.0-0.0-19.0,137325,26,"{""Q0"":8}",/static/images/2kfaces/Google_1_Beth Hollister_3_oval.jpg,0,,,,"[[u'1 <br/>(Completely unwilling to take risks)', u'2', u'3', u'4', u'5', u'6', u'7', u'8', u'9  <br/>(Very willing to take risks)']]","[[u'1 <br/>(Completely unwilling to take risks)', u'2', u'3', u'4', u'5', u'6', u'7', u'8', u'9  <br/>(Very willing to take risks)']]","[[u'1 <br/>(Completely unwilling to take risks)', u'2', u'3', u'4', u'5', u'6', u'7', u'8', u'9  <br/>(Very willing to take risks)']]","[[u'1 <br/>(Completely unwilling to take risks)', u'2', u'3', u'4', u'5', u'6', u'7', u'8', u'9  <br/>(Very willing to take risks)']]","[[u'1 <br/>(Completely unwilling to take risks)', u'2', u'3', u'4', u'5', u'6', u'7', u'8', u'9  <br/>(Very willing to take risks)']]"
27,A6XBXQC3G59N8:3VP0C6EFSI3WXKQRF9ERIP60I906M0,1542248640087,2011.0,face-likert-amanda,,0.0-6.0-0.0-20.0,139336,27,"{""Q0"":6}",/static/images/2kfaces/Google_1_Molly Palm_5_oval.jpg,0,,,,"[[u'1 <br/>(Completely unwilling to take risks)', u'2', u'3', u'4', u'5', u'6', u'7', u'8', u'9  <br/>(Very willing to take risks)']]","[[u'1 <br/>(Completely unwilling to take risks)', u'2', u'3', u'4', u'5', u'6', u'7', u'8', u'9  <br/>(Very willing to take risks)']]","[[u'1 <br/>(Completely unwilling to take risks)', u'2', u'3', u'4', u'5', u'6', u'7', u'8', u'9  <br/>(Very willing to take risks)']]","[[u'1 <br/>(Completely unwilling to take risks)', u'2', u'3', u'4', u'5', u'6', u'7', u'8', u'9  <br/>(Very willing to take risks)']]","[[u'1 <br/>(Completely unwilling to take risks)', u'2', u'3', u'4', u'5', u'6', u'7', u'8', u'9  <br/>(Very willing to take risks)']]"
28,A6XBXQC3G59N8:3VP0C6EFSI3WXKQRF9ERIP60I906M0,1542248643381,3293.0,face-likert-amanda,,0.0-6.0-0.0-21.0,142630,28,"{""Q0"":3}",/static/images/2kfaces/Google_1_Leonard True_5_oval.jpg,0,,,,"[[u'1 <br/>(Completely unwilling to take risks)', u'2', u'3', u'4', u'5', u'6', u'7', u'8', u'9  <br/>(Very willing to take risks)']]","[[u'1 <br/>(Completely unwilling to take risks)', u'2', u'3', u'4', u'5', u'6', u'7', u'8', u'9  <br/>(Very willing to take risks)']]","[[u'1 <br/>(Completely unwilling to take risks)', u'2', u'3', u'4', u'5', u'6', u'7', u'8', u'9  <br/>(Very willing to take risks)']]","[[u'1 <br/>(Completely unwilling to take risks)', u'2', u'3', u'4', u'5', u'6', u'7', u'8', u'9  <br/>(Very willing to take risks)']]","[[u'1 <br/>(Completely unwilling to take risks)', u'2', u'3', u'4', u'5', u'6', u'7', u'8', u'9  <br/>(Very willing to take risks)']]"
29,A6XBXQC3G59N8:3VP0C6EFSI3WXKQRF9ERIP60I906M0,1542248646089,2705.0,face-likert-amanda,,0.0-6.0-0.0-22.0,145338,29,"{""Q0"":3}",/static/images/2kfaces/Google_1_Gary Nance_3_oval.jpg,0,,,,"[[u'1 <br/>(Completely unwilling to take risks)', u'2', u'3', u'4', u'5', u'6', u'7', u'8', u'9  <br/>(Very willing to take risks)']]","[[u'1 <br/>(Completely unwilling to take risks)', u'2', u'3', u'4', u'5', u'6', u'7', u'8', u'9  <br/>(Very willing to take risks)']]","[[u'1 <br/>(Completely unwilling to take risks)', u'2', u'3', u'4', u'5', u'6', u'7', u'8', u'9  <br/>(Very willing to take risks)']]","[[u'1 <br/>(Completely unwilling to take risks)', u'2', u'3', u'4', u'5', u'6', u'7', u'8', u'9  <br/>(Very willing to take risks)']]","[[u'1 <br/>(Completely unwilling to take risks)', u'2', u'3', u'4', u'5', u'6', u'7', u'8', u'9  <br/>(Very willing to take risks)']]"
30,A6XBXQC3G59N8:3VP0C6EFSI3WXKQRF9ERIP60I906M0,1542248648612,2521.0,face-likert-amanda,,0.0-6.0-0.0-23.0,147860,30,"{""Q0"":6}",/static/images/2kfaces/Google_1_Steve Stamm_1_oval.jpg,0,,,,"[[u'1 <br/>(Completely unwilling to take risks)', u'2', u'3', u'4', u'5', u'6', u'7', u'8', u'9  <br/>(Very willing to take risks)']]","[[u'1 <br/>(Completely unwilling to take risks)', u'2', u'3', u'4', u'5', u'6', u'7', u'8', u'9  <br/>(Very willing to take risks)']]","[[u'1 <br/>(Completely unwilling to take risks)', u'2', u'3', u'4', u'5', u'6', u'7', u'8', u'9  <br/>(Very willing to take risks)']]","[[u'1 <br/>(Completely unwilling to take risks)', u'2', u'3', u'4', u'5', u'6', u'7', u'8', u'9  <br/>(Very willing to take risks)']]","[[u'1 <br/>(Completely unwilling to take risks)', u'2', u'3', u'4', u'5', u'6', u'7', u'8', u'9  <br/>(Very willing to take risks)']]"
31,A6XBXQC3G59N8:3VP0C6EFSI3WXKQRF9ERIP60I906M0,1542248652596,3981.0,face-likert-amanda,,0.0-6.0-0.0-24.0,151845,31,"{""Q0"":3}",/static/images/2kfaces/Google_1_Donald Shaw_13_oval.jpg,0,,,,"[[u'1 <br/>(Completely unwilling to take risks)', u'2', u'3', u'4', u'5', u'6', u'7', u'8', u'9  <br/>(Very willing to take risks)']]","[[u'1 <br/>(Completely unwilling to take risks)', u'2', u'3', u'4', u'5', u'6', u'7', u'8', u'9  <br/>(Very willing to take risks)']]","[[u'1 <br/>(Completely unwilling to take risks)', u'2', u'3', u'4', u'5', u'6', u'7', u'8', u'9  <br/>(Very willing to take risks)']]","[[u'1 <br/>(Completely unwilling to take risks)', u'2', u'3', u'4', u'5', u'6', u'7', u'8', u'9  <br/>(Very willing to take risks)']]","[[u'1 <br/>(Completely unwilling to take risks)', u'2', u'3', u'4', u'5', u'6', u'7', u'8', u'9  <br/>(Very willing to take risks)']]"
32,A6XBXQC3G59N8:3VP0C6EFSI3WXKQRF9ERIP60I906M0,1542248656809,4213.0,face-likert-amanda,,0.0-6.0-0.0-25.0,156058,32,"{""Q0"":5}",/static/images/2kfaces/Google_1_Jeff Williford_7_oval.jpg,0,,,,"[[u'1 <br/>(Completely unwilling to take risks)', u'2', u'3', u'4', u'5', u'6', u'7', u'8', u'9  <br/>(Very willing to take risks)']]","[[u'1 <br/>(Completely unwilling to take risks)', u'2', u'3', u'4', u'5', u'6', u'7', u'8', u'9  <br/>(Very willing to take risks)']]","[[u'1 <br/>(Completely unwilling to take risks)', u'2', u'3', u'4', u'5', u'6', u'7', u'8', u'9  <br/>(Very willing to take risks)']]","[[u'1 <br/>(Completely unwilling to take risks)', u'2', u'3', u'4', u'5', u'6', u'7', u'8', u'9  <br/>(Very willing to take risks)']]","[[u'1 <br/>(Completely unwilling to take risks)', u'2', u'3', u'4', u'5', u'6', u'7', u'8', u'9  <br/>(Very willing to take risks)']]"
33,A6XBXQC3G59N8:3VP0C6EFSI3WXKQRF9ERIP60I906M0,1542248661623,4812.0,face-likert-amanda,,0.0-6.0-0.0-26.0,160872,33,"{""Q0"":6}",/static/images/2kfaces/Google_1_Matthew Vanbuskirk_1_oval.jpg,0,,,,"[[u'1 <br/>(Completely unwilling to take risks)', u'2', u'3', u'4', u'5', u'6', u'7', u'8', u'9  <br/>(Very willing to take risks)']]","[[u'1 <br/>(Completely unwilling to take risks)', u'2', u'3', u'4', u'5', u'6', u'7', u'8', u'9  <br/>(Very willing to take risks)']]","[[u'1 <br/>(Completely unwilling to take risks)', u'2', u'3', u'4', u'5', u'6', u'7', u'8', u'9  <br/>(Very willing to take risks)']]","[[u'1 <br/>(Completely unwilling to take risks)', u'2', u'3', u'4', u'5', u'6', u'7', u'8', u'9  <br/>(Very willing to take risks)']]","[[u'1 <br/>(Completely unwilling to take risks)', u'2', u'3', u'4', u'5', u'6', u'7', u'8', u'9  <br/>(Very willing to take risks)']]"
34,A6XBXQC3G59N8:3VP0C6EFSI3WXKQRF9ERIP60I906M0,1542248664814,3188.0,face-likert-amanda,,0.0-6.0-0.0-27.0,164063,34,"{""Q0"":5}",/static/images/2kfaces/Google_1_Bryan Brunner_3_oval.jpg,0,,,,"[[u'1 <br/>(Completely unwilling to take risks)', u'2', u'3', u'4', u'5', u'6', u'7', u'8', u'9  <br/>(Very willing to take risks)']]","[[u'1 <br/>(Completely unwilling to take risks)', u'2', u'3', u'4', u'5', u'6', u'7', u'8', u'9  <br/>(Very willing to take risks)']]","[[u'1 <br/>(Completely unwilling to take risks)', u'2', u'3', u'4', u'5', u'6', u'7', u'8', u'9  <br/>(Very willing to take risks)']]","[[u'1 <br/>(Completely unwilling to take risks)', u'2', u'3', u'4', u'5', u'6', u'7', u'8', u'9  <br/>(Very willing to take risks)']]","[[u'1 <br/>(Completely unwilling to take risks)', u'2', u'3', u'4', u'5', u'6', u'7', u'8', u'9  <br/>(Very willing to take risks)']]"
35,A6XBXQC3G59N8:3VP0C6EFSI3WXKQRF9ERIP60I906M0,1542248666683,1869.0,face-likert-amanda,,0.0-6.0-0.0-28.0,165932,35,"{""Q0"":5}",/static/images/2kfaces/Google_1_Paul Reno_1_oval.jpg,0,,,,"[[u'1 <br/>(Completely unwilling to take risks)', u'2', u'3', u'4', u'5', u'6', u'7', u'8', u'9  <br/>(Very willing to take risks)']]","[[u'1 <br/>(Completely unwilling to take risks)', u'2', u'3', u'4', u'5', u'6', u'7', u'8', u'9  <br/>(Very willing to take risks)']]","[[u'1 <br/>(Completely unwilling to take risks)', u'2', u'3', u'4', u'5', u'6', u'7', u'8', u'9  <br/>(Very willing to take risks)']]","[[u'1 <br/>(Completely unwilling to take risks)', u'2', u'3', u'4', u'5', u'6', u'7', u'8', u'9  <br/>(Very willing to take risks)']]","[[u'1 <br/>(Completely unwilling to take risks)', u'2', u'3', u'4', u'5', u'6', u'7', u'8', u'9  <br/>(Very willing to take risks)']]"
36,A6XBXQC3G59N8:3VP0C6EFSI3WXKQRF9ERIP60I906M0,1542248674922,8237.0,face-likert-amanda,,0.0-6.0-0.0-29.0,174171,36,"{""Q0"":5}",/static/images/2kfaces/Google_1_Veronica Percy_7_oval.jpg,0,,,,"[[u'1 <br/>(Completely unwilling to take risks)', u'2', u'3', u'4', u'5', u'6', u'7', u'8', u'9  <br/>(Very willing to take risks)']]","[[u'1 <br/>(Completely unwilling to take risks)', u'2', u'3', u'4', u'5', u'6', u'7', u'8', u'9  <br/>(Very willing to take risks)']]","[[u'1 <br/>(Completely unwilling to take risks)', u'2', u'3', u'4', u'5', u'6', u'7', u'8', u'9  <br/>(Very willing to take risks)']]","[[u'1 <br/>(Completely unwilling to take risks)', u'2', u'3', u'4', u'5', u'6', u'7', u'8', u'9  <br/>(Very willing to take risks)']]","[[u'1 <br/>(Completely unwilling to take risks)', u'2', u'3', u'4', u'5', u'6', u'7', u'8', u'9  <br/>(Very willing to take risks)']]"
37,A6XBXQC3G59N8:3VP0C6EFSI3WXKQRF9ERIP60I906M0,1542248683816,8893.0,face-likert-amanda,,0.0-6.0-0.0-30.0,183065,37,"{""Q0"":7}",/static/images/2kfaces/Google_1_Claudia Olivarez_9_oval.jpg,0,,,,"[[u'1 <br/>(Completely unwilling to take risks)', u'2', u'3', u'4', u'5', u'6', u'7', u'8', u'9  <br/>(Very willing to take risks)']]","[[u'1 <br/>(Completely unwilling to take risks)', u'2', u'3', u'4', u'5', u'6', u'7', u'8', u'9  <br/>(Very willing to take risks)']]","[[u'1 <br/>(Completely unwilling to take risks)', u'2', u'3', u'4', u'5', u'6', u'7', u'8', u'9  <br/>(Very willing to take risks)']]","[[u'1 <br/>(Completely unwilling to take risks)', u'2', u'3', u'4', u'5', u'6', u'7', u'8', u'9  <br/>(Very willing to take risks)']]","[[u'1 <br/>(Completely unwilling to take risks)', u'2', u'3', u'4', u'5', u'6', u'7', u'8', u'9  <br/>(Very willing to take risks)']]"
38,A6XBXQC3G59N8:3VP0C6EFSI3WXKQRF9ERIP60I906M0,1542248686564,2747.0,face-likert-amanda,,0.0-6.0-0.0-31.0,185813,38,"{""Q0"":7}",/static/images/2kfaces/Google_1_Sherry Mcmichael_11_oval.jpg,0,,,,"[[u'1 <br/>(Completely unwilling to take risks)', u'2', u'3', u'4', u'5', u'6', u'7', u'8', u'9  <br/>(Very willing to take risks)']]","[[u'1 <br/>(Completely unwilling to take risks)', u'2', u'3', u'4', u'5', u'6', u'7', u'8', u'9  <br/>(Very willing to take risks)']]","[[u'1 <br/>(Completely unwilling to take risks)', u'2', u'3', u'4', u'5', u'6', u'7', u'8', u'9  <br/>(Very willing to take risks)']]","[[u'1 <br/>(Completely unwilling to take risks)', u'2', u'3', u'4', u'5', u'6', u'7', u'8', u'9  <br/>(Very willing to take risks)']]","[[u'1 <br/>(Completely unwilling to take risks)', u'2', u'3', u'4', u'5', u'6', u'7', u'8', u'9  <br/>(Very willing to take risks)']]"
39,A6XBXQC3G59N8:3VP0C6EFSI3WXKQRF9ERIP60I906M0,1542248689507,2943.0,face-likert-amanda,,0.0-6.0-0.0-32.0,188756,39,"{""Q0"":6}",/static/images/2kfaces/Google_1_Florence Melton_1_oval.jpg,0,,,,"[[u'1 <br/>(Completely unwilling to take risks)', u'2', u'3', u'4', u'5', u'6', u'7', u'8', u'9  <br/>(Very willing to take risks)']]","[[u'1 <br/>(Completely unwilling to take risks)', u'2', u'3', u'4', u'5', u'6', u'7', u'8', u'9  <br/>(Very willing to take risks)']]","[[u'1 <br/>(Completely unwilling to take risks)', u'2', u'3', u'4', u'5', u'6', u'7', u'8', u'9  <br/>(Very willing to take risks)']]","[[u'1 <br/>(Completely unwilling to take risks)', u'2', u'3', u'4', u'5', u'6', u'7', u'8', u'9  <br/>(Very willing to take risks)']]","[[u'1 <br/>(Completely unwilling to take risks)', u'2', u'3', u'4', u'5', u'6', u'7', u'8', u'9  <br/>(Very willing to take risks)']]"
40,A6XBXQC3G59N8:3VP0C6EFSI3WXKQRF9ERIP60I906M0,1542248692673,3164.0,face-likert-amanda,,0.0-6.0-0.0-33.0,191922,40,"{""Q0"":7}",/static/images/2kfaces/Google_1_Sean Raleigh_7_oval.jpg,0,,,,"[[u'1 <br/>(Completely unwilling to take risks)', u'2', u'3', u'4', u'5', u'6', u'7', u'8', u'9  <br/>(Very willing to take risks)']]","[[u'1 <br/>(Completely unwilling to take risks)', u'2', u'3', u'4', u'5', u'6', u'7', u'8', u'9  <br/>(Very willing to take risks)']]","[[u'1 <br/>(Completely unwilling to take risks)', u'2', u'3', u'4', u'5', u'6', u'7', u'8', u'9  <br/>(Very willing to take risks)']]","[[u'1 <br/>(Completely unwilling to take risks)', u'2', u'3', u'4', u'5', u'6', u'7', u'8', u'9  <br/>(Very willing to take risks)']]","[[u'1 <br/>(Completely unwilling to take risks)', u'2', u'3', u'4', u'5', u'6', u'7', u'8', u'9  <br/>(Very willing to take risks)']]"
41,A6XBXQC3G59N8:3VP0C6EFSI3WXKQRF9ERIP60I906M0,1542248694954,2278.0,face-likert-amanda,,0.0-6.0-0.0-34.0,194203,41,"{""Q0"":3}",/static/images/2kfaces/Google_1_Charlotte Dearborn_13_oval.jpg,0,,,,"[[u'1 <br/>(Completely unwilling to take risks)', u'2', u'3', u'4', u'5', u'6', u'7', u'8', u'9  <br/>(Very willing to take risks)']]","[[u'1 <br/>(Completely unwilling to take risks)', u'2', u'3', u'4', u'5', u'6', u'7', u'8', u'9  <br/>(Very willing to take risks)']]","[[u'1 <br/>(Completely unwilling to take risks)', u'2', u'3', u'4', u'5', u'6', u'7', u'8', u'9  <br/>(Very willing to take risks)']]","[[u'1 <br/>(Completely unwilling to take risks)', u'2', u'3', u'4', u'5', u'6', u'7', u'8', u'9  <br/>(Very willing to take risks)']]","[[u'1 <br/>(Completely unwilling to take risks)', u'2', u'3', u'4', u'5', u'6', u'7', u'8', u'9  <br/>(Very willing to take risks)']]"
42,A6XBXQC3G59N8:3VP0C6EFSI3WXKQRF9ERIP60I906M0,1542248696324,1368.0,face-likert-amanda,,0.0-6.0-0.0-35.0,195572,42,"{""Q0"":3}",/static/images/2kfaces/Google_1_Belinda Dupuis_9_oval.jpg,0,,,,"[[u'1 <br/>(Completely unwilling to take risks)', u'2', u'3', u'4', u'5', u'6', u'7', u'8', u'9  <br/>(Very willing to take risks)']]","[[u'1 <br/>(Completely unwilling to take risks)', u'2', u'3', u'4', u'5', u'6', u'7', u'8', u'9  <br/>(Very willing to take risks)']]","[[u'1 <br/>(Completely unwilling to take risks)', u'2', u'3', u'4', u'5', u'6', u'7', u'8', u'9  <br/>(Very willing to take risks)']]","[[u'1 <br/>(Completely unwilling to take risks)', u'2', u'3', u'4', u'5', u'6', u'7', u'8', u'9  <br/>(Very willing to take risks)']]","[[u'1 <br/>(Completely unwilling to take risks)', u'2', u'3', u'4', u'5', u'6', u'7', u'8', u'9  <br/>(Very willing to take risks)']]"
43,A6XBXQC3G59N8:3VP0C6EFSI3WXKQRF9ERIP60I906M0,1542248697484,1159.0,face-likert-amanda,,0.0-6.0-0.0-36.0,196732,43,"{""Q0"":3}",/static/images/2kfaces/Google_1_Antonio Benn_12_oval.jpg,0,,,,"[[u'1 <br/>(Completely unwilling to take risks)', u'2', u'3', u'4', u'5', u'6', u'7', u'8', u'9  <br/>(Very willing to take risks)']]","[[u'1 <br/>(Completely unwilling to take risks)', u'2', u'3', u'4', u'5', u'6', u'7', u'8', u'9  <br/>(Very willing to take risks)']]","[[u'1 <br/>(Completely unwilling to take risks)', u'2', u'3', u'4', u'5', u'6', u'7', u'8', u'9  <br/>(Very willing to take risks)']]","[[u'1 <br/>(Completely unwilling to take risks)', u'2', u'3', u'4', u'5', u'6', u'7', u'8', u'9  <br/>(Very willing to take risks)']]","[[u'1 <br/>(Completely unwilling to take risks)', u'2', u'3', u'4', u'5', u'6', u'7', u'8', u'9  <br/>(Very willing to take risks)']]"
44,A6XBXQC3G59N8:3VP0C6EFSI3WXKQRF9ERIP60I906M0,1542248699048,1563.0,face-likert-amanda,,0.0-6.0-0.0-37.0,198297,44,"{""Q0"":3}",/static/images/2kfaces/Google_1_Colleen Summer_5_oval.jpg,0,,,,"[[u'1 <br/>(Completely unwilling to take risks)', u'2', u'3', u'4', u'5', u'6', u'7', u'8', u'9  <br/>(Very willing to take risks)']]","[[u'1 <br/>(Completely unwilling to take risks)', u'2', u'3', u'4', u'5', u'6', u'7', u'8', u'9  <br/>(Very willing to take risks)']]","[[u'1 <br/>(Completely unwilling to take risks)', u'2', u'3', u'4', u'5', u'6', u'7', u'8', u'9  <br/>(Very willing to take risks)']]","[[u'1 <br/>(Completely unwilling to take risks)', u'2', u'3', u'4', u'5', u'6', u'7', u'8', u'9  <br/>(Very willing to take risks)']]","[[u'1 <br/>(Completely unwilling to take risks)', u'2', u'3', u'4', u'5', u'6', u'7', u'8', u'9  <br/>(Very willing to take risks)']]"
45,A6XBXQC3G59N8:3VP0C6EFSI3WXKQRF9ERIP60I906M0,1542248701482,2432.0,face-likert-amanda,,0.0-6.0-0.0-38.0,200731,45,"{""Q0"":3}",/static/images/2kfaces/Google_1_Mark Houser_17_oval.jpg,0,,,,"[[u'1 <br/>(Completely unwilling to take risks)', u'2', u'3', u'4', u'5', u'6', u'7', u'8', u'9  <br/>(Very willing to take risks)']]","[[u'1 <br/>(Completely unwilling to take risks)', u'2', u'3', u'4', u'5', u'6', u'7', u'8', u'9  <br/>(Very willing to take risks)']]","[[u'1 <br/>(Completely unwilling to take risks)', u'2', u'3', u'4', u'5', u'6', u'7', u'8', u'9  <br/>(Very willing to take risks)']]","[[u'1 <br/>(Completely unwilling to take risks)', u'2', u'3', u'4', u'5', u'6', u'7', u'8', u'9  <br/>(Very willing to take risks)']]","[[u'1 <br/>(Completely unwilling to take risks)', u'2', u'3', u'4', u'5', u'6', u'7', u'8', u'9  <br/>(Very willing to take risks)']]"
46,A6XBXQC3G59N8:3VP0C6EFSI3WXKQRF9ERIP60I906M0,1542248703218,1734.0,face-likert-amanda,,0.0-6.0-0.0-39.0,202467,46,"{""Q0"":4}",/static/images/2kfaces/Google_1_Florence Lott_19_oval.jpg,0,,,,"[[u'1 <br/>(Completely unwilling to take risks)', u'2', u'3', u'4', u'5', u'6', u'7', u'8', u'9  <br/>(Very willing to take risks)']]","[[u'1 <br/>(Completely unwilling to take risks)', u'2', u'3', u'4', u'5', u'6', u'7', u'8', u'9  <br/>(Very willing to take risks)']]","[[u'1 <br/>(Completely unwilling to take risks)', u'2', u'3', u'4', u'5', u'6', u'7', u'8', u'9  <br/>(Very willing to take risks)']]","[[u'1 <br/>(Completely unwilling to take risks)', u'2', u'3', u'4', u'5', u'6', u'7', u'8', u'9  <br/>(Very willing to take risks)']]","[[u'1 <br/>(Completely unwilling to take risks)', u'2', u'3', u'4', u'5', u'6', u'7', u'8', u'9  <br/>(Very willing to take risks)']]"
47,A6XBXQC3G59N8:3VP0C6EFSI3WXKQRF9ERIP60I906M0,1542248703976,,html-keyboard-response,,0.0-6.0-1.0,203225,47,,,,,<p>Good job! Let us take a quick break!</p>,,[None],[None],[None],[None],[None]
48,A6XBXQC3G59N8:3VP0C6EFSI3WXKQRF9ERIP60I906M0,1542248710428,6450.0,face-likert-amanda,,0.0-7.0-0.0-0.0,209677,48,"{""Q0"":4}",/static/images/2kfaces/Google_1_Cheryl Griffin_15_oval.jpg,0,,,,"[[u'1 <br/>(Completely unwilling to take risks)', u'2', u'3', u'4', u'5', u'6', u'7', u'8', u'9  <br/>(Very willing to take risks)']]","[[u'1 <br/>(Completely unwilling to take risks)', u'2', u'3', u'4', u'5', u'6', u'7', u'8', u'9  <br/>(Very willing to take risks)']]","[[u'1 <br/>(Completely unwilling to take risks)', u'2', u'3', u'4', u'5', u'6', u'7', u'8', u'9  <br/>(Very willing to take risks)']]","[[u'1 <br/>(Completely unwilling to take risks)', u'2', u'3', u'4', u'5', u'6', u'7', u'8', u'9  <br/>(Very willing to take risks)']]","[[u'1 <br/>(Completely unwilling to take risks)', u'2', u'3', u'4', u'5', u'6', u'7', u'8', u'9  <br/>(Very willing to take risks)']]"
49,A6XBXQC3G59N8:3VP0C6EFSI3WXKQRF9ERIP60I906M0,1542248711596,1166.0,face-likert-amanda,,0.0-7.0-0.0-1.0,210845,49,"{""Q0"":4}",/static/images/2kfaces/Google_1_Alma Poor_7_oval.jpg,0,,,,"[[u'1 <br/>(Completely unwilling to take risks)', u'2', u'3', u'4', u'5', u'6', u'7', u'8', u'9  <br/>(Very willing to take risks)']]","[[u'1 <br/>(Completely unwilling to take risks)', u'2', u'3', u'4', u'5', u'6', u'7', u'8', u'9  <br/>(Very willing to take risks)']]","[[u'1 <br/>(Completely unwilling to take risks)', u'2', u'3', u'4', u'5', u'6', u'7', u'8', u'9  <br/>(Very willing to take risks)']]","[[u'1 <br/>(Completely unwilling to take risks)', u'2', u'3', u'4', u'5', u'6', u'7', u'8', u'9  <br/>(Very willing to take risks)']]","[[u'1 <br/>(Completely unwilling to take risks)', u'2', u'3', u'4', u'5', u'6', u'7', u'8', u'9  <br/>(Very willing to take risks)']]"
50,A6XBXQC3G59N8:3VP0C6EFSI3WXKQRF9ERIP60I906M0,1542248712930,1332.0,face-likert-amanda,,0.0-7.0-0.0-2.0,212179,50,"{""Q0"":4}",/static/images/2kfaces/Google_1_Victoria Ambrose_17_oval.jpg,0,,,,"[[u'1 <br/>(Completely unwilling to take risks)', u'2', u'3', u'4', u'5', u'6', u'7', u'8', u'9  <br/>(Very willing to take risks)']]","[[u'1 <br/>(Completely unwilling to take risks)', u'2', u'3', u'4', u'5', u'6', u'7', u'8', u'9  <br/>(Very willing to take risks)']]","[[u'1 <br/>(Completely unwilling to take risks)', u'2', u'3', u'4', u'5', u'6', u'7', u'8', u'9  <br/>(Very willing to take risks)']]","[[u'1 <br/>(Completely unwilling to take risks)', u'2', u'3', u'4', u'5', u'6', u'7', u'8', u'9  <br/>(Very willing to take risks)']]","[[u'1 <br/>(Completely unwilling to take risks)', u'2', u'3', u'4', u'5', u'6', u'7', u'8', u'9  <br/>(Very willing to take risks)']]"
51,A6XBXQC3G59N8:3VP0C6EFSI3WXKQRF9ERIP60I906M0,1542248714006,1074.0,face-likert-amanda,,0.0-7.0-0.0-3.0,213255,51,"{""Q0"":4}",/static/images/2kfaces/Alice_Mckellar_11_oval.jpg,0,,,,"[[u'1 <br/>(Completely unwilling to take risks)', u'2', u'3', u'4', u'5', u'6', u'7', u'8', u'9  <br/>(Very willing to take risks)']]","[[u'1 <br/>(Completely unwilling to take risks)', u'2', u'3', u'4', u'5', u'6', u'7', u'8', u'9  <br/>(Very willing to take risks)']]","[[u'1 <br/>(Completely unwilling to take risks)', u'2', u'3', u'4', u'5', u'6', u'7', u'8', u'9  <br/>(Very willing to take risks)']]","[[u'1 <br/>(Completely unwilling to take risks)', u'2', u'3', u'4', u'5', u'6', u'7', u'8', u'9  <br/>(Very willing to take risks)']]","[[u'1 <br/>(Completely unwilling to take risks)', u'2', u'3', u'4', u'5', u'6', u'7', u'8', u'9  <br/>(Very willing to take risks)']]"
52,A6XBXQC3G59N8:3VP0C6EFSI3WXKQRF9ERIP60I906M0,1542248715440,1432.0,face-likert-amanda,,0.0-7.0-0.0-4.0,214689,52,"{""Q0"":4}",/static/images/2kfaces/Google_1_Stanley Kato_17_oval.jpg,0,,,,"[[u'1 <br/>(Completely unwilling to take risks)', u'2', u'3', u'4', u'5', u'6', u'7', u'8', u'9  <br/>(Very willing to take risks)']]","[[u'1 <br/>(Completely unwilling to take risks)', u'2', u'3', u'4', u'5', u'6', u'7', u'8', u'9  <br/>(Very willing to take risks)']]","[[u'1 <br/>(Completely unwilling to take risks)', u'2', u'3', u'4', u'5', u'6', u'7', u'8', u'9  <br/>(Very willing to take risks)']]","[[u'1 <br/>(Completely unwilling to take risks)', u'2', u'3', u'4', u'5', u'6', u'7', u'8', u'9  <br/>(Very willing to take risks)']]","[[u'1 <br/>(Completely unwilling to take risks)', u'2', u'3', u'4', u'5', u'6', u'7', u'8', u'9  <br/>(Very willing to take risks)']]"
53,A6XBXQC3G59N8:3VP0C6EFSI3WXKQRF9ERIP60I906M0,1542248716753,1312.0,face-likert-amanda,,0.0-7.0-0.0-5.0,216002,53,"{""Q0"":4}",/static/images/2kfaces/Google_1_Douglas Tanguay_9_oval.jpg,0,,,,"[[u'1 <br/>(Completely unwilling to take risks)', u'2', u'3', u'4', u'5', u'6', u'7', u'8', u'9  <br/>(Very willing to take risks)']]","[[u'1 <br/>(Completely unwilling to take risks)', u'2', u'3', u'4', u'5', u'6', u'7', u'8', u'9  <br/>(Very willing to take risks)']]","[[u'1 <br/>(Completely unwilling to take risks)', u'2', u'3', u'4', u'5', u'6', u'7', u'8', u'9  <br/>(Very willing to take risks)']]","[[u'1 <br/>(Completely unwilling to take risks)', u'2', u'3', u'4', u'5', u'6', u'7', u'8', u'9  <br/>(Very willing to take risks)']]","[[u'1 <br/>(Completely unwilling to take risks)', u'2', u'3', u'4', u'5', u'6', u'7', u'8', u'9  <br/>(Very willing to take risks)']]"
54,A6XBXQC3G59N8:3VP0C6EFSI3WXKQRF9ERIP60I906M0,1542248718203,1447.0,face-likert-amanda,,0.0-7.0-0.0-6.0,217452,54,"{""Q0"":3}",/static/images/2kfaces/Google_1_Stephen Conley_1_oval.jpg,0,,,,"[[u'1 <br/>(Completely unwilling to take risks)', u'2', u'3', u'4', u'5', u'6', u'7', u'8', u'9  <br/>(Very willing to take risks)']]","[[u'1 <br/>(Completely unwilling to take risks)', u'2', u'3', u'4', u'5', u'6', u'7', u'8', u'9  <br/>(Very willing to take risks)']]","[[u'1 <br/>(Completely unwilling to take risks)', u'2', u'3', u'4', u'5', u'6', u'7', u'8', u'9  <br/>(Very willing to take risks)']]","[[u'1 <br/>(Completely unwilling to take risks)', u'2', u'3', u'4', u'5', u'6', u'7', u'8', u'9  <br/>(Very willing to take risks)']]","[[u'1 <br/>(Completely unwilling to take risks)', u'2', u'3', u'4', u'5', u'6', u'7', u'8', u'9  <br/>(Very willing to take risks)']]"
55,A6XBXQC3G59N8:3VP0C6EFSI3WXKQRF9ERIP60I906M0,1542248719658,1453.0,face-likert-amanda,,0.0-7.0-0.0-7.0,218907,55,"{""Q0"":3}",/static/images/2kfaces/Google_1_Timothy Galvan_11_oval.jpg,0,,,,"[[u'1 <br/>(Completely unwilling to take risks)', u'2', u'3', u'4', u'5', u'6', u'7', u'8', u'9  <br/>(Very willing to take risks)']]","[[u'1 <br/>(Completely unwilling to take risks)', u'2', u'3', u'4', u'5', u'6', u'7', u'8', u'9  <br/>(Very willing to take risks)']]","[[u'1 <br/>(Completely unwilling to take risks)', u'2', u'3', u'4', u'5', u'6', u'7', u'8', u'9  <br/>(Very willing to take risks)']]","[[u'1 <br/>(Completely unwilling to take risks)', u'2', u'3', u'4', u'5', u'6', u'7', u'8', u'9  <br/>(Very willing to take risks)']]","[[u'1 <br/>(Completely unwilling to take risks)', u'2', u'3', u'4', u'5', u'6', u'7', u'8', u'9  <br/>(Very willing to take risks)']]"
56,A6XBXQC3G59N8:3VP0C6EFSI3WXKQRF9ERIP60I906M0,1542248721108,1449.0,face-likert-amanda,,0.0-7.0-0.0-8.0,220357,56,"{""Q0"":4}",/static/images/2kfaces/Google_1_Henry Gumm_19_oval.jpg,0,,,,"[[u'1 <br/>(Completely unwilling to take risks)', u'2', u'3', u'4', u'5', u'6', u'7', u'8', u'9  <br/>(Very willing to take risks)']]","[[u'1 <br/>(Completely unwilling to take risks)', u'2', u'3', u'4', u'5', u'6', u'7', u'8', u'9  <br/>(Very willing to take risks)']]","[[u'1 <br/>(Completely unwilling to take risks)', u'2', u'3', u'4', u'5', u'6', u'7', u'8', u'9  <br/>(Very willing to take risks)']]","[[u'1 <br/>(Completely unwilling to take risks)', u'2', u'3', u'4', u'5', u'6', u'7', u'8', u'9  <br/>(Very willing to take risks)']]","[[u'1 <br/>(Completely unwilling to take risks)', u'2', u'3', u'4', u'5', u'6', u'7', u'8', u'9  <br/>(Very willing to take risks)']]"
57,A6XBXQC3G59N8:3VP0C6EFSI3WXKQRF9ERIP60I906M0,1542248722580,1471.0,face-likert-amanda,,0.0-7.0-0.0-9.0,221829,57,"{""Q0"":4}",/static/images/2kfaces/Google_1_Jeffery Mcclinton_7-oval.jpg,0,,,,"[[u'1 <br/>(Completely unwilling to take risks)', u'2', u'3', u'4', u'5', u'6', u'7', u'8', u'9  <br/>(Very willing to take risks)']]","[[u'1 <br/>(Completely unwilling to take risks)', u'2', u'3', u'4', u'5', u'6', u'7', u'8', u'9  <br/>(Very willing to take risks)']]","[[u'1 <br/>(Completely unwilling to take risks)', u'2', u'3', u'4', u'5', u'6', u'7', u'8', u'9  <br/>(Very willing to take risks)']]","[[u'1 <br/>(Completely unwilling to take risks)', u'2', u'3', u'4', u'5', u'6', u'7', u'8', u'9  <br/>(Very willing to take risks)']]","[[u'1 <br/>(Completely unwilling to take risks)', u'2', u'3', u'4', u'5', u'6', u'7', u'8', u'9  <br/>(Very willing to take risks)']]"
58,A6XBXQC3G59N8:3VP0C6EFSI3WXKQRF9ERIP60I906M0,1542248723860,1278.0,face-likert-amanda,,0.0-7.0-0.0-10.0,223109,58,"{""Q0"":4}",/static/images/2kfaces/Google_1_Marjorie Rule_3_oval.jpg,0,,,,"[[u'1 <br/>(Completely unwilling to take risks)', u'2', u'3', u'4', u'5', u'6', u'7', u'8', u'9  <br/>(Very willing to take risks)']]","[[u'1 <br/>(Completely unwilling to take risks)', u'2', u'3', u'4', u'5', u'6', u'7', u'8', u'9  <br/>(Very willing to take risks)']]","[[u'1 <br/>(Completely unwilling to take risks)', u'2', u'3', u'4', u'5', u'6', u'7', u'8', u'9  <br/>(Very willing to take risks)']]","[[u'1 <br/>(Completely unwilling to take risks)', u'2', u'3', u'4', u'5', u'6', u'7', u'8', u'9  <br/>(Very willing to take risks)']]","[[u'1 <br/>(Completely unwilling to take risks)', u'2', u'3', u'4', u'5', u'6', u'7', u'8', u'9  <br/>(Very willing to take risks)']]"
59,A6XBXQC3G59N8:3VP0C6EFSI3WXKQRF9ERIP60I906M0,1542248725447,1586.0,face-likert-amanda,,0.0-7.0-0.0-11.0,224696,59,"{""Q0"":4}",/static/images/2kfaces/Google_1_Paul Horst_15_oval.jpg,0,,,,"[[u'1 <br/>(Completely unwilling to take risks)', u'2', u'3', u'4', u'5', u'6', u'7', u'8', u'9  <br/>(Very willing to take risks)']]","[[u'1 <br/>(Completely unwilling to take risks)', u'2', u'3', u'4', u'5', u'6', u'7', u'8', u'9  <br/>(Very willing to take risks)']]","[[u'1 <br/>(Completely unwilling to take risks)', u'2', u'3', u'4', u'5', u'6', u'7', u'8', u'9  <br/>(Very willing to take risks)']]","[[u'1 <br/>(Completely unwilling to take risks)', u'2', u'3', u'4', u'5', u'6', u'7', u'8', u'9  <br/>(Very willing to take risks)']]","[[u'1 <br/>(Completely unwilling to take risks)', u'2', u'3', u'4', u'5', u'6', u'7', u'8', u'9  <br/>(Very willing to take risks)']]"
60,A6XBXQC3G59N8:3VP0C6EFSI3WXKQRF9ERIP60I906M0,1542248726930,1481.0,face-likert-amanda,,0.0-7.0-0.0-12.0,226179,60,"{""Q0"":5}",/static/images/2kfaces/Google_1_Jonathan Marek_5_oval.jpg,0,,,,"[[u'1 <br/>(Completely unwilling to take risks)', u'2', u'3', u'4', u'5', u'6', u'7', u'8', u'9  <br/>(Very willing to take risks)']]","[[u'1 <br/>(Completely unwilling to take risks)', u'2', u'3', u'4', u'5', u'6', u'7', u'8', u'9  <br/>(Very willing to take risks)']]","[[u'1 <br/>(Completely unwilling to take risks)', u'2', u'3', u'4', u'5', u'6', u'7', u'8', u'9  <br/>(Very willing to take risks)']]","[[u'1 <br/>(Completely unwilling to take risks)', u'2', u'3', u'4', u'5', u'6', u'7', u'8', u'9  <br/>(Very willing to take risks)']]","[[u'1 <br/>(Completely unwilling to take risks)', u'2', u'3', u'4', u'5', u'6', u'7', u'8', u'9  <br/>(Very willing to take risks)']]"
61,A6XBXQC3G59N8:3VP0C6EFSI3WXKQRF9ERIP60I906M0,1542248728578,1647.0,face-likert-amanda,,0.0-7.0-0.0-13.0,227827,61,"{""Q0"":5}",/static/images/2kfaces/Google_1_Jose Monaghan_9_oval.jpg,0,,,,"[[u'1 <br/>(Completely unwilling to take risks)', u'2', u'3', u'4', u'5', u'6', u'7', u'8', u'9  <br/>(Very willing to take risks)']]","[[u'1 <br/>(Completely unwilling to take risks)', u'2', u'3', u'4', u'5', u'6', u'7', u'8', u'9  <br/>(Very willing to take risks)']]","[[u'1 <br/>(Completely unwilling to take risks)', u'2', u'3', u'4', u'5', u'6', u'7', u'8', u'9  <br/>(Very willing to take risks)']]","[[u'1 <br/>(Completely unwilling to take risks)', u'2', u'3', u'4', u'5', u'6', u'7', u'8', u'9  <br/>(Very willing to take risks)']]","[[u'1 <br/>(Completely unwilling to take risks)', u'2', u'3', u'4', u'5', u'6', u'7', u'8', u'9  <br/>(Very willing to take risks)']]"
62,A6XBXQC3G59N8:3VP0C6EFSI3WXKQRF9ERIP60I906M0,1542248730058,1480.0,face-likert-amanda,,0.0-7.0-0.0-14.0,229307,62,"{""Q0"":2}",/static/images/2kfaces/Google_1_Eva Kirkman_15_oval.jpg,0,,,,"[[u'1 <br/>(Completely unwilling to take risks)', u'2', u'3', u'4', u'5', u'6', u'7', u'8', u'9  <br/>(Very willing to take risks)']]","[[u'1 <br/>(Completely unwilling to take risks)', u'2', u'3', u'4', u'5', u'6', u'7', u'8', u'9  <br/>(Very willing to take risks)']]","[[u'1 <br/>(Completely unwilling to take risks)', u'2', u'3', u'4', u'5', u'6', u'7', u'8', u'9  <br/>(Very willing to take risks)']]","[[u'1 <br/>(Completely unwilling to take risks)', u'2', u'3', u'4', u'5', u'6', u'7', u'8', u'9  <br/>(Very willing to take risks)']]","[[u'1 <br/>(Completely unwilling to take risks)', u'2', u'3', u'4', u'5', u'6', u'7', u'8', u'9  <br/>(Very willing to take risks)']]"
63,A6XBXQC3G59N8:3VP0C6EFSI3WXKQRF9ERIP60I906M0,1542248731547,1489.0,face-likert-amanda,,0.0-7.0-0.0-15.0,230796,63,"{""Q0"":4}",/static/images/2kfaces/Google_1_Eric Osuna_3_oval.jpg,0,,,,"[[u'1 <br/>(Completely unwilling to take risks)', u'2', u'3', u'4', u'5', u'6', u'7', u'8', u'9  <br/>(Very willing to take risks)']]","[[u'1 <br/>(Completely unwilling to take risks)', u'2', u'3', u'4', u'5', u'6', u'7', u'8', u'9  <br/>(Very willing to take risks)']]","[[u'1 <br/>(Completely unwilling to take risks)', u'2', u'3', u'4', u'5', u'6', u'7', u'8', u'9  <br/>(Very willing to take risks)']]","[[u'1 <br/>(Completely unwilling to take risks)', u'2', u'3', u'4', u'5', u'6', u'7', u'8', u'9  <br/>(Very willing to take risks)']]","[[u'1 <br/>(Completely unwilling to take risks)', u'2', u'3', u'4', u'5', u'6', u'7', u'8', u'9  <br/>(Very willing to take risks)']]"
64,A6XBXQC3G59N8:3VP0C6EFSI3WXKQRF9ERIP60I906M0,1542248733574,2024.0,face-likert-amanda,,0.0-7.0-0.0-16.0,232823,64,"{""Q0"":4}",/static/images/2kfaces/Google_1_Shelia Latham_17_oval.jpg,0,,,,"[[u'1 <br/>(Completely unwilling to take risks)', u'2', u'3', u'4', u'5', u'6', u'7', u'8', u'9  <br/>(Very willing to take risks)']]","[[u'1 <br/>(Completely unwilling to take risks)', u'2', u'3', u'4', u'5', u'6', u'7', u'8', u'9  <br/>(Very willing to take risks)']]","[[u'1 <br/>(Completely unwilling to take risks)', u'2', u'3', u'4', u'5', u'6', u'7', u'8', u'9  <br/>(Very willing to take risks)']]","[[u'1 <br/>(Completely unwilling to take risks)', u'2', u'3', u'4', u'5', u'6', u'7', u'8', u'9  <br/>(Very willing to take risks)']]","[[u'1 <br/>(Completely unwilling to take risks)', u'2', u'3', u'4', u'5', u'6', u'7', u'8', u'9  <br/>(Very willing to take risks)']]"
65,A6XBXQC3G59N8:3VP0C6EFSI3WXKQRF9ERIP60I906M0,1542248735030,1456.0,face-likert-amanda,,0.0-7.0-0.0-17.0,234279,65,"{""Q0"":4}",/static/images/2kfaces/Google_1_Carole Bentley_7_oval.jpg,0,,,,"[[u'1 <br/>(Completely unwilling to take risks)', u'2', u'3', u'4', u'5', u'6', u'7', u'8', u'9  <br/>(Very willing to take risks)']]","[[u'1 <br/>(Completely unwilling to take risks)', u'2', u'3', u'4', u'5', u'6', u'7', u'8', u'9  <br/>(Very willing to take risks)']]","[[u'1 <br/>(Completely unwilling to take risks)', u'2', u'3', u'4', u'5', u'6', u'7', u'8', u'9  <br/>(Very willing to take risks)']]","[[u'1 <br/>(Completely unwilling to take risks)', u'2', u'3', u'4', u'5', u'6', u'7', u'8', u'9  <br/>(Very willing to take risks)']]","[[u'1 <br/>(Completely unwilling to take risks)', u'2', u'3', u'4', u'5', u'6', u'7', u'8', u'9  <br/>(Very willing to take risks)']]"
66,A6XBXQC3G59N8:3VP0C6EFSI3WXKQRF9ERIP60I906M0,1542248736571,1540.0,face-likert-amanda,,0.0-7.0-0.0-18.0,235820,66,"{""Q0"":5}",/static/images/2kfaces/Google_1_Mark Detwiler_9_oval.jpg,0,,,,"[[u'1 <br/>(Completely unwilling to take risks)', u'2', u'3', u'4', u'5', u'6', u'7', u'8', u'9  <br/>(Very willing to take risks)']]","[[u'1 <br/>(Completely unwilling to take risks)', u'2', u'3', u'4', u'5', u'6', u'7', u'8', u'9  <br/>(Very willing to take risks)']]","[[u'1 <br/>(Completely unwilling to take risks)', u'2', u'3', u'4', u'5', u'6', u'7', u'8', u'9  <br/>(Very willing to take risks)']]","[[u'1 <br/>(Completely unwilling to take risks)', u'2', u'3', u'4', u'5', u'6', u'7', u'8', u'9  <br/>(Very willing to take risks)']]","[[u'1 <br/>(Completely unwilling to take risks)', u'2', u'3', u'4', u'5', u'6', u'7', u'8', u'9  <br/>(Very willing to take risks)']]"
67,A6XBXQC3G59N8:3VP0C6EFSI3WXKQRF9ERIP60I906M0,1542248738304,1733.0,face-likert-amanda,,0.0-7.0-0.0-19.0,237553,67,"{""Q0"":5}",/static/images/2kfaces/Google_1_Sarah Woodcock_3_oval.jpg,0,,,,"[[u'1 <br/>(Completely unwilling to take risks)', u'2', u'3', u'4', u'5', u'6', u'7', u'8', u'9  <br/>(Very willing to take risks)']]","[[u'1 <br/>(Completely unwilling to take risks)', u'2', u'3', u'4', u'5', u'6', u'7', u'8', u'9  <br/>(Very willing to take risks)']]","[[u'1 <br/>(Completely unwilling to take risks)', u'2', u'3', u'4', u'5', u'6', u'7', u'8', u'9  <br/>(Very willing to take risks)']]","[[u'1 <br/>(Completely unwilling to take risks)', u'2', u'3', u'4', u'5', u'6', u'7', u'8', u'9  <br/>(Very willing to take risks)']]","[[u'1 <br/>(Completely unwilling to take risks)', u'2', u'3', u'4', u'5', u'6', u'7', u'8', u'9  <br/>(Very willing to take risks)']]"
68,A6XBXQC3G59N8:3VP0C6EFSI3WXKQRF9ERIP60I906M0,1542248739976,1671.0,face-likert-amanda,,0.0-7.0-0.0-20.0,239225,68,"{""Q0"":3}",/static/images/2kfaces/Google_1_Russell Gillam_17_oval.jpg,0,,,,"[[u'1 <br/>(Completely unwilling to take risks)', u'2', u'3', u'4', u'5', u'6', u'7', u'8', u'9  <br/>(Very willing to take risks)']]","[[u'1 <br/>(Completely unwilling to take risks)', u'2', u'3', u'4', u'5', u'6', u'7', u'8', u'9  <br/>(Very willing to take risks)']]","[[u'1 <br/>(Completely unwilling to take risks)', u'2', u'3', u'4', u'5', u'6', u'7', u'8', u'9  <br/>(Very willing to take risks)']]","[[u'1 <br/>(Completely unwilling to take risks)', u'2', u'3', u'4', u'5', u'6', u'7', u'8', u'9  <br/>(Very willing to take risks)']]","[[u'1 <br/>(Completely unwilling to take risks)', u'2', u'3', u'4', u'5', u'6', u'7', u'8', u'9  <br/>(Very willing to take risks)']]"
69,A6XBXQC3G59N8:3VP0C6EFSI3WXKQRF9ERIP60I906M0,1542248741902,1924.0,face-likert-amanda,,0.0-7.0-0.0-21.0,241151,69,"{""Q0"":4}",/static/images/2kfaces/Brian_Mach_1_oval.jpg,0,,,,"[[u'1 <br/>(Completely unwilling to take risks)', u'2', u'3', u'4', u'5', u'6', u'7', u'8', u'9  <br/>(Very willing to take risks)']]","[[u'1 <br/>(Completely unwilling to take risks)', u'2', u'3', u'4', u'5', u'6', u'7', u'8', u'9  <br/>(Very willing to take risks)']]","[[u'1 <br/>(Completely unwilling to take risks)', u'2', u'3', u'4', u'5', u'6', u'7', u'8', u'9  <br/>(Very willing to take risks)']]","[[u'1 <br/>(Completely unwilling to take risks)', u'2', u'3', u'4', u'5', u'6', u'7', u'8', u'9  <br/>(Very willing to take risks)']]","[[u'1 <br/>(Completely unwilling to take risks)', u'2', u'3', u'4', u'5', u'6', u'7', u'8', u'9  <br/>(Very willing to take risks)']]"
70,A6XBXQC3G59N8:3VP0C6EFSI3WXKQRF9ERIP60I906M0,1542248743926,2023.0,face-likert-amanda,,0.0-7.0-0.0-22.0,243175,70,"{""Q0"":4}",/static/images/2kfaces/Google_1_Norman Westfall_5_oval.jpg,0,,,,"[[u'1 <br/>(Completely unwilling to take risks)', u'2', u'3', u'4', u'5', u'6', u'7', u'8', u'9  <br/>(Very willing to take risks)']]","[[u'1 <br/>(Completely unwilling to take risks)', u'2', u'3', u'4', u'5', u'6', u'7', u'8', u'9  <br/>(Very willing to take risks)']]","[[u'1 <br/>(Completely unwilling to take risks)', u'2', u'3', u'4', u'5', u'6', u'7', u'8', u'9  <br/>(Very willing to take risks)']]","[[u'1 <br/>(Completely unwilling to take risks)', u'2', u'3', u'4', u'5', u'6', u'7', u'8', u'9  <br/>(Very willing to take risks)']]","[[u'1 <br/>(Completely unwilling to take risks)', u'2', u'3', u'4', u'5', u'6', u'7', u'8', u'9  <br/>(Very willing to take risks)']]"
71,A6XBXQC3G59N8:3VP0C6EFSI3WXKQRF9ERIP60I906M0,1542248746452,2524.0,face-likert-amanda,,0.0-7.0-0.0-23.0,245701,71,"{""Q0"":4}",/static/images/2kfaces/Google_1_Joshua Lessard_11_oval.jpg,0,,,,"[[u'1 <br/>(Completely unwilling to take risks)', u'2', u'3', u'4', u'5', u'6', u'7', u'8', u'9  <br/>(Very willing to take risks)']]","[[u'1 <br/>(Completely unwilling to take risks)', u'2', u'3', u'4', u'5', u'6', u'7', u'8', u'9  <br/>(Very willing to take risks)']]","[[u'1 <br/>(Completely unwilling to take risks)', u'2', u'3', u'4', u'5', u'6', u'7', u'8', u'9  <br/>(Very willing to take risks)']]","[[u'1 <br/>(Completely unwilling to take risks)', u'2', u'3', u'4', u'5', u'6', u'7', u'8', u'9  <br/>(Very willing to take risks)']]","[[u'1 <br/>(Completely unwilling to take risks)', u'2', u'3', u'4', u'5', u'6', u'7', u'8', u'9  <br/>(Very willing to take risks)']]"
72,A6XBXQC3G59N8:3VP0C6EFSI3WXKQRF9ERIP60I906M0,1542248747918,1464.0,face-likert-amanda,,0.0-7.0-0.0-24.0,247167,72,"{""Q0"":3}",/static/images/2kfaces/Google_1_Andrew Diggs_9_oval.jpg,0,,,,"[[u'1 <br/>(Completely unwilling to take risks)', u'2', u'3', u'4', u'5', u'6', u'7', u'8', u'9  <br/>(Very willing to take risks)']]","[[u'1 <br/>(Completely unwilling to take risks)', u'2', u'3', u'4', u'5', u'6', u'7', u'8', u'9  <br/>(Very willing to take risks)']]","[[u'1 <br/>(Completely unwilling to take risks)', u'2', u'3', u'4', u'5', u'6', u'7', u'8', u'9  <br/>(Very willing to take risks)']]","[[u'1 <br/>(Completely unwilling to take risks)', u'2', u'3', u'4', u'5', u'6', u'7', u'8', u'9  <br/>(Very willing to take risks)']]","[[u'1 <br/>(Completely unwilling to take risks)', u'2', u'3', u'4', u'5', u'6', u'7', u'8', u'9  <br/>(Very willing to take risks)']]"
73,A6XBXQC3G59N8:3VP0C6EFSI3WXKQRF9ERIP60I906M0,1542248749425,1505.0,face-likert-amanda,,0.0-7.0-0.0-25.0,248673,73,"{""Q0"":4}",/static/images/2kfaces/Bryan_Shanklin_9_oval.jpg,0,,,,"[[u'1 <br/>(Completely unwilling to take risks)', u'2', u'3', u'4', u'5', u'6', u'7', u'8', u'9  <br/>(Very willing to take risks)']]","[[u'1 <br/>(Completely unwilling to take risks)', u'2', u'3', u'4', u'5', u'6', u'7', u'8', u'9  <br/>(Very willing to take risks)']]","[[u'1 <br/>(Completely unwilling to take risks)', u'2', u'3', u'4', u'5', u'6', u'7', u'8', u'9  <br/>(Very willing to take risks)']]","[[u'1 <br/>(Completely unwilling to take risks)', u'2', u'3', u'4', u'5', u'6', u'7', u'8', u'9  <br/>(Very willing to take risks)']]","[[u'1 <br/>(Completely unwilling to take risks)', u'2', u'3', u'4', u'5', u'6', u'7', u'8', u'9  <br/>(Very willing to take risks)']]"
74,A6XBXQC3G59N8:3VP0C6EFSI3WXKQRF9ERIP60I906M0,1542248751672,2246.0,face-likert-amanda,,0.0-7.0-0.0-26.0,250921,74,"{""Q0"":6}",/static/images/2kfaces/Google_1_Gregory Arriola_3_oval.jpg,0,,,,"[[u'1 <br/>(Completely unwilling to take risks)', u'2', u'3', u'4', u'5', u'6', u'7', u'8', u'9  <br/>(Very willing to take risks)']]","[[u'1 <br/>(Completely unwilling to take risks)', u'2', u'3', u'4', u'5', u'6', u'7', u'8', u'9  <br/>(Very willing to take risks)']]","[[u'1 <br/>(Completely unwilling to take risks)', u'2', u'3', u'4', u'5', u'6', u'7', u'8', u'9  <br/>(Very willing to take risks)']]","[[u'1 <br/>(Completely unwilling to take risks)', u'2', u'3', u'4', u'5', u'6', u'7', u'8', u'9  <br/>(Very willing to take risks)']]","[[u'1 <br/>(Completely unwilling to take risks)', u'2', u'3', u'4', u'5', u'6', u'7', u'8', u'9  <br/>(Very willing to take risks)']]"
75,A6XBXQC3G59N8:3VP0C6EFSI3WXKQRF9ERIP60I906M0,1542248753562,1889.0,face-likert-amanda,,0.0-7.0-0.0-27.0,252811,75,"{""Q0"":4}",/static/images/2kfaces/Google_1_Kara Mickelson_13_oval.jpg,0,,,,"[[u'1 <br/>(Completely unwilling to take risks)', u'2', u'3', u'4', u'5', u'6', u'7', u'8', u'9  <br/>(Very willing to take risks)']]","[[u'1 <br/>(Completely unwilling to take risks)', u'2', u'3', u'4', u'5', u'6', u'7', u'8', u'9  <br/>(Very willing to take risks)']]","[[u'1 <br/>(Completely unwilling to take risks)', u'2', u'3', u'4', u'5', u'6', u'7', u'8', u'9  <br/>(Very willing to take risks)']]","[[u'1 <br/>(Completely unwilling to take risks)', u'2', u'3', u'4', u'5', u'6', u'7', u'8', u'9  <br/>(Very willing to take risks)']]","[[u'1 <br/>(Completely unwilling to take risks)', u'2', u'3', u'4', u'5', u'6', u'7', u'8', u'9  <br/>(Very willing to take risks)']]"
76,A6XBXQC3G59N8:3VP0C6EFSI3WXKQRF9ERIP60I906M0,1542248755846,2283.0,face-likert-amanda,,0.0-7.0-0.0-28.0,255095,76,"{""Q0"":4}",/static/images/2kfaces/Google_1_Kathleen Sartain_1_oval.jpg,0,,,,"[[u'1 <br/>(Completely unwilling to take risks)', u'2', u'3', u'4', u'5', u'6', u'7', u'8', u'9  <br/>(Very willing to take risks)']]","[[u'1 <br/>(Completely unwilling to take risks)', u'2', u'3', u'4', u'5', u'6', u'7', u'8', u'9  <br/>(Very willing to take risks)']]","[[u'1 <br/>(Completely unwilling to take risks)', u'2', u'3', u'4', u'5', u'6', u'7', u'8', u'9  <br/>(Very willing to take risks)']]","[[u'1 <br/>(Completely unwilling to take risks)', u'2', u'3', u'4', u'5', u'6', u'7', u'8', u'9  <br/>(Very willing to take risks)']]","[[u'1 <br/>(Completely unwilling to take risks)', u'2', u'3', u'4', u'5', u'6', u'7', u'8', u'9  <br/>(Very willing to take risks)']]"
77,A6XBXQC3G59N8:3VP0C6EFSI3WXKQRF9ERIP60I906M0,1542248757394,1546.0,face-likert-amanda,,0.0-7.0-0.0-29.0,256643,77,"{""Q0"":3}",/static/images/2kfaces/Google_1_Gary Perri_3_oval.jpg,0,,,,"[[u'1 <br/>(Completely unwilling to take risks)', u'2', u'3', u'4', u'5', u'6', u'7', u'8', u'9  <br/>(Very willing to take risks)']]","[[u'1 <br/>(Completely unwilling to take risks)', u'2', u'3', u'4', u'5', u'6', u'7', u'8', u'9  <br/>(Very willing to take risks)']]","[[u'1 <br/>(Completely unwilling to take risks)', u'2', u'3', u'4', u'5', u'6', u'7', u'8', u'9  <br/>(Very willing to take risks)']]","[[u'1 <br/>(Completely unwilling to take risks)', u'2', u'3', u'4', u'5', u'6', u'7', u'8', u'9  <br/>(Very willing to take risks)']]","[[u'1 <br/>(Completely unwilling to take risks)', u'2', u'3', u'4', u'5', u'6', u'7', u'8', u'9  <br/>(Very willing to take risks)']]"
78,A6XBXQC3G59N8:3VP0C6EFSI3WXKQRF9ERIP60I906M0,1542248759016,1620.0,face-likert-amanda,,0.0-7.0-0.0-30.0,258264,78,"{""Q0"":3}",/static/images/2kfaces/Google_1_Amelia Lines_11_oval.jpg,0,,,,"[[u'1 <br/>(Completely unwilling to take risks)', u'2', u'3', u'4', u'5', u'6', u'7', u'8', u'9  <br/>(Very willing to take risks)']]","[[u'1 <br/>(Completely unwilling to take risks)', u'2', u'3', u'4', u'5', u'6', u'7', u'8', u'9  <br/>(Very willing to take risks)']]","[[u'1 <br/>(Completely unwilling to take risks)', u'2', u'3', u'4', u'5', u'6', u'7', u'8', u'9  <br/>(Very willing to take risks)']]","[[u'1 <br/>(Completely unwilling to take risks)', u'2', u'3', u'4', u'5', u'6', u'7', u'8', u'9  <br/>(Very willing to take risks)']]","[[u'1 <br/>(Completely unwilling to take risks)', u'2', u'3', u'4', u'5', u'6', u'7', u'8', u'9  <br/>(Very willing to take risks)']]"
79,A6XBXQC3G59N8:3VP0C6EFSI3WXKQRF9ERIP60I906M0,1542248760961,1942.0,face-likert-amanda,,0.0-7.0-0.0-31.0,260210,79,"{""Q0"":4}",/static/images/2kfaces/Google_1_Kenneth Rigsby_15_oval.jpg,0,,,,"[[u'1 <br/>(Completely unwilling to take risks)', u'2', u'3', u'4', u'5', u'6', u'7', u'8', u'9  <br/>(Very willing to take risks)']]","[[u'1 <br/>(Completely unwilling to take risks)', u'2', u'3', u'4', u'5', u'6', u'7', u'8', u'9  <br/>(Very willing to take risks)']]","[[u'1 <br/>(Completely unwilling to take risks)', u'2', u'3', u'4', u'5', u'6', u'7', u'8', u'9  <br/>(Very willing to take risks)']]","[[u'1 <br/>(Completely unwilling to take risks)', u'2', u'3', u'4', u'5', u'6', u'7', u'8', u'9  <br/>(Very willing to take risks)']]","[[u'1 <br/>(Completely unwilling to take risks)', u'2', u'3', u'4', u'5', u'6', u'7', u'8', u'9  <br/>(Very willing to take risks)']]"
80,A6XBXQC3G59N8:3VP0C6EFSI3WXKQRF9ERIP60I906M0,1542248762208,1246.0,face-likert-amanda,,0.0-7.0-0.0-32.0,261457,80,"{""Q0"":4}",/static/images/2kfaces/Google_1_Louis Mceachern_7_oval.jpg,0,,,,"[[u'1 <br/>(Completely unwilling to take risks)', u'2', u'3', u'4', u'5', u'6', u'7', u'8', u'9  <br/>(Very willing to take risks)']]","[[u'1 <br/>(Completely unwilling to take risks)', u'2', u'3', u'4', u'5', u'6', u'7', u'8', u'9  <br/>(Very willing to take risks)']]","[[u'1 <br/>(Completely unwilling to take risks)', u'2', u'3', u'4', u'5', u'6', u'7', u'8', u'9  <br/>(Very willing to take risks)']]","[[u'1 <br/>(Completely unwilling to take risks)', u'2', u'3', u'4', u'5', u'6', u'7', u'8', u'9  <br/>(Very willing to take risks)']]","[[u'1 <br/>(Completely unwilling to take risks)', u'2', u'3', u'4', u'5', u'6', u'7', u'8', u'9  <br/>(Very willing to take risks)']]"
81,A6XBXQC3G59N8:3VP0C6EFSI3WXKQRF9ERIP60I906M0,1542248763490,1281.0,face-likert-amanda,,0.0-7.0-0.0-33.0,262739,81,"{""Q0"":4}",/static/images/2kfaces/Google_1_Valerie Noble_9_oval.jpg,0,,,,"[[u'1 <br/>(Completely unwilling to take risks)', u'2', u'3', u'4', u'5', u'6', u'7', u'8', u'9  <br/>(Very willing to take risks)']]","[[u'1 <br/>(Completely unwilling to take risks)', u'2', u'3', u'4', u'5', u'6', u'7', u'8', u'9  <br/>(Very willing to take risks)']]","[[u'1 <br/>(Completely unwilling to take risks)', u'2', u'3', u'4', u'5', u'6', u'7', u'8', u'9  <br/>(Very willing to take risks)']]","[[u'1 <br/>(Completely unwilling to take risks)', u'2', u'3', u'4', u'5', u'6', u'7', u'8', u'9  <br/>(Very willing to take risks)']]","[[u'1 <br/>(Completely unwilling to take risks)', u'2', u'3', u'4', u'5', u'6', u'7', u'8', u'9  <br/>(Very willing to take risks)']]"
82,A6XBXQC3G59N8:3VP0C6EFSI3WXKQRF9ERIP60I906M0,1542248764710,1218.0,face-likert-amanda,,0.0-7.0-0.0-34.0,263959,82,"{""Q0"":4}",/static/images/2kfaces/Google_1_Leonard Overcash_5_oval.jpg,0,,,,"[[u'1 <br/>(Completely unwilling to take risks)', u'2', u'3', u'4', u'5', u'6', u'7', u'8', u'9  <br/>(Very willing to take risks)']]","[[u'1 <br/>(Completely unwilling to take risks)', u'2', u'3', u'4', u'5', u'6', u'7', u'8', u'9  <br/>(Very willing to take risks)']]","[[u'1 <br/>(Completely unwilling to take risks)', u'2', u'3', u'4', u'5', u'6', u'7', u'8', u'9  <br/>(Very willing to take risks)']]","[[u'1 <br/>(Completely unwilling to take risks)', u'2', u'3', u'4', u'5', u'6', u'7', u'8', u'9  <br/>(Very willing to take risks)']]","[[u'1 <br/>(Completely unwilling to take risks)', u'2', u'3', u'4', u'5', u'6', u'7', u'8', u'9  <br/>(Very willing to take risks)']]"
83,A6XBXQC3G59N8:3VP0C6EFSI3WXKQRF9ERIP60I906M0,1542248766584,1874.0,face-likert-amanda,,0.0-7.0-0.0-35.0,265833,83,"{""Q0"":5}",/static/images/2kfaces/Google_1_Wilma Allman_15_oval.jpg,0,,,,"[[u'1 <br/>(Completely unwilling to take risks)', u'2', u'3', u'4', u'5', u'6', u'7', u'8', u'9  <br/>(Very willing to take risks)']]","[[u'1 <br/>(Completely unwilling to take risks)', u'2', u'3', u'4', u'5', u'6', u'7', u'8', u'9  <br/>(Very willing to take risks)']]","[[u'1 <br/>(Completely unwilling to take risks)', u'2', u'3', u'4', u'5', u'6', u'7', u'8', u'9  <br/>(Very willing to take risks)']]","[[u'1 <br/>(Completely unwilling to take risks)', u'2', u'3', u'4', u'5', u'6', u'7', u'8', u'9  <br/>(Very willing to take risks)']]","[[u'1 <br/>(Completely unwilling to take risks)', u'2', u'3', u'4', u'5', u'6', u'7', u'8', u'9  <br/>(Very willing to take risks)']]"
84,A6XBXQC3G59N8:3VP0C6EFSI3WXKQRF9ERIP60I906M0,1542248767990,1405.0,face-likert-amanda,,0.0-7.0-0.0-36.0,267239,84,"{""Q0"":5}",/static/images/2kfaces/Google_1_Kenneth Cabral_19_oval.jpg,0,,,,"[[u'1 <br/>(Completely unwilling to take risks)', u'2', u'3', u'4', u'5', u'6', u'7', u'8', u'9  <br/>(Very willing to take risks)']]","[[u'1 <br/>(Completely unwilling to take risks)', u'2', u'3', u'4', u'5', u'6', u'7', u'8', u'9  <br/>(Very willing to take risks)']]","[[u'1 <br/>(Completely unwilling to take risks)', u'2', u'3', u'4', u'5', u'6', u'7', u'8', u'9  <br/>(Very willing to take risks)']]","[[u'1 <br/>(Completely unwilling to take risks)', u'2', u'3', u'4', u'5', u'6', u'7', u'8', u'9  <br/>(Very willing to take risks)']]","[[u'1 <br/>(Completely unwilling to take risks)', u'2', u'3', u'4', u'5', u'6', u'7', u'8', u'9  <br/>(Very willing to take risks)']]"
85,A6XBXQC3G59N8:3VP0C6EFSI3WXKQRF9ERIP60I906M0,1542248769695,1704.0,face-likert-amanda,,0.0-7.0-0.0-37.0,268944,85,"{""Q0"":6}",/static/images/2kfaces/Google_1_Rodney Wyant_13_oval.jpg,0,,,,"[[u'1 <br/>(Completely unwilling to take risks)', u'2', u'3', u'4', u'5', u'6', u'7', u'8', u'9  <br/>(Very willing to take risks)']]","[[u'1 <br/>(Completely unwilling to take risks)', u'2', u'3', u'4', u'5', u'6', u'7', u'8', u'9  <br/>(Very willing to take risks)']]","[[u'1 <br/>(Completely unwilling to take risks)', u'2', u'3', u'4', u'5', u'6', u'7', u'8', u'9  <br/>(Very willing to take risks)']]","[[u'1 <br/>(Completely unwilling to take risks)', u'2', u'3', u'4', u'5', u'6', u'7', u'8', u'9  <br/>(Very willing to take risks)']]","[[u'1 <br/>(Completely unwilling to take risks)', u'2', u'3', u'4', u'5', u'6', u'7', u'8', u'9  <br/>(Very willing to take risks)']]"
86,A6XBXQC3G59N8:3VP0C6EFSI3WXKQRF9ERIP60I906M0,1542248771291,1594.0,face-likert-amanda,,0.0-7.0-0.0-38.0,270540,86,"{""Q0"":5}",/static/images/2kfaces/Google_1_Tina Middleton_7_oval.jpg,0,,,,"[[u'1 <br/>(Completely unwilling to take risks)', u'2', u'3', u'4', u'5', u'6', u'7', u'8', u'9  <br/>(Very willing to take risks)']]","[[u'1 <br/>(Completely unwilling to take risks)', u'2', u'3', u'4', u'5', u'6', u'7', u'8', u'9  <br/>(Very willing to take risks)']]","[[u'1 <br/>(Completely unwilling to take risks)', u'2', u'3', u'4', u'5', u'6', u'7', u'8', u'9  <br/>(Very willing to take risks)']]","[[u'1 <br/>(Completely unwilling to take risks)', u'2', u'3', u'4', u'5', u'6', u'7', u'8', u'9  <br/>(Very willing to take risks)']]","[[u'1 <br/>(Completely unwilling to take risks)', u'2', u'3', u'4', u'5', u'6', u'7', u'8', u'9  <br/>(Very willing to take risks)']]"
87,A6XBXQC3G59N8:3VP0C6EFSI3WXKQRF9ERIP60I906M0,1542248772673,1381.0,face-likert-amanda,,0.0-7.0-0.0-39.0,271922,87,"{""Q0"":5}",/static/images/2kfaces/Google_1_Vera Becker_5_oval.jpg,0,,,,"[[u'1 <br/>(Completely unwilling to take risks)', u'2', u'3', u'4', u'5', u'6', u'7', u'8', u'9  <br/>(Very willing to take risks)']]","[[u'1 <br/>(Completely unwilling to take risks)', u'2', u'3', u'4', u'5', u'6', u'7', u'8', u'9  <br/>(Very willing to take risks)']]","[[u'1 <br/>(Completely unwilling to take risks)', u'2', u'3', u'4', u'5', u'6', u'7', u'8', u'9  <br/>(Very willing to take risks)']]","[[u'1 <br/>(Completely unwilling to take risks)', u'2', u'3', u'4', u'5', u'6', u'7', u'8', u'9  <br/>(Very willing to take risks)']]","[[u'1 <br/>(Completely unwilling to take risks)', u'2', u'3', u'4', u'5', u'6', u'7', u'8', u'9  <br/>(Very willing to take risks)']]"
88,A6XBXQC3G59N8:3VP0C6EFSI3WXKQRF9ERIP60I906M0,1542248773679,,html-keyboard-response,,0.0-7.0-1.0,272928,88,,,,,<p>Good job! Let us take a quick break!</p>,,[None],[None],[None],[None],[None]
89,A6XBXQC3G59N8:3VP0C6EFSI3WXKQRF9ERIP60I906M0,1542248776181,,html-keyboard-response,,0.0-8.0,275430,89,,,,,<p>Enjoy a longer break :)</p>,,[None],[None],[None],[None],[None]
90,A6XBXQC3G59N8:3VP0C6EFSI3WXKQRF9ERIP60I906M0,1542248778209,2027.0,face-likert-amanda,,0.0-9.0-0.0-0.0,277458,90,"{""Q0"":3}",/static/images/2kfaces/Google_1_Henry Gumm_19_oval.jpg,1,,,,"[[u'1 <br/>(Completely unwilling to take risks)', u'2', u'3', u'4', u'5', u'6', u'7', u'8', u'9  <br/>(Very willing to take risks)']]","[[u'1 <br/>(Completely unwilling to take risks)', u'2', u'3', u'4', u'5', u'6', u'7', u'8', u'9  <br/>(Very willing to take risks)']]","[[u'1 <br/>(Completely unwilling to take risks)', u'2', u'3', u'4', u'5', u'6', u'7', u'8', u'9  <br/>(Very willing to take risks)']]","[[u'1 <br/>(Completely unwilling to take risks)', u'2', u'3', u'4', u'5', u'6', u'7', u'8', u'9  <br/>(Very willing to take risks)']]","[[u'1 <br/>(Completely unwilling to take risks)', u'2', u'3', u'4', u'5', u'6', u'7', u'8', u'9  <br/>(Very willing to take risks)']]"
91,A6XBXQC3G59N8:3VP0C6EFSI3WXKQRF9ERIP60I906M0,1542248779963,1751.0,face-likert-amanda,,0.0-9.0-0.0-1.0,279211,91,"{""Q0"":3}",/static/images/2kfaces/Google_1_Matthew Vanbuskirk_1_oval.jpg,1,,,,"[[u'1 <br/>(Completely unwilling to take risks)', u'2', u'3', u'4', u'5', u'6', u'7', u'8', u'9  <br/>(Very willing to take risks)']]","[[u'1 <br/>(Completely unwilling to take risks)', u'2', u'3', u'4', u'5', u'6', u'7', u'8', u'9  <br/>(Very willing to take risks)']]","[[u'1 <br/>(Completely unwilling to take risks)', u'2', u'3', u'4', u'5', u'6', u'7', u'8', u'9  <br/>(Very willing to take risks)']]","[[u'1 <br/>(Completely unwilling to take risks)', u'2', u'3', u'4', u'5', u'6', u'7', u'8', u'9  <br/>(Very willing to take risks)']]","[[u'1 <br/>(Completely unwilling to take risks)', u'2', u'3', u'4', u'5', u'6', u'7', u'8', u'9  <br/>(Very willing to take risks)']]"
92,A6XBXQC3G59N8:3VP0C6EFSI3WXKQRF9ERIP60I906M0,1542248781289,1325.0,face-likert-amanda,,0.0-9.0-0.0-2.0,280538,92,"{""Q0"":4}",/static/images/2kfaces/Brian_Mach_1_oval.jpg,1,,,,"[[u'1 <br/>(Completely unwilling to take risks)', u'2', u'3', u'4', u'5', u'6', u'7', u'8', u'9  <br/>(Very willing to take risks)']]","[[u'1 <br/>(Completely unwilling to take risks)', u'2', u'3', u'4', u'5', u'6', u'7', u'8', u'9  <br/>(Very willing to take risks)']]","[[u'1 <br/>(Completely unwilling to take risks)', u'2', u'3', u'4', u'5', u'6', u'7', u'8', u'9  <br/>(Very willing to take risks)']]","[[u'1 <br/>(Completely unwilling to take risks)', u'2', u'3', u'4', u'5', u'6', u'7', u'8', u'9  <br/>(Very willing to take risks)']]","[[u'1 <br/>(Completely unwilling to take risks)', u'2', u'3', u'4', u'5', u'6', u'7', u'8', u'9  <br/>(Very willing to take risks)']]"
93,A6XBXQC3G59N8:3VP0C6EFSI3WXKQRF9ERIP60I906M0,1542248782928,1637.0,face-likert-amanda,,0.0-9.0-0.0-3.0,282177,93,"{""Q0"":4}",/static/images/2kfaces/Google_1_Samuel Paschal_17_oval.jpg,1,,,,"[[u'1 <br/>(Completely unwilling to take risks)', u'2', u'3', u'4', u'5', u'6', u'7', u'8', u'9  <br/>(Very willing to take risks)']]","[[u'1 <br/>(Completely unwilling to take risks)', u'2', u'3', u'4', u'5', u'6', u'7', u'8', u'9  <br/>(Very willing to take risks)']]","[[u'1 <br/>(Completely unwilling to take risks)', u'2', u'3', u'4', u'5', u'6', u'7', u'8', u'9  <br/>(Very willing to take risks)']]","[[u'1 <br/>(Completely unwilling to take risks)', u'2', u'3', u'4', u'5', u'6', u'7', u'8', u'9  <br/>(Very willing to take risks)']]","[[u'1 <br/>(Completely unwilling to take risks)', u'2', u'3', u'4', u'5', u'6', u'7', u'8', u'9  <br/>(Very willing to take risks)']]"
94,A6XBXQC3G59N8:3VP0C6EFSI3WXKQRF9ERIP60I906M0,1542248784012,1082.0,face-likert-amanda,,0.0-9.0-0.0-4.0,283261,94,"{""Q0"":5}",/static/images/2kfaces/Google_1_Ernest Crump_3_oval.jpg,1,,,,"[[u'1 <br/>(Completely unwilling to take risks)', u'2', u'3', u'4', u'5', u'6', u'7', u'8', u'9  <br/>(Very willing to take risks)']]","[[u'1 <br/>(Completely unwilling to take risks)', u'2', u'3', u'4', u'5', u'6', u'7', u'8', u'9  <br/>(Very willing to take risks)']]","[[u'1 <br/>(Completely unwilling to take risks)', u'2', u'3', u'4', u'5', u'6', u'7', u'8', u'9  <br/>(Very willing to take risks)']]","[[u'1 <br/>(Completely unwilling to take risks)', u'2', u'3', u'4', u'5', u'6', u'7', u'8', u'9  <br/>(Very willing to take risks)']]","[[u'1 <br/>(Completely unwilling to take risks)', u'2', u'3', u'4', u'5', u'6', u'7', u'8', u'9  <br/>(Very willing to take risks)']]"
95,A6XBXQC3G59N8:3VP0C6EFSI3WXKQRF9ERIP60I906M0,1542248786237,2223.0,face-likert-amanda,,0.0-9.0-0.0-5.0,285486,95,"{""Q0"":5}",/static/images/2kfaces/Google_1_Samuel Goff_1_oval.jpg,1,,,,"[[u'1 <br/>(Completely unwilling to take risks)', u'2', u'3', u'4', u'5', u'6', u'7', u'8', u'9  <br/>(Very willing to take risks)']]","[[u'1 <br/>(Completely unwilling to take risks)', u'2', u'3', u'4', u'5', u'6', u'7', u'8', u'9  <br/>(Very willing to take risks)']]","[[u'1 <br/>(Completely unwilling to take risks)', u'2', u'3', u'4', u'5', u'6', u'7', u'8', u'9  <br/>(Very willing to take risks)']]","[[u'1 <br/>(Completely unwilling to take risks)', u'2', u'3', u'4', u'5', u'6', u'7', u'8', u'9  <br/>(Very willing to take risks)']]","[[u'1 <br/>(Completely unwilling to take risks)', u'2', u'3', u'4', u'5', u'6', u'7', u'8', u'9  <br/>(Very willing to take risks)']]"
96,A6XBXQC3G59N8:3VP0C6EFSI3WXKQRF9ERIP60I906M0,1542248787538,1300.0,face-likert-amanda,,0.0-9.0-0.0-6.0,286787,96,"{""Q0"":4}",/static/images/2kfaces/Google_1_Russell Gillam_17_oval.jpg,1,,,,"[[u'1 <br/>(Completely unwilling to take risks)', u'2', u'3', u'4', u'5', u'6', u'7', u'8', u'9  <br/>(Very willing to take risks)']]","[[u'1 <br/>(Completely unwilling to take risks)', u'2', u'3', u'4', u'5', u'6', u'7', u'8', u'9  <br/>(Very willing to take risks)']]","[[u'1 <br/>(Completely unwilling to take risks)', u'2', u'3', u'4', u'5', u'6', u'7', u'8', u'9  <br/>(Very willing to take risks)']]","[[u'1 <br/>(Completely unwilling to take risks)', u'2', u'3', u'4', u'5', u'6', u'7', u'8', u'9  <br/>(Very willing to take risks)']]","[[u'1 <br/>(Completely unwilling to take risks)', u'2', u'3', u'4', u'5', u'6', u'7', u'8', u'9  <br/>(Very willing to take risks)']]"
97,A6XBXQC3G59N8:3VP0C6EFSI3WXKQRF9ERIP60I906M0,1542248788838,1298.0,face-likert-amanda,,0.0-9.0-0.0-7.0,288087,97,"{""Q0"":4}",/static/images/2kfaces/Google_1_Eva Kirkman_15_oval.jpg,1,,,,"[[u'1 <br/>(Completely unwilling to take risks)', u'2', u'3', u'4', u'5', u'6', u'7', u'8', u'9  <br/>(Very willing to take risks)']]","[[u'1 <br/>(Completely unwilling to take risks)', u'2', u'3', u'4', u'5', u'6', u'7', u'8', u'9  <br/>(Very willing to take risks)']]","[[u'1 <br/>(Completely unwilling to take risks)', u'2', u'3', u'4', u'5', u'6', u'7', u'8', u'9  <br/>(Very willing to take risks)']]","[[u'1 <br/>(Completely unwilling to take risks)', u'2', u'3', u'4', u'5', u'6', u'7', u'8', u'9  <br/>(Very willing to take risks)']]","[[u'1 <br/>(Completely unwilling to take risks)', u'2', u'3', u'4', u'5', u'6', u'7', u'8', u'9  <br/>(Very willing to take risks)']]"
98,A6XBXQC3G59N8:3VP0C6EFSI3WXKQRF9ERIP60I906M0,1542248791006,2167.0,face-likert-amanda,,0.0-9.0-0.0-8.0,290255,98,"{""Q0"":3}",/static/images/2kfaces/Google_1_Carole Bentley_7_oval.jpg,1,,,,"[[u'1 <br/>(Completely unwilling to take risks)', u'2', u'3', u'4', u'5', u'6', u'7', u'8', u'9  <br/>(Very willing to take risks)']]","[[u'1 <br/>(Completely unwilling to take risks)', u'2', u'3', u'4', u'5', u'6', u'7', u'8', u'9  <br/>(Very willing to take risks)']]","[[u'1 <br/>(Completely unwilling to take risks)', u'2', u'3', u'4', u'5', u'6', u'7', u'8', u'9  <br/>(Very willing to take risks)']]","[[u'1 <br/>(Completely unwilling to take risks)', u'2', u'3', u'4', u'5', u'6', u'7', u'8', u'9  <br/>(Very willing to take risks)']]","[[u'1 <br/>(Completely unwilling to take risks)', u'2', u'3', u'4', u'5', u'6', u'7', u'8', u'9  <br/>(Very willing to take risks)']]"
99,A6XBXQC3G59N8:3VP0C6EFSI3WXKQRF9ERIP60I906M0,1542248792662,1655.0,face-likert-amanda,,0.0-9.0-0.0-9.0,291911,99,"{""Q0"":3}",/static/images/2kfaces/Google_1_Kenneth Cabral_19_oval.jpg,1,,,,"[[u'1 <br/>(Completely unwilling to take risks)', u'2', u'3', u'4', u'5', u'6', u'7', u'8', u'9  <br/>(Very willing to take risks)']]","[[u'1 <br/>(Completely unwilling to take risks)', u'2', u'3', u'4', u'5', u'6', u'7', u'8', u'9  <br/>(Very willing to take risks)']]","[[u'1 <br/>(Completely unwilling to take risks)', u'2', u'3', u'4', u'5', u'6', u'7', u'8', u'9  <br/>(Very willing to take risks)']]","[[u'1 <br/>(Completely unwilling to take risks)', u'2', u'3', u'4', u'5', u'6', u'7', u'8', u'9  <br/>(Very willing to take risks)']]","[[u'1 <br/>(Completely unwilling to take risks)', u'2', u'3', u'4', u'5', u'6', u'7', u'8', u'9  <br/>(Very willing to take risks)']]"
100,A6XBXQC3G59N8:3VP0C6EFSI3WXKQRF9ERIP60I906M0,1542248794267,1603.0,face-likert-amanda,,0.0-9.0-0.0-10.0,293516,100,"{""Q0"":3}",/static/images/2kfaces/Google_1_Frank Luke_9_oval.jpg,1,,,,"[[u'1 <br/>(Completely unwilling to take risks)', u'2', u'3', u'4', u'5', u'6', u'7', u'8', u'9  <br/>(Very willing to take risks)']]","[[u'1 <br/>(Completely unwilling to take risks)', u'2', u'3', u'4', u'5', u'6', u'7', u'8', u'9  <br/>(Very willing to take risks)']]","[[u'1 <br/>(Completely unwilling to take risks)', u'2', u'3', u'4', u'5', u'6', u'7', u'8', u'9  <br/>(Very willing to take risks)']]","[[u'1 <br/>(Completely unwilling to take risks)', u'2', u'3', u'4', u'5', u'6', u'7', u'8', u'9  <br/>(Very willing to take risks)']]","[[u'1 <br/>(Completely unwilling to take risks)', u'2', u'3', u'4', u'5', u'6', u'7', u'8', u'9  <br/>(Very willing to take risks)']]"
101,A6XBXQC3G59N8:3VP0C6EFSI3WXKQRF9ERIP60I906M0,1542248795983,1714.0,face-likert-amanda,,0.0-9.0-0.0-11.0,295232,101,"{""Q0"":2}",/static/images/2kfaces/Google_1_Donna Asberry_5_oval.jpg,1,,,,"[[u'1 <br/>(Completely unwilling to take risks)', u'2', u'3', u'4', u'5', u'6', u'7', u'8', u'9  <br/>(Very willing to take risks)']]","[[u'1 <br/>(Completely unwilling to take risks)', u'2', u'3', u'4', u'5', u'6', u'7', u'8', u'9  <br/>(Very willing to take risks)']]","[[u'1 <br/>(Completely unwilling to take risks)', u'2', u'3', u'4', u'5', u'6', u'7', u'8', u'9  <br/>(Very willing to take risks)']]","[[u'1 <br/>(Completely unwilling to take risks)', u'2', u'3', u'4', u'5', u'6', u'7', u'8', u'9  <br/>(Very willing to take risks)']]","[[u'1 <br/>(Completely unwilling to take risks)', u'2', u'3', u'4', u'5', u'6', u'7', u'8', u'9  <br/>(Very willing to take risks)']]"
102,A6XBXQC3G59N8:3VP0C6EFSI3WXKQRF9ERIP60I906M0,1542248797826,1842.0,face-likert-amanda,,0.0-9.0-0.0-12.0,297075,102,"{""Q0"":4}",/static/images/2kfaces/Google_1_Paul Reno_1_oval.jpg,1,,,,"[[u'1 <br/>(Completely unwilling to take risks)', u'2', u'3', u'4', u'5', u'6', u'7', u'8', u'9  <br/>(Very willing to take risks)']]","[[u'1 <br/>(Completely unwilling to take risks)', u'2', u'3', u'4', u'5', u'6', u'7', u'8', u'9  <br/>(Very willing to take risks)']]","[[u'1 <br/>(Completely unwilling to take risks)', u'2', u'3', u'4', u'5', u'6', u'7', u'8', u'9  <br/>(Very willing to take risks)']]","[[u'1 <br/>(Completely unwilling to take risks)', u'2', u'3', u'4', u'5', u'6', u'7', u'8', u'9  <br/>(Very willing to take risks)']]","[[u'1 <br/>(Completely unwilling to take risks)', u'2', u'3', u'4', u'5', u'6', u'7', u'8', u'9  <br/>(Very willing to take risks)']]"
103,A6XBXQC3G59N8:3VP0C6EFSI3WXKQRF9ERIP60I906M0,1542248799290,1461.0,face-likert-amanda,,0.0-9.0-0.0-13.0,298539,103,"{""Q0"":3}",/static/images/2kfaces/Google_1_Tina Middleton_7_oval.jpg,1,,,,"[[u'1 <br/>(Completely unwilling to take risks)', u'2', u'3', u'4', u'5', u'6', u'7', u'8', u'9  <br/>(Very willing to take risks)']]","[[u'1 <br/>(Completely unwilling to take risks)', u'2', u'3', u'4', u'5', u'6', u'7', u'8', u'9  <br/>(Very willing to take risks)']]","[[u'1 <br/>(Completely unwilling to take risks)', u'2', u'3', u'4', u'5', u'6', u'7', u'8', u'9  <br/>(Very willing to take risks)']]","[[u'1 <br/>(Completely unwilling to take risks)', u'2', u'3', u'4', u'5', u'6', u'7', u'8', u'9  <br/>(Very willing to take risks)']]","[[u'1 <br/>(Completely unwilling to take risks)', u'2', u'3', u'4', u'5', u'6', u'7', u'8', u'9  <br/>(Very willing to take risks)']]"
104,A6XBXQC3G59N8:3VP0C6EFSI3WXKQRF9ERIP60I906M0,1542248803498,4207.0,face-likert-amanda,,0.0-9.0-0.0-14.0,302747,104,"{""Q0"":4}",/static/images/2kfaces/Google_1_Andrew Diggs_9_oval.jpg,1,,,,"[[u'1 <br/>(Completely unwilling to take risks)', u'2', u'3', u'4', u'5', u'6', u'7', u'8', u'9  <br/>(Very willing to take risks)']]","[[u'1 <br/>(Completely unwilling to take risks)', u'2', u'3', u'4', u'5', u'6', u'7', u'8', u'9  <br/>(Very willing to take risks)']]","[[u'1 <br/>(Completely unwilling to take risks)', u'2', u'3', u'4', u'5', u'6', u'7', u'8', u'9  <br/>(Very willing to take risks)']]","[[u'1 <br/>(Completely unwilling to take risks)', u'2', u'3', u'4', u'5', u'6', u'7', u'8', u'9  <br/>(Very willing to take risks)']]","[[u'1 <br/>(Completely unwilling to take risks)', u'2', u'3', u'4', u'5', u'6', u'7', u'8', u'9  <br/>(Very willing to take risks)']]"
105,A6XBXQC3G59N8:3VP0C6EFSI3WXKQRF9ERIP60I906M0,1542248805221,1721.0,face-likert-amanda,,0.0-9.0-0.0-15.0,304470,105,"{""Q0"":5}",/static/images/2kfaces/Google_1_Wilma Allman_15_oval.jpg,1,,,,"[[u'1 <br/>(Completely unwilling to take risks)', u'2', u'3', u'4', u'5', u'6', u'7', u'8', u'9  <br/>(Very willing to take risks)']]","[[u'1 <br/>(Completely unwilling to take risks)', u'2', u'3', u'4', u'5', u'6', u'7', u'8', u'9  <br/>(Very willing to take risks)']]","[[u'1 <br/>(Completely unwilling to take risks)', u'2', u'3', u'4', u'5', u'6', u'7', u'8', u'9  <br/>(Very willing to take risks)']]","[[u'1 <br/>(Completely unwilling to take risks)', u'2', u'3', u'4', u'5', u'6', u'7', u'8', u'9  <br/>(Very willing to take risks)']]","[[u'1 <br/>(Completely unwilling to take risks)', u'2', u'3', u'4', u'5', u'6', u'7', u'8', u'9  <br/>(Very willing to take risks)']]"
106,A6XBXQC3G59N8:3VP0C6EFSI3WXKQRF9ERIP60I906M0,1542248807707,2485.0,face-likert-amanda,,0.0-9.0-0.0-16.0,306956,106,"{""Q0"":5}",/static/images/2kfaces/Google_1_Louis Mceachern_7_oval.jpg,1,,,,"[[u'1 <br/>(Completely unwilling to take risks)', u'2', u'3', u'4', u'5', u'6', u'7', u'8', u'9  <br/>(Very willing to take risks)']]","[[u'1 <br/>(Completely unwilling to take risks)', u'2', u'3', u'4', u'5', u'6', u'7', u'8', u'9  <br/>(Very willing to take risks)']]","[[u'1 <br/>(Completely unwilling to take risks)', u'2', u'3', u'4', u'5', u'6', u'7', u'8', u'9  <br/>(Very willing to take risks)']]","[[u'1 <br/>(Completely unwilling to take risks)', u'2', u'3', u'4', u'5', u'6', u'7', u'8', u'9  <br/>(Very willing to take risks)']]","[[u'1 <br/>(Completely unwilling to take risks)', u'2', u'3', u'4', u'5', u'6', u'7', u'8', u'9  <br/>(Very willing to take risks)']]"
107,A6XBXQC3G59N8:3VP0C6EFSI3WXKQRF9ERIP60I906M0,1542248809717,2009.0,face-likert-amanda,,0.0-9.0-0.0-17.0,308966,107,"{""Q0"":4}",/static/images/2kfaces/Bryan_Shanklin_9_oval.jpg,1,,,,"[[u'1 <br/>(Completely unwilling to take risks)', u'2', u'3', u'4', u'5', u'6', u'7', u'8', u'9  <br/>(Very willing to take risks)']]","[[u'1 <br/>(Completely unwilling to take risks)', u'2', u'3', u'4', u'5', u'6', u'7', u'8', u'9  <br/>(Very willing to take risks)']]","[[u'1 <br/>(Completely unwilling to take risks)', u'2', u'3', u'4', u'5', u'6', u'7', u'8', u'9  <br/>(Very willing to take risks)']]","[[u'1 <br/>(Completely unwilling to take risks)', u'2', u'3', u'4', u'5', u'6', u'7', u'8', u'9  <br/>(Very willing to take risks)']]","[[u'1 <br/>(Completely unwilling to take risks)', u'2', u'3', u'4', u'5', u'6', u'7', u'8', u'9  <br/>(Very willing to take risks)']]"
108,A6XBXQC3G59N8:3VP0C6EFSI3WXKQRF9ERIP60I906M0,1542248811658,1940.0,face-likert-amanda,,0.0-9.0-0.0-18.0,310907,108,"{""Q0"":3}",/static/images/2kfaces/Google_1_Timothy Galvan_11_oval.jpg,1,,,,"[[u'1 <br/>(Completely unwilling to take risks)', u'2', u'3', u'4', u'5', u'6', u'7', u'8', u'9  <br/>(Very willing to take risks)']]","[[u'1 <br/>(Completely unwilling to take risks)', u'2', u'3', u'4', u'5', u'6', u'7', u'8', u'9  <br/>(Very willing to take risks)']]","[[u'1 <br/>(Completely unwilling to take risks)', u'2', u'3', u'4', u'5', u'6', u'7', u'8', u'9  <br/>(Very willing to take risks)']]","[[u'1 <br/>(Completely unwilling to take risks)', u'2', u'3', u'4', u'5', u'6', u'7', u'8', u'9  <br/>(Very willing to take risks)']]","[[u'1 <br/>(Completely unwilling to take risks)', u'2', u'3', u'4', u'5', u'6', u'7', u'8', u'9  <br/>(Very willing to take risks)']]"
109,A6XBXQC3G59N8:3VP0C6EFSI3WXKQRF9ERIP60I906M0,1542248813605,1947.0,face-likert-amanda,,0.0-9.0-0.0-19.0,312854,109,"{""Q0"":5}",/static/images/2kfaces/Google_1_Stephen Conley_1_oval.jpg,1,,,,"[[u'1 <br/>(Completely unwilling to take risks)', u'2', u'3', u'4', u'5', u'6', u'7', u'8', u'9  <br/>(Very willing to take risks)']]","[[u'1 <br/>(Completely unwilling to take risks)', u'2', u'3', u'4', u'5', u'6', u'7', u'8', u'9  <br/>(Very willing to take risks)']]","[[u'1 <br/>(Completely unwilling to take risks)', u'2', u'3', u'4', u'5', u'6', u'7', u'8', u'9  <br/>(Very willing to take risks)']]","[[u'1 <br/>(Completely unwilling to take risks)', u'2', u'3', u'4', u'5', u'6', u'7', u'8', u'9  <br/>(Very willing to take risks)']]","[[u'1 <br/>(Completely unwilling to take risks)', u'2', u'3', u'4', u'5', u'6', u'7', u'8', u'9  <br/>(Very willing to take risks)']]"
110,A6XBXQC3G59N8:3VP0C6EFSI3WXKQRF9ERIP60I906M0,1542248815551,1945.0,face-likert-amanda,,0.0-9.0-0.0-20.0,314800,110,"{""Q0"":5}",/static/images/2kfaces/Google_1_Douglas Tanguay_9_oval.jpg,1,,,,"[[u'1 <br/>(Completely unwilling to take risks)', u'2', u'3', u'4', u'5', u'6', u'7', u'8', u'9  <br/>(Very willing to take risks)']]","[[u'1 <br/>(Completely unwilling to take risks)', u'2', u'3', u'4', u'5', u'6', u'7', u'8', u'9  <br/>(Very willing to take risks)']]","[[u'1 <br/>(Completely unwilling to take risks)', u'2', u'3', u'4', u'5', u'6', u'7', u'8', u'9  <br/>(Very willing to take risks)']]","[[u'1 <br/>(Completely unwilling to take risks)', u'2', u'3', u'4', u'5', u'6', u'7', u'8', u'9  <br/>(Very willing to take risks)']]","[[u'1 <br/>(Completely unwilling to take risks)', u'2', u'3', u'4', u'5', u'6', u'7', u'8', u'9  <br/>(Very willing to take risks)']]"
111,A6XBXQC3G59N8:3VP0C6EFSI3WXKQRF9ERIP60I906M0,1542248817415,1863.0,face-likert-amanda,,0.0-9.0-0.0-21.0,316664,111,"{""Q0"":6}",/static/images/2kfaces/Google_1_Jonathan Marek_5_oval.jpg,1,,,,"[[u'1 <br/>(Completely unwilling to take risks)', u'2', u'3', u'4', u'5', u'6', u'7', u'8', u'9  <br/>(Very willing to take risks)']]","[[u'1 <br/>(Completely unwilling to take risks)', u'2', u'3', u'4', u'5', u'6', u'7', u'8', u'9  <br/>(Very willing to take risks)']]","[[u'1 <br/>(Completely unwilling to take risks)', u'2', u'3', u'4', u'5', u'6', u'7', u'8', u'9  <br/>(Very willing to take risks)']]","[[u'1 <br/>(Completely unwilling to take risks)', u'2', u'3', u'4', u'5', u'6', u'7', u'8', u'9  <br/>(Very willing to take risks)']]","[[u'1 <br/>(Completely unwilling to take risks)', u'2', u'3', u'4', u'5', u'6', u'7', u'8', u'9  <br/>(Very willing to take risks)']]"
112,A6XBXQC3G59N8:3VP0C6EFSI3WXKQRF9ERIP60I906M0,1542248820699,3283.0,face-likert-amanda,,0.0-9.0-0.0-22.0,319948,112,"{""Q0"":5}",/static/images/2kfaces/Google_1_Mark Detwiler_9_oval.jpg,1,,,,"[[u'1 <br/>(Completely unwilling to take risks)', u'2', u'3', u'4', u'5', u'6', u'7', u'8', u'9  <br/>(Very willing to take risks)']]","[[u'1 <br/>(Completely unwilling to take risks)', u'2', u'3', u'4', u'5', u'6', u'7', u'8', u'9  <br/>(Very willing to take risks)']]","[[u'1 <br/>(Completely unwilling to take risks)', u'2', u'3', u'4', u'5', u'6', u'7', u'8', u'9  <br/>(Very willing to take risks)']]","[[u'1 <br/>(Completely unwilling to take risks)', u'2', u'3', u'4', u'5', u'6', u'7', u'8', u'9  <br/>(Very willing to take risks)']]","[[u'1 <br/>(Completely unwilling to take risks)', u'2', u'3', u'4', u'5', u'6', u'7', u'8', u'9  <br/>(Very willing to take risks)']]"
113,A6XBXQC3G59N8:3VP0C6EFSI3WXKQRF9ERIP60I906M0,1542248822509,1808.0,face-likert-amanda,,0.0-9.0-0.0-23.0,321758,113,"{""Q0"":5}",/static/images/2kfaces/Google_1_Stanley Kato_17_oval.jpg,1,,,,"[[u'1 <br/>(Completely unwilling to take risks)', u'2', u'3', u'4', u'5', u'6', u'7', u'8', u'9  <br/>(Very willing to take risks)']]","[[u'1 <br/>(Completely unwilling to take risks)', u'2', u'3', u'4', u'5', u'6', u'7', u'8', u'9  <br/>(Very willing to take risks)']]","[[u'1 <br/>(Completely unwilling to take risks)', u'2', u'3', u'4', u'5', u'6', u'7', u'8', u'9  <br/>(Very willing to take risks)']]","[[u'1 <br/>(Completely unwilling to take risks)', u'2', u'3', u'4', u'5', u'6', u'7', u'8', u'9  <br/>(Very willing to take risks)']]","[[u'1 <br/>(Completely unwilling to take risks)', u'2', u'3', u'4', u'5', u'6', u'7', u'8', u'9  <br/>(Very willing to take risks)']]"
114,A6XBXQC3G59N8:3VP0C6EFSI3WXKQRF9ERIP60I906M0,1542248824647,2137.0,face-likert-amanda,,0.0-9.0-0.0-24.0,323896,114,"{""Q0"":3}",/static/images/2kfaces/Google_1_Sara Guajardo_1_oval.jpg,1,,,,"[[u'1 <br/>(Completely unwilling to take risks)', u'2', u'3', u'4', u'5', u'6', u'7', u'8', u'9  <br/>(Very willing to take risks)']]","[[u'1 <br/>(Completely unwilling to take risks)', u'2', u'3', u'4', u'5', u'6', u'7', u'8', u'9  <br/>(Very willing to take risks)']]","[[u'1 <br/>(Completely unwilling to take risks)', u'2', u'3', u'4', u'5', u'6', u'7', u'8', u'9  <br/>(Very willing to take risks)']]","[[u'1 <br/>(Completely unwilling to take risks)', u'2', u'3', u'4', u'5', u'6', u'7', u'8', u'9  <br/>(Very willing to take risks)']]","[[u'1 <br/>(Completely unwilling to take risks)', u'2', u'3', u'4', u'5', u'6', u'7', u'8', u'9  <br/>(Very willing to take risks)']]"
115,A6XBXQC3G59N8:3VP0C6EFSI3WXKQRF9ERIP60I906M0,1542248826323,1674.0,face-likert-amanda,,0.0-9.0-0.0-25.0,325572,115,"{""Q0"":4}",/static/images/2kfaces/Google_1_Sean Raleigh_7_oval.jpg,1,,,,"[[u'1 <br/>(Completely unwilling to take risks)', u'2', u'3', u'4', u'5', u'6', u'7', u'8', u'9  <br/>(Very willing to take risks)']]","[[u'1 <br/>(Completely unwilling to take risks)', u'2', u'3', u'4', u'5', u'6', u'7', u'8', u'9  <br/>(Very willing to take risks)']]","[[u'1 <br/>(Completely unwilling to take risks)', u'2', u'3', u'4', u'5', u'6', u'7', u'8', u'9  <br/>(Very willing to take risks)']]","[[u'1 <br/>(Completely unwilling to take risks)', u'2', u'3', u'4', u'5', u'6', u'7', u'8', u'9  <br/>(Very willing to take risks)']]","[[u'1 <br/>(Completely unwilling to take risks)', u'2', u'3', u'4', u'5', u'6', u'7', u'8', u'9  <br/>(Very willing to take risks)']]"
116,A6XBXQC3G59N8:3VP0C6EFSI3WXKQRF9ERIP60I906M0,1542248828101,1777.0,face-likert-amanda,,0.0-9.0-0.0-26.0,327350,116,"{""Q0"":5}",/static/images/2kfaces/Google_1_Florence Lott_19_oval.jpg,1,,,,"[[u'1 <br/>(Completely unwilling to take risks)', u'2', u'3', u'4', u'5', u'6', u'7', u'8', u'9  <br/>(Very willing to take risks)']]","[[u'1 <br/>(Completely unwilling to take risks)', u'2', u'3', u'4', u'5', u'6', u'7', u'8', u'9  <br/>(Very willing to take risks)']]","[[u'1 <br/>(Completely unwilling to take risks)', u'2', u'3', u'4', u'5', u'6', u'7', u'8', u'9  <br/>(Very willing to take risks)']]","[[u'1 <br/>(Completely unwilling to take risks)', u'2', u'3', u'4', u'5', u'6', u'7', u'8', u'9  <br/>(Very willing to take risks)']]","[[u'1 <br/>(Completely unwilling to take risks)', u'2', u'3', u'4', u'5', u'6', u'7', u'8', u'9  <br/>(Very willing to take risks)']]"
117,A6XBXQC3G59N8:3VP0C6EFSI3WXKQRF9ERIP60I906M0,1542248829639,1537.0,face-likert-amanda,,0.0-9.0-0.0-27.0,328887,117,"{""Q0"":6}",/static/images/2kfaces/Google_1_Rose Barlow_1_oval.jpg,1,,,,"[[u'1 <br/>(Completely unwilling to take risks)', u'2', u'3', u'4', u'5', u'6', u'7', u'8', u'9  <br/>(Very willing to take risks)']]","[[u'1 <br/>(Completely unwilling to take risks)', u'2', u'3', u'4', u'5', u'6', u'7', u'8', u'9  <br/>(Very willing to take risks)']]","[[u'1 <br/>(Completely unwilling to take risks)', u'2', u'3', u'4', u'5', u'6', u'7', u'8', u'9  <br/>(Very willing to take risks)']]","[[u'1 <br/>(Completely unwilling to take risks)', u'2', u'3', u'4', u'5', u'6', u'7', u'8', u'9  <br/>(Very willing to take risks)']]","[[u'1 <br/>(Completely unwilling to take risks)', u'2', u'3', u'4', u'5', u'6', u'7', u'8', u'9  <br/>(Very willing to take risks)']]"
118,A6XBXQC3G59N8:3VP0C6EFSI3WXKQRF9ERIP60I906M0,1542248831694,2054.0,face-likert-amanda,,0.0-9.0-0.0-28.0,330943,118,"{""Q0"":2}",/static/images/2kfaces/Google_1_Charlotte Dearborn_13_oval.jpg,1,,,,"[[u'1 <br/>(Completely unwilling to take risks)', u'2', u'3', u'4', u'5', u'6', u'7', u'8', u'9  <br/>(Very willing to take risks)']]","[[u'1 <br/>(Completely unwilling to take risks)', u'2', u'3', u'4', u'5', u'6', u'7', u'8', u'9  <br/>(Very willing to take risks)']]","[[u'1 <br/>(Completely unwilling to take risks)', u'2', u'3', u'4', u'5', u'6', u'7', u'8', u'9  <br/>(Very willing to take risks)']]","[[u'1 <br/>(Completely unwilling to take risks)', u'2', u'3', u'4', u'5', u'6', u'7', u'8', u'9  <br/>(Very willing to take risks)']]","[[u'1 <br/>(Completely unwilling to take risks)', u'2', u'3', u'4', u'5', u'6', u'7', u'8', u'9  <br/>(Very willing to take risks)']]"
119,A6XBXQC3G59N8:3VP0C6EFSI3WXKQRF9ERIP60I906M0,1542248833133,1436.0,face-likert-amanda,,0.0-9.0-0.0-29.0,332382,119,"{""Q0"":4}",/static/images/2kfaces/Google_1_Valerie Noble_9_oval.jpg,1,,,,"[[u'1 <br/>(Completely unwilling to take risks)', u'2', u'3', u'4', u'5', u'6', u'7', u'8', u'9  <br/>(Very willing to take risks)']]","[[u'1 <br/>(Completely unwilling to take risks)', u'2', u'3', u'4', u'5', u'6', u'7', u'8', u'9  <br/>(Very willing to take risks)']]","[[u'1 <br/>(Completely unwilling to take risks)', u'2', u'3', u'4', u'5', u'6', u'7', u'8', u'9  <br/>(Very willing to take risks)']]","[[u'1 <br/>(Completely unwilling to take risks)', u'2', u'3', u'4', u'5', u'6', u'7', u'8', u'9  <br/>(Very willing to take risks)']]","[[u'1 <br/>(Completely unwilling to take risks)', u'2', u'3', u'4', u'5', u'6', u'7', u'8', u'9  <br/>(Very willing to take risks)']]"
