,subId,rt,imgName,rating,trial_index,debug_mode
0,A2JBCLJVJ2VXVZ:3N1FSUEFL77FE3G0JSM8O611TSA4D9,8353,136248_0.446969696969697.png,6,2,live
1,A2JBCLJVJ2VXVZ:3N1FSUEFL77FE3G0JSM8O611TSA4D9,5196,136242_0.3560606060606062.png,8,3,live
2,A2JBCLJVJ2VXVZ:3N1FSUEFL77FE3G0JSM8O611TSA4D9,2925,136206_-0.18939393939393934.png,6,4,live
3,A2JBCLJVJ2VXVZ:3N1FSUEFL77FE3G0JSM8O611TSA4D9,3333,136187_-0.4772727272727273.png,7,5,live
4,A2JBCLJVJ2VXVZ:3N1FSUEFL77FE3G0JSM8O611TSA4D9,29253,136190_-0.4318181818181818.png,5,6,live
5,A2JBCLJVJ2VXVZ:3N1FSUEFL77FE3G0JSM8O611TSA4D9,3996,136194_-0.3712121212121212.png,4,7,live
6,A2JBCLJVJ2VXVZ:3N1FSUEFL77FE3G0JSM8O611TSA4D9,4801,136177_-0.6287878787878788.png,3,8,live
7,A2JBCLJVJ2VXVZ:3N1FSUEFL77FE3G0JSM8O611TSA4D9,3628,136263_0.6742424242424243.png,6,9,live
8,A2JBCLJVJ2VXVZ:3N1FSUEFL77FE3G0JSM8O611TSA4D9,3646,136185_-0.5075757575757576.png,8,10,live
9,A2JBCLJVJ2VXVZ:3N1FSUEFL77FE3G0JSM8O611TSA4D9,3942,136216_-0.037878787878787845.png,6,11,live
10,A2JBCLJVJ2VXVZ:3N1FSUEFL77FE3G0JSM8O611TSA4D9,4066,136200_-0.2803030303030303.png,8,13,live
11,A2JBCLJVJ2VXVZ:3N1FSUEFL77FE3G0JSM8O611TSA4D9,3086,136218_-0.007575757575757569.png,7,14,live
12,A2JBCLJVJ2VXVZ:3N1FSUEFL77FE3G0JSM8O611TSA4D9,4350,136266_0.7196969696969697.png,7,15,live
13,A2JBCLJVJ2VXVZ:3N1FSUEFL77FE3G0JSM8O611TSA4D9,9027,136261_0.643939393939394.png,5,16,live
14,A2JBCLJVJ2VXVZ:3N1FSUEFL77FE3G0JSM8O611TSA4D9,8556,136259_0.6136363636363638.png,9,17,live
15,A2JBCLJVJ2VXVZ:3N1FSUEFL77FE3G0JSM8O611TSA4D9,4013,136215_-0.05303030303030298.png,6,18,live
16,A2JBCLJVJ2VXVZ:3N1FSUEFL77FE3G0JSM8O611TSA4D9,4214,136201_-0.26515151515151514.png,3,19,live
17,A2JBCLJVJ2VXVZ:3N1FSUEFL77FE3G0JSM8O611TSA4D9,20799,136181_-0.5681818181818181.png,3,20,live
18,A2JBCLJVJ2VXVZ:3N1FSUEFL77FE3G0JSM8O611TSA4D9,4014,136220_0.022727272727272707.png,8,21,live
19,A2JBCLJVJ2VXVZ:3N1FSUEFL77FE3G0JSM8O611TSA4D9,2877,136246_0.41666666666666674.png,9,22,live
20,A2JBCLJVJ2VXVZ:3N1FSUEFL77FE3G0JSM8O611TSA4D9,3359,136238_0.2954545454545454.png,7,24,live
21,A2JBCLJVJ2VXVZ:3N1FSUEFL77FE3G0JSM8O611TSA4D9,2750,136203_-0.23484848484848486.png,8,25,live
22,A2JBCLJVJ2VXVZ:3N1FSUEFL77FE3G0JSM8O611TSA4D9,27837,136204_-0.21969696969696972.png,6,26,live
23,A2JBCLJVJ2VXVZ:3N1FSUEFL77FE3G0JSM8O611TSA4D9,4156,136175_-0.6590909090909091.png,7,27,live
24,A2JBCLJVJ2VXVZ:3N1FSUEFL77FE3G0JSM8O611TSA4D9,4077,136244_0.38636363636363646.png,6,28,live
25,A2JBCLJVJ2VXVZ:3N1FSUEFL77FE3G0JSM8O611TSA4D9,42517,136189_-0.44696969696969696.png,9,29,live
26,A2JBCLJVJ2VXVZ:3N1FSUEFL77FE3G0JSM8O611TSA4D9,3341,136262_0.6590909090909092.png,9,30,live
27,A2JBCLJVJ2VXVZ:3N1FSUEFL77FE3G0JSM8O611TSA4D9,4629,136197_-0.32575757575757575.png,9,31,live
28,A2JBCLJVJ2VXVZ:3N1FSUEFL77FE3G0JSM8O611TSA4D9,3309,136241_0.34090909090909083.png,9,32,live
29,A2JBCLJVJ2VXVZ:3N1FSUEFL77FE3G0JSM8O611TSA4D9,4085,136193_-0.38636363636363635.png,9,33,live
30,A2JBCLJVJ2VXVZ:3N1FSUEFL77FE3G0JSM8O611TSA4D9,6059,136230_0.1742424242424243.png,9,35,live
31,A2JBCLJVJ2VXVZ:3N1FSUEFL77FE3G0JSM8O611TSA4D9,2838,136205_-0.20454545454545459.png,8,36,live
32,A2JBCLJVJ2VXVZ:3N1FSUEFL77FE3G0JSM8O611TSA4D9,2375,136252_0.5075757575757576.png,9,37,live
33,A2JBCLJVJ2VXVZ:3N1FSUEFL77FE3G0JSM8O611TSA4D9,3012,136211_-0.11363636363636365.png,8,38,live
34,A2JBCLJVJ2VXVZ:3N1FSUEFL77FE3G0JSM8O611TSA4D9,5373,136176_-0.6439393939393939.png,9,39,live
35,A2JBCLJVJ2VXVZ:3N1FSUEFL77FE3G0JSM8O611TSA4D9,3269,136265_0.7045454545454546.png,8,40,live
36,A2JBCLJVJ2VXVZ:3N1FSUEFL77FE3G0JSM8O611TSA4D9,2972,136201_-0.26515151515151514.png,9,41,live
37,A2JBCLJVJ2VXVZ:3N1FSUEFL77FE3G0JSM8O611TSA4D9,2910,136172_-0.7045454545454546.png,8,42,live
38,A2JBCLJVJ2VXVZ:3N1FSUEFL77FE3G0JSM8O611TSA4D9,4204,136243_0.3712121212121213.png,9,43,live
39,A2JBCLJVJ2VXVZ:3N1FSUEFL77FE3G0JSM8O611TSA4D9,3109,136253_0.5227272727272727.png,8,44,live
40,A2JBCLJVJ2VXVZ:3N1FSUEFL77FE3G0JSM8O611TSA4D9,3803,136232_0.20454545454545459.png,8,46,live
41,A2JBCLJVJ2VXVZ:3N1FSUEFL77FE3G0JSM8O611TSA4D9,3253,136176_-0.6439393939393939.png,8,47,live
42,A2JBCLJVJ2VXVZ:3N1FSUEFL77FE3G0JSM8O611TSA4D9,4773,136222_0.053030303030303094.png,8,48,live
43,A2JBCLJVJ2VXVZ:3N1FSUEFL77FE3G0JSM8O611TSA4D9,3773,136182_-0.553030303030303.png,9,49,live
44,A2JBCLJVJ2VXVZ:3N1FSUEFL77FE3G0JSM8O611TSA4D9,3301,136243_0.3712121212121213.png,9,50,live
45,A2JBCLJVJ2VXVZ:3N1FSUEFL77FE3G0JSM8O611TSA4D9,3070,136223_0.06818181818181823.png,9,51,live
46,A2JBCLJVJ2VXVZ:3N1FSUEFL77FE3G0JSM8O611TSA4D9,3380,136234_0.23484848484848486.png,8,52,live
47,A2JBCLJVJ2VXVZ:3N1FSUEFL77FE3G0JSM8O611TSA4D9,3918,136217_-0.022727272727272707.png,8,53,live
48,A2JBCLJVJ2VXVZ:3N1FSUEFL77FE3G0JSM8O611TSA4D9,2542,136202_-0.25.png,9,54,live
49,A2JBCLJVJ2VXVZ:3N1FSUEFL77FE3G0JSM8O611TSA4D9,4462,136228_0.14393939393939392.png,9,55,live
50,A2JBCLJVJ2VXVZ:3N1FSUEFL77FE3G0JSM8O611TSA4D9,3798,136212_-0.09848484848484851.png,9,57,live
51,A2JBCLJVJ2VXVZ:3N1FSUEFL77FE3G0JSM8O611TSA4D9,4662,136170_-0.7348484848484849.png,9,58,live
52,A2JBCLJVJ2VXVZ:3N1FSUEFL77FE3G0JSM8O611TSA4D9,2789,136225_0.09848484848484851.png,9,59,live
53,A2JBCLJVJ2VXVZ:3N1FSUEFL77FE3G0JSM8O611TSA4D9,3405,136231_0.18939393939393945.png,9,60,live
54,A2JBCLJVJ2VXVZ:3N1FSUEFL77FE3G0JSM8O611TSA4D9,2372,136232_0.20454545454545459.png,8,61,live
55,A2JBCLJVJ2VXVZ:3N1FSUEFL77FE3G0JSM8O611TSA4D9,2157,136250_0.4772727272727273.png,9,62,live
56,A2JBCLJVJ2VXVZ:3N1FSUEFL77FE3G0JSM8O611TSA4D9,2317,136179_-0.5984848484848485.png,9,63,live
57,A2JBCLJVJ2VXVZ:3N1FSUEFL77FE3G0JSM8O611TSA4D9,2981,136209_-0.14393939393939392.png,9,64,live
58,A2JBCLJVJ2VXVZ:3N1FSUEFL77FE3G0JSM8O611TSA4D9,3661,136246_0.41666666666666674.png,9,65,live
59,A2JBCLJVJ2VXVZ:3N1FSUEFL77FE3G0JSM8O611TSA4D9,2037,136221_0.037878787878787845.png,9,66,live
60,A2JBCLJVJ2VXVZ:3N1FSUEFL77FE3G0JSM8O611TSA4D9,5264,136190_-0.4318181818181818.png,9,68,live
61,A2JBCLJVJ2VXVZ:3N1FSUEFL77FE3G0JSM8O611TSA4D9,4090,136224_0.08333333333333337.png,9,69,live
62,A2JBCLJVJ2VXVZ:3N1FSUEFL77FE3G0JSM8O611TSA4D9,3702,136189_-0.44696969696969696.png,9,70,live
63,A2JBCLJVJ2VXVZ:3N1FSUEFL77FE3G0JSM8O611TSA4D9,3061,136249_0.46212121212121215.png,9,71,live
64,A2JBCLJVJ2VXVZ:3N1FSUEFL77FE3G0JSM8O611TSA4D9,15038,136179_-0.5984848484848485.png,9,72,live
65,A2JBCLJVJ2VXVZ:3N1FSUEFL77FE3G0JSM8O611TSA4D9,5605,136264_0.6893939393939394.png,9,73,live
66,A2JBCLJVJ2VXVZ:3N1FSUEFL77FE3G0JSM8O611TSA4D9,2669,136172_-0.7045454545454546.png,9,74,live
67,A2JBCLJVJ2VXVZ:3N1FSUEFL77FE3G0JSM8O611TSA4D9,3549,136213_-0.08333333333333326.png,9,75,live
68,A2JBCLJVJ2VXVZ:3N1FSUEFL77FE3G0JSM8O611TSA4D9,3756,136267_0.7348484848484849.png,9,76,live
69,A2JBCLJVJ2VXVZ:3N1FSUEFL77FE3G0JSM8O611TSA4D9,2636,136222_0.053030303030303094.png,8,77,live
70,A2JBCLJVJ2VXVZ:3N1FSUEFL77FE3G0JSM8O611TSA4D9,3015,136215_-0.05303030303030298.png,9,79,live
71,A2JBCLJVJ2VXVZ:3N1FSUEFL77FE3G0JSM8O611TSA4D9,2412,136221_0.037878787878787845.png,9,80,live
72,A2JBCLJVJ2VXVZ:3N1FSUEFL77FE3G0JSM8O611TSA4D9,2524,136239_0.31060606060606055.png,9,81,live
73,A2JBCLJVJ2VXVZ:3N1FSUEFL77FE3G0JSM8O611TSA4D9,2437,136256_0.5681818181818181.png,9,82,live
74,A2JBCLJVJ2VXVZ:3N1FSUEFL77FE3G0JSM8O611TSA4D9,2629,136178_-0.6136363636363636.png,9,83,live
75,A2JBCLJVJ2VXVZ:3N1FSUEFL77FE3G0JSM8O611TSA4D9,2869,136260_0.6287878787878789.png,9,84,live
76,A2JBCLJVJ2VXVZ:3N1FSUEFL77FE3G0JSM8O611TSA4D9,3227,136195_-0.3560606060606061.png,9,85,live
77,A2JBCLJVJ2VXVZ:3N1FSUEFL77FE3G0JSM8O611TSA4D9,3371,136259_0.6136363636363638.png,9,86,live
78,A2JBCLJVJ2VXVZ:3N1FSUEFL77FE3G0JSM8O611TSA4D9,3475,136192_-0.4015151515151515.png,9,87,live
79,A2JBCLJVJ2VXVZ:3N1FSUEFL77FE3G0JSM8O611TSA4D9,2461,136240_0.3257575757575757.png,9,88,live
80,A2JBCLJVJ2VXVZ:3N1FSUEFL77FE3G0JSM8O611TSA4D9,4816,136198_-0.3106060606060606.png,9,90,live
81,A2JBCLJVJ2VXVZ:3N1FSUEFL77FE3G0JSM8O611TSA4D9,2988,136254_0.5378787878787878.png,9,91,live
82,A2JBCLJVJ2VXVZ:3N1FSUEFL77FE3G0JSM8O611TSA4D9,3348,136180_-0.5833333333333333.png,9,92,live
83,A2JBCLJVJ2VXVZ:3N1FSUEFL77FE3G0JSM8O611TSA4D9,5094,136196_-0.3409090909090909.png,9,93,live
84,A2JBCLJVJ2VXVZ:3N1FSUEFL77FE3G0JSM8O611TSA4D9,3429,136188_-0.4621212121212121.png,8,94,live
85,A2JBCLJVJ2VXVZ:3N1FSUEFL77FE3G0JSM8O611TSA4D9,2878,136226_0.11363636363636365.png,9,95,live
86,A2JBCLJVJ2VXVZ:3N1FSUEFL77FE3G0JSM8O611TSA4D9,3357,136174_-0.6742424242424242.png,9,96,live
87,A2JBCLJVJ2VXVZ:3N1FSUEFL77FE3G0JSM8O611TSA4D9,2701,136223_0.06818181818181823.png,9,97,live
88,A2JBCLJVJ2VXVZ:3N1FSUEFL77FE3G0JSM8O611TSA4D9,2916,136219_0.007575757575757569.png,9,98,live
89,A2JBCLJVJ2VXVZ:3N1FSUEFL77FE3G0JSM8O611TSA4D9,2637,136204_-0.21969696969696972.png,9,99,live
90,A2JBCLJVJ2VXVZ:3N1FSUEFL77FE3G0JSM8O611TSA4D9,4713,136224_0.08333333333333337.png,9,101,live
91,A2JBCLJVJ2VXVZ:3N1FSUEFL77FE3G0JSM8O611TSA4D9,3028,136169_-0.75.png,9,102,live
92,A2JBCLJVJ2VXVZ:3N1FSUEFL77FE3G0JSM8O611TSA4D9,3125,136245_0.4015151515151516.png,9,103,live
93,A2JBCLJVJ2VXVZ:3N1FSUEFL77FE3G0JSM8O611TSA4D9,3469,136199_-0.2954545454545454.png,9,104,live
94,A2JBCLJVJ2VXVZ:3N1FSUEFL77FE3G0JSM8O611TSA4D9,3205,136197_-0.32575757575757575.png,9,105,live
95,A2JBCLJVJ2VXVZ:3N1FSUEFL77FE3G0JSM8O611TSA4D9,4230,136183_-0.5378787878787878.png,9,106,live
96,A2JBCLJVJ2VXVZ:3N1FSUEFL77FE3G0JSM8O611TSA4D9,2214,136184_-0.5227272727272727.png,9,107,live
97,A2JBCLJVJ2VXVZ:3N1FSUEFL77FE3G0JSM8O611TSA4D9,1908,136187_-0.4772727272727273.png,9,108,live
98,A2JBCLJVJ2VXVZ:3N1FSUEFL77FE3G0JSM8O611TSA4D9,2365,136178_-0.6136363636363636.png,9,109,live
99,A2JBCLJVJ2VXVZ:3N1FSUEFL77FE3G0JSM8O611TSA4D9,2484,136218_-0.007575757575757569.png,9,110,live
100,A2B0P5J56MW4V9:382M9COHEJMJN7OFUTOA7SHGSHZEUZ,7633,136256_0.5681818181818181.png,6,2,live
101,A2B0P5J56MW4V9:382M9COHEJMJN7OFUTOA7SHGSHZEUZ,3642,136205_-0.20454545454545459.png,6,3,live
102,A2B0P5J56MW4V9:382M9COHEJMJN7OFUTOA7SHGSHZEUZ,4425,136174_-0.6742424242424242.png,6,4,live
103,A2B0P5J56MW4V9:382M9COHEJMJN7OFUTOA7SHGSHZEUZ,3506,136179_-0.5984848484848485.png,7,5,live
104,A2B0P5J56MW4V9:382M9COHEJMJN7OFUTOA7SHGSHZEUZ,3601,136232_0.20454545454545459.png,3,6,live
105,A2B0P5J56MW4V9:382M9COHEJMJN7OFUTOA7SHGSHZEUZ,3367,136190_-0.4318181818181818.png,7,7,live
106,A2B0P5J56MW4V9:382M9COHEJMJN7OFUTOA7SHGSHZEUZ,3104,136198_-0.3106060606060606.png,3,8,live
107,A2B0P5J56MW4V9:382M9COHEJMJN7OFUTOA7SHGSHZEUZ,2922,136222_0.053030303030303094.png,3,9,live
108,A2B0P5J56MW4V9:382M9COHEJMJN7OFUTOA7SHGSHZEUZ,2800,136172_-0.7045454545454546.png,7,10,live
109,A2B0P5J56MW4V9:382M9COHEJMJN7OFUTOA7SHGSHZEUZ,3177,136185_-0.5075757575757576.png,7,11,live
110,A2B0P5J56MW4V9:382M9COHEJMJN7OFUTOA7SHGSHZEUZ,3511,136193_-0.38636363636363635.png,7,13,live
111,A2B0P5J56MW4V9:382M9COHEJMJN7OFUTOA7SHGSHZEUZ,3097,136201_-0.26515151515151514.png,6,14,live
112,A2B0P5J56MW4V9:382M9COHEJMJN7OFUTOA7SHGSHZEUZ,3159,136192_-0.4015151515151515.png,7,15,live
113,A2B0P5J56MW4V9:382M9COHEJMJN7OFUTOA7SHGSHZEUZ,6207,136183_-0.5378787878787878.png,7,16,live
114,A2B0P5J56MW4V9:382M9COHEJMJN7OFUTOA7SHGSHZEUZ,4879,136216_-0.037878787878787845.png,3,17,live
115,A2B0P5J56MW4V9:382M9COHEJMJN7OFUTOA7SHGSHZEUZ,2585,136240_0.3257575757575757.png,7,18,live
116,A2B0P5J56MW4V9:382M9COHEJMJN7OFUTOA7SHGSHZEUZ,3008,136230_0.1742424242424243.png,7,19,live
117,A2B0P5J56MW4V9:382M9COHEJMJN7OFUTOA7SHGSHZEUZ,3215,136224_0.08333333333333337.png,7,20,live
118,A2B0P5J56MW4V9:382M9COHEJMJN7OFUTOA7SHGSHZEUZ,3111,136179_-0.5984848484848485.png,7,21,live
119,A2B0P5J56MW4V9:382M9COHEJMJN7OFUTOA7SHGSHZEUZ,2010,136224_0.08333333333333337.png,7,22,live
120,A2B0P5J56MW4V9:382M9COHEJMJN7OFUTOA7SHGSHZEUZ,3564,136212_-0.09848484848484851.png,7,24,live
121,A2B0P5J56MW4V9:382M9COHEJMJN7OFUTOA7SHGSHZEUZ,3346,136223_0.06818181818181823.png,7,25,live
122,A2B0P5J56MW4V9:382M9COHEJMJN7OFUTOA7SHGSHZEUZ,2994,136180_-0.5833333333333333.png,7,26,live
123,A2B0P5J56MW4V9:382M9COHEJMJN7OFUTOA7SHGSHZEUZ,2866,136206_-0.18939393939393934.png,7,27,live
124,A2B0P5J56MW4V9:382M9COHEJMJN7OFUTOA7SHGSHZEUZ,3681,136177_-0.6287878787878788.png,3,28,live
125,A2B0P5J56MW4V9:382M9COHEJMJN7OFUTOA7SHGSHZEUZ,2864,136218_-0.007575757575757569.png,7,29,live
126,A2B0P5J56MW4V9:382M9COHEJMJN7OFUTOA7SHGSHZEUZ,2907,136232_0.20454545454545459.png,3,30,live
127,A2B0P5J56MW4V9:382M9COHEJMJN7OFUTOA7SHGSHZEUZ,3665,136170_-0.7348484848484849.png,7,31,live
128,A2B0P5J56MW4V9:382M9COHEJMJN7OFUTOA7SHGSHZEUZ,6715,136189_-0.44696969696969696.png,6,32,live
129,A2B0P5J56MW4V9:382M9COHEJMJN7OFUTOA7SHGSHZEUZ,5763,136201_-0.26515151515151514.png,6,33,live
130,A2B0P5J56MW4V9:382M9COHEJMJN7OFUTOA7SHGSHZEUZ,6423,136211_-0.11363636363636365.png,6,35,live
131,A2B0P5J56MW4V9:382M9COHEJMJN7OFUTOA7SHGSHZEUZ,3569,136248_0.446969696969697.png,7,36,live
132,A2B0P5J56MW4V9:382M9COHEJMJN7OFUTOA7SHGSHZEUZ,3681,136260_0.6287878787878789.png,3,37,live
133,A2B0P5J56MW4V9:382M9COHEJMJN7OFUTOA7SHGSHZEUZ,3050,136262_0.6590909090909092.png,7,38,live
134,A2B0P5J56MW4V9:382M9COHEJMJN7OFUTOA7SHGSHZEUZ,3177,136182_-0.553030303030303.png,3,39,live
135,A2B0P5J56MW4V9:382M9COHEJMJN7OFUTOA7SHGSHZEUZ,3600,136176_-0.6439393939393939.png,6,40,live
136,A2B0P5J56MW4V9:382M9COHEJMJN7OFUTOA7SHGSHZEUZ,3648,136263_0.6742424242424243.png,3,41,live
137,A2B0P5J56MW4V9:382M9COHEJMJN7OFUTOA7SHGSHZEUZ,2881,136178_-0.6136363636363636.png,7,42,live
138,A2B0P5J56MW4V9:382M9COHEJMJN7OFUTOA7SHGSHZEUZ,2978,136184_-0.5227272727272727.png,7,43,live
139,A2B0P5J56MW4V9:382M9COHEJMJN7OFUTOA7SHGSHZEUZ,4106,136264_0.6893939393939394.png,6,44,live
140,A2B0P5J56MW4V9:382M9COHEJMJN7OFUTOA7SHGSHZEUZ,3077,136188_-0.4621212121212121.png,6,46,live
141,A2B0P5J56MW4V9:382M9COHEJMJN7OFUTOA7SHGSHZEUZ,3361,136187_-0.4772727272727273.png,3,47,live
142,A2B0P5J56MW4V9:382M9COHEJMJN7OFUTOA7SHGSHZEUZ,3842,136209_-0.14393939393939392.png,7,48,live
143,A2B0P5J56MW4V9:382M9COHEJMJN7OFUTOA7SHGSHZEUZ,3953,136234_0.23484848484848486.png,7,49,live
144,A2B0P5J56MW4V9:382M9COHEJMJN7OFUTOA7SHGSHZEUZ,2621,136203_-0.23484848484848486.png,3,50,live
145,A2B0P5J56MW4V9:382M9COHEJMJN7OFUTOA7SHGSHZEUZ,2817,136254_0.5378787878787878.png,7,51,live
146,A2B0P5J56MW4V9:382M9COHEJMJN7OFUTOA7SHGSHZEUZ,2938,136215_-0.05303030303030298.png,7,52,live
147,A2B0P5J56MW4V9:382M9COHEJMJN7OFUTOA7SHGSHZEUZ,2342,136218_-0.007575757575757569.png,7,53,live
148,A2B0P5J56MW4V9:382M9COHEJMJN7OFUTOA7SHGSHZEUZ,2632,136190_-0.4318181818181818.png,7,54,live
149,A2B0P5J56MW4V9:382M9COHEJMJN7OFUTOA7SHGSHZEUZ,3215,136239_0.31060606060606055.png,7,55,live
150,A2B0P5J56MW4V9:382M9COHEJMJN7OFUTOA7SHGSHZEUZ,3137,136181_-0.5681818181818181.png,3,57,live
151,A2B0P5J56MW4V9:382M9COHEJMJN7OFUTOA7SHGSHZEUZ,5266,136242_0.3560606060606062.png,7,58,live
152,A2B0P5J56MW4V9:382M9COHEJMJN7OFUTOA7SHGSHZEUZ,5033,136217_-0.022727272727272707.png,7,59,live
153,A2B0P5J56MW4V9:382M9COHEJMJN7OFUTOA7SHGSHZEUZ,4362,136231_0.18939393939393945.png,6,60,live
154,A2B0P5J56MW4V9:382M9COHEJMJN7OFUTOA7SHGSHZEUZ,3126,136253_0.5227272727272727.png,6,61,live
155,A2B0P5J56MW4V9:382M9COHEJMJN7OFUTOA7SHGSHZEUZ,3259,136221_0.037878787878787845.png,7,62,live
156,A2B0P5J56MW4V9:382M9COHEJMJN7OFUTOA7SHGSHZEUZ,3282,136228_0.14393939393939392.png,6,63,live
157,A2B0P5J56MW4V9:382M9COHEJMJN7OFUTOA7SHGSHZEUZ,2698,136259_0.6136363636363638.png,7,64,live
158,A2B0P5J56MW4V9:382M9COHEJMJN7OFUTOA7SHGSHZEUZ,2705,136245_0.4015151515151516.png,7,65,live
159,A2B0P5J56MW4V9:382M9COHEJMJN7OFUTOA7SHGSHZEUZ,2346,136176_-0.6439393939393939.png,6,66,live
160,A2B0P5J56MW4V9:382M9COHEJMJN7OFUTOA7SHGSHZEUZ,2735,136265_0.7045454545454546.png,7,68,live
161,A2B0P5J56MW4V9:382M9COHEJMJN7OFUTOA7SHGSHZEUZ,3273,136250_0.4772727272727273.png,3,69,live
162,A2B0P5J56MW4V9:382M9COHEJMJN7OFUTOA7SHGSHZEUZ,3338,136187_-0.4772727272727273.png,3,70,live
163,A2B0P5J56MW4V9:382M9COHEJMJN7OFUTOA7SHGSHZEUZ,2767,136244_0.38636363636363646.png,7,71,live
164,A2B0P5J56MW4V9:382M9COHEJMJN7OFUTOA7SHGSHZEUZ,3288,136195_-0.3560606060606061.png,6,72,live
165,A2B0P5J56MW4V9:382M9COHEJMJN7OFUTOA7SHGSHZEUZ,2640,136246_0.41666666666666674.png,7,73,live
166,A2B0P5J56MW4V9:382M9COHEJMJN7OFUTOA7SHGSHZEUZ,3336,136200_-0.2803030303030303.png,7,74,live
167,A2B0P5J56MW4V9:382M9COHEJMJN7OFUTOA7SHGSHZEUZ,3264,136252_0.5075757575757576.png,7,75,live
168,A2B0P5J56MW4V9:382M9COHEJMJN7OFUTOA7SHGSHZEUZ,3799,136196_-0.3409090909090909.png,7,76,live
169,A2B0P5J56MW4V9:382M9COHEJMJN7OFUTOA7SHGSHZEUZ,3024,136243_0.3712121212121213.png,3,77,live
170,A2B0P5J56MW4V9:382M9COHEJMJN7OFUTOA7SHGSHZEUZ,3473,136226_0.11363636363636365.png,3,79,live
171,A2B0P5J56MW4V9:382M9COHEJMJN7OFUTOA7SHGSHZEUZ,4072,136204_-0.21969696969696972.png,7,80,live
172,A2B0P5J56MW4V9:382M9COHEJMJN7OFUTOA7SHGSHZEUZ,2207,136189_-0.44696969696969696.png,6,81,live
173,A2B0P5J56MW4V9:382M9COHEJMJN7OFUTOA7SHGSHZEUZ,3096,136202_-0.25.png,6,82,live
174,A2B0P5J56MW4V9:382M9COHEJMJN7OFUTOA7SHGSHZEUZ,2801,136246_0.41666666666666674.png,7,83,live
175,A2B0P5J56MW4V9:382M9COHEJMJN7OFUTOA7SHGSHZEUZ,3313,136261_0.643939393939394.png,7,84,live
176,A2B0P5J56MW4V9:382M9COHEJMJN7OFUTOA7SHGSHZEUZ,4856,136241_0.34090909090909083.png,7,85,live
177,A2B0P5J56MW4V9:382M9COHEJMJN7OFUTOA7SHGSHZEUZ,2873,136175_-0.6590909090909091.png,7,86,live
178,A2B0P5J56MW4V9:382M9COHEJMJN7OFUTOA7SHGSHZEUZ,3553,136225_0.09848484848484851.png,6,87,live
179,A2B0P5J56MW4V9:382M9COHEJMJN7OFUTOA7SHGSHZEUZ,3240,136169_-0.75.png,7,88,live
180,A2B0P5J56MW4V9:382M9COHEJMJN7OFUTOA7SHGSHZEUZ,3507,136238_0.2954545454545454.png,6,90,live
181,A2B0P5J56MW4V9:382M9COHEJMJN7OFUTOA7SHGSHZEUZ,2874,136197_-0.32575757575757575.png,7,91,live
182,A2B0P5J56MW4V9:382M9COHEJMJN7OFUTOA7SHGSHZEUZ,3472,136213_-0.08333333333333326.png,7,92,live
183,A2B0P5J56MW4V9:382M9COHEJMJN7OFUTOA7SHGSHZEUZ,3065,136219_0.007575757575757569.png,7,93,live
184,A2B0P5J56MW4V9:382M9COHEJMJN7OFUTOA7SHGSHZEUZ,2977,136215_-0.05303030303030298.png,7,94,live
185,A2B0P5J56MW4V9:382M9COHEJMJN7OFUTOA7SHGSHZEUZ,3097,136199_-0.2954545454545454.png,7,95,live
186,A2B0P5J56MW4V9:382M9COHEJMJN7OFUTOA7SHGSHZEUZ,3057,136194_-0.3712121212121212.png,7,96,live
187,A2B0P5J56MW4V9:382M9COHEJMJN7OFUTOA7SHGSHZEUZ,2698,136267_0.7348484848484849.png,7,97,live
188,A2B0P5J56MW4V9:382M9COHEJMJN7OFUTOA7SHGSHZEUZ,2200,136197_-0.32575757575757575.png,7,98,live
189,A2B0P5J56MW4V9:382M9COHEJMJN7OFUTOA7SHGSHZEUZ,2434,136259_0.6136363636363638.png,7,99,live
190,A2B0P5J56MW4V9:382M9COHEJMJN7OFUTOA7SHGSHZEUZ,2736,136220_0.022727272727272707.png,7,101,live
191,A2B0P5J56MW4V9:382M9COHEJMJN7OFUTOA7SHGSHZEUZ,2755,136221_0.037878787878787845.png,7,102,live
192,A2B0P5J56MW4V9:382M9COHEJMJN7OFUTOA7SHGSHZEUZ,2649,136172_-0.7045454545454546.png,7,103,live
193,A2B0P5J56MW4V9:382M9COHEJMJN7OFUTOA7SHGSHZEUZ,2719,136266_0.7196969696969697.png,7,104,live
194,A2B0P5J56MW4V9:382M9COHEJMJN7OFUTOA7SHGSHZEUZ,3354,136222_0.053030303030303094.png,3,105,live
195,A2B0P5J56MW4V9:382M9COHEJMJN7OFUTOA7SHGSHZEUZ,2386,136204_-0.21969696969696972.png,7,106,live
196,A2B0P5J56MW4V9:382M9COHEJMJN7OFUTOA7SHGSHZEUZ,5392,136223_0.06818181818181823.png,7,107,live
197,A2B0P5J56MW4V9:382M9COHEJMJN7OFUTOA7SHGSHZEUZ,2225,136178_-0.6136363636363636.png,7,108,live
198,A2B0P5J56MW4V9:382M9COHEJMJN7OFUTOA7SHGSHZEUZ,2936,136249_0.46212121212121215.png,7,109,live
199,A2B0P5J56MW4V9:382M9COHEJMJN7OFUTOA7SHGSHZEUZ,2305,136243_0.3712121212121213.png,3,110,live
200,A17D91TYBDNFPH:3HWRJOOET7938UWB5OTASRZS7KEESJ,3843,136170_-0.7348484848484849.png,6,2,live
201,A17D91TYBDNFPH:3HWRJOOET7938UWB5OTASRZS7KEESJ,4399,136178_-0.6136363636363636.png,6,3,live
202,A17D91TYBDNFPH:3HWRJOOET7938UWB5OTASRZS7KEESJ,9603,136260_0.6287878787878789.png,7,4,live
203,A17D91TYBDNFPH:3HWRJOOET7938UWB5OTASRZS7KEESJ,3625,136187_-0.4772727272727273.png,6,5,live
204,A17D91TYBDNFPH:3HWRJOOET7938UWB5OTASRZS7KEESJ,3738,136219_0.007575757575757569.png,6,6,live
205,A17D91TYBDNFPH:3HWRJOOET7938UWB5OTASRZS7KEESJ,4400,136183_-0.5378787878787878.png,6,7,live
206,A17D91TYBDNFPH:3HWRJOOET7938UWB5OTASRZS7KEESJ,5141,136259_0.6136363636363638.png,8,8,live
207,A17D91TYBDNFPH:3HWRJOOET7938UWB5OTASRZS7KEESJ,5094,136206_-0.18939393939393934.png,7,9,live
208,A17D91TYBDNFPH:3HWRJOOET7938UWB5OTASRZS7KEESJ,3124,136181_-0.5681818181818181.png,6,10,live
209,A17D91TYBDNFPH:3HWRJOOET7938UWB5OTASRZS7KEESJ,3904,136192_-0.4015151515151515.png,5,11,live
210,A17D91TYBDNFPH:3HWRJOOET7938UWB5OTASRZS7KEESJ,3293,136224_0.08333333333333337.png,6,13,live
211,A17D91TYBDNFPH:3HWRJOOET7938UWB5OTASRZS7KEESJ,2969,136222_0.053030303030303094.png,5,14,live
212,A17D91TYBDNFPH:3HWRJOOET7938UWB5OTASRZS7KEESJ,4263,136221_0.037878787878787845.png,6,15,live
213,A17D91TYBDNFPH:3HWRJOOET7938UWB5OTASRZS7KEESJ,4110,136252_0.5075757575757576.png,7,16,live
214,A17D91TYBDNFPH:3HWRJOOET7938UWB5OTASRZS7KEESJ,4122,136199_-0.2954545454545454.png,6,17,live
215,A17D91TYBDNFPH:3HWRJOOET7938UWB5OTASRZS7KEESJ,3864,136198_-0.3106060606060606.png,7,18,live
216,A17D91TYBDNFPH:3HWRJOOET7938UWB5OTASRZS7KEESJ,3554,136261_0.643939393939394.png,6,19,live
217,A17D91TYBDNFPH:3HWRJOOET7938UWB5OTASRZS7KEESJ,4014,136190_-0.4318181818181818.png,7,20,live
218,A17D91TYBDNFPH:3HWRJOOET7938UWB5OTASRZS7KEESJ,5901,136190_-0.4318181818181818.png,7,21,live
219,A17D91TYBDNFPH:3HWRJOOET7938UWB5OTASRZS7KEESJ,4734,136213_-0.08333333333333326.png,6,22,live
220,A17D91TYBDNFPH:3HWRJOOET7938UWB5OTASRZS7KEESJ,2964,136250_0.4772727272727273.png,7,24,live
221,A17D91TYBDNFPH:3HWRJOOET7938UWB5OTASRZS7KEESJ,3229,136169_-0.75.png,7,25,live
222,A17D91TYBDNFPH:3HWRJOOET7938UWB5OTASRZS7KEESJ,4109,136176_-0.6439393939393939.png,7,26,live
223,A17D91TYBDNFPH:3HWRJOOET7938UWB5OTASRZS7KEESJ,3445,136218_-0.007575757575757569.png,7,27,live
224,A17D91TYBDNFPH:3HWRJOOET7938UWB5OTASRZS7KEESJ,3551,136179_-0.5984848484848485.png,7,28,live
225,A17D91TYBDNFPH:3HWRJOOET7938UWB5OTASRZS7KEESJ,3185,136201_-0.26515151515151514.png,6,29,live
226,A17D91TYBDNFPH:3HWRJOOET7938UWB5OTASRZS7KEESJ,4828,136221_0.037878787878787845.png,6,30,live
227,A17D91TYBDNFPH:3HWRJOOET7938UWB5OTASRZS7KEESJ,3094,136267_0.7348484848484849.png,6,31,live
228,A17D91TYBDNFPH:3HWRJOOET7938UWB5OTASRZS7KEESJ,3366,136209_-0.14393939393939392.png,6,32,live
229,A17D91TYBDNFPH:3HWRJOOET7938UWB5OTASRZS7KEESJ,3694,136231_0.18939393939393945.png,5,33,live
230,A17D91TYBDNFPH:3HWRJOOET7938UWB5OTASRZS7KEESJ,3574,136266_0.7196969696969697.png,6,35,live
231,A17D91TYBDNFPH:3HWRJOOET7938UWB5OTASRZS7KEESJ,2804,136184_-0.5227272727272727.png,7,36,live
232,A17D91TYBDNFPH:3HWRJOOET7938UWB5OTASRZS7KEESJ,4958,136180_-0.5833333333333333.png,7,37,live
233,A17D91TYBDNFPH:3HWRJOOET7938UWB5OTASRZS7KEESJ,3894,136179_-0.5984848484848485.png,6,38,live
234,A17D91TYBDNFPH:3HWRJOOET7938UWB5OTASRZS7KEESJ,3429,136177_-0.6287878787878788.png,6,39,live
235,A17D91TYBDNFPH:3HWRJOOET7938UWB5OTASRZS7KEESJ,3166,136249_0.46212121212121215.png,6,40,live
236,A17D91TYBDNFPH:3HWRJOOET7938UWB5OTASRZS7KEESJ,3976,136238_0.2954545454545454.png,6,41,live
237,A17D91TYBDNFPH:3HWRJOOET7938UWB5OTASRZS7KEESJ,3166,136178_-0.6136363636363636.png,7,42,live
238,A17D91TYBDNFPH:3HWRJOOET7938UWB5OTASRZS7KEESJ,3675,136230_0.1742424242424243.png,7,43,live
239,A17D91TYBDNFPH:3HWRJOOET7938UWB5OTASRZS7KEESJ,4069,136222_0.053030303030303094.png,5,44,live
240,A17D91TYBDNFPH:3HWRJOOET7938UWB5OTASRZS7KEESJ,3519,136189_-0.44696969696969696.png,6,46,live
241,A17D91TYBDNFPH:3HWRJOOET7938UWB5OTASRZS7KEESJ,3112,136196_-0.3409090909090909.png,5,47,live
242,A17D91TYBDNFPH:3HWRJOOET7938UWB5OTASRZS7KEESJ,4962,136225_0.09848484848484851.png,6,48,live
243,A17D91TYBDNFPH:3HWRJOOET7938UWB5OTASRZS7KEESJ,2501,136189_-0.44696969696969696.png,5,49,live
244,A17D91TYBDNFPH:3HWRJOOET7938UWB5OTASRZS7KEESJ,3502,136215_-0.05303030303030298.png,7,50,live
245,A17D91TYBDNFPH:3HWRJOOET7938UWB5OTASRZS7KEESJ,3270,136224_0.08333333333333337.png,6,51,live
246,A17D91TYBDNFPH:3HWRJOOET7938UWB5OTASRZS7KEESJ,2989,136188_-0.4621212121212121.png,6,52,live
247,A17D91TYBDNFPH:3HWRJOOET7938UWB5OTASRZS7KEESJ,3742,136211_-0.11363636363636365.png,5,53,live
248,A17D91TYBDNFPH:3HWRJOOET7938UWB5OTASRZS7KEESJ,3534,136203_-0.23484848484848486.png,6,54,live
249,A17D91TYBDNFPH:3HWRJOOET7938UWB5OTASRZS7KEESJ,3614,136256_0.5681818181818181.png,7,55,live
250,A17D91TYBDNFPH:3HWRJOOET7938UWB5OTASRZS7KEESJ,3846,136223_0.06818181818181823.png,7,57,live
251,A17D91TYBDNFPH:3HWRJOOET7938UWB5OTASRZS7KEESJ,3155,136232_0.20454545454545459.png,6,58,live
252,A17D91TYBDNFPH:3HWRJOOET7938UWB5OTASRZS7KEESJ,4204,136217_-0.022727272727272707.png,6,59,live
253,A17D91TYBDNFPH:3HWRJOOET7938UWB5OTASRZS7KEESJ,3910,136175_-0.6590909090909091.png,6,60,live
254,A17D91TYBDNFPH:3HWRJOOET7938UWB5OTASRZS7KEESJ,4782,136265_0.7045454545454546.png,7,61,live
255,A17D91TYBDNFPH:3HWRJOOET7938UWB5OTASRZS7KEESJ,3702,136246_0.41666666666666674.png,6,62,live
256,A17D91TYBDNFPH:3HWRJOOET7938UWB5OTASRZS7KEESJ,3137,136187_-0.4772727272727273.png,7,63,live
257,A17D91TYBDNFPH:3HWRJOOET7938UWB5OTASRZS7KEESJ,3457,136226_0.11363636363636365.png,6,64,live
258,A17D91TYBDNFPH:3HWRJOOET7938UWB5OTASRZS7KEESJ,3285,136215_-0.05303030303030298.png,7,65,live
259,A17D91TYBDNFPH:3HWRJOOET7938UWB5OTASRZS7KEESJ,3415,136197_-0.32575757575757575.png,6,66,live
260,A17D91TYBDNFPH:3HWRJOOET7938UWB5OTASRZS7KEESJ,3156,136205_-0.20454545454545459.png,7,68,live
261,A17D91TYBDNFPH:3HWRJOOET7938UWB5OTASRZS7KEESJ,3330,136254_0.5378787878787878.png,6,69,live
262,A17D91TYBDNFPH:3HWRJOOET7938UWB5OTASRZS7KEESJ,3686,136220_0.022727272727272707.png,8,70,live
263,A17D91TYBDNFPH:3HWRJOOET7938UWB5OTASRZS7KEESJ,4141,136194_-0.3712121212121212.png,8,71,live
264,A17D91TYBDNFPH:3HWRJOOET7938UWB5OTASRZS7KEESJ,2799,136246_0.41666666666666674.png,7,72,live
265,A17D91TYBDNFPH:3HWRJOOET7938UWB5OTASRZS7KEESJ,3934,136202_-0.25.png,5,73,live
266,A17D91TYBDNFPH:3HWRJOOET7938UWB5OTASRZS7KEESJ,3348,136263_0.6742424242424243.png,5,74,live
267,A17D91TYBDNFPH:3HWRJOOET7938UWB5OTASRZS7KEESJ,3694,136248_0.446969696969697.png,7,75,live
268,A17D91TYBDNFPH:3HWRJOOET7938UWB5OTASRZS7KEESJ,3537,136212_-0.09848484848484851.png,6,76,live
269,A17D91TYBDNFPH:3HWRJOOET7938UWB5OTASRZS7KEESJ,4370,136204_-0.21969696969696972.png,7,77,live
270,A17D91TYBDNFPH:3HWRJOOET7938UWB5OTASRZS7KEESJ,2704,136240_0.3257575757575757.png,7,79,live
271,A17D91TYBDNFPH:3HWRJOOET7938UWB5OTASRZS7KEESJ,4182,136193_-0.38636363636363635.png,6,80,live
272,A17D91TYBDNFPH:3HWRJOOET7938UWB5OTASRZS7KEESJ,2983,136176_-0.6439393939393939.png,6,81,live
273,A17D91TYBDNFPH:3HWRJOOET7938UWB5OTASRZS7KEESJ,3448,136218_-0.007575757575757569.png,7,82,live
274,A17D91TYBDNFPH:3HWRJOOET7938UWB5OTASRZS7KEESJ,3914,136182_-0.553030303030303.png,7,83,live
275,A17D91TYBDNFPH:3HWRJOOET7938UWB5OTASRZS7KEESJ,5565,136244_0.38636363636363646.png,6,84,live
276,A17D91TYBDNFPH:3HWRJOOET7938UWB5OTASRZS7KEESJ,4431,136228_0.14393939393939392.png,7,85,live
277,A17D91TYBDNFPH:3HWRJOOET7938UWB5OTASRZS7KEESJ,4180,136201_-0.26515151515151514.png,6,86,live
278,A17D91TYBDNFPH:3HWRJOOET7938UWB5OTASRZS7KEESJ,3278,136232_0.20454545454545459.png,6,87,live
279,A17D91TYBDNFPH:3HWRJOOET7938UWB5OTASRZS7KEESJ,5789,136245_0.4015151515151516.png,7,88,live
280,A17D91TYBDNFPH:3HWRJOOET7938UWB5OTASRZS7KEESJ,3759,136234_0.23484848484848486.png,8,90,live
281,A17D91TYBDNFPH:3HWRJOOET7938UWB5OTASRZS7KEESJ,3347,136172_-0.7045454545454546.png,7,91,live
282,A17D91TYBDNFPH:3HWRJOOET7938UWB5OTASRZS7KEESJ,2918,136197_-0.32575757575757575.png,8,92,live
283,A17D91TYBDNFPH:3HWRJOOET7938UWB5OTASRZS7KEESJ,4654,136264_0.6893939393939394.png,7,93,live
284,A17D91TYBDNFPH:3HWRJOOET7938UWB5OTASRZS7KEESJ,4445,136195_-0.3560606060606061.png,6,94,live
285,A17D91TYBDNFPH:3HWRJOOET7938UWB5OTASRZS7KEESJ,3118,136216_-0.037878787878787845.png,6,95,live
286,A17D91TYBDNFPH:3HWRJOOET7938UWB5OTASRZS7KEESJ,4190,136243_0.3712121212121213.png,7,96,live
287,A17D91TYBDNFPH:3HWRJOOET7938UWB5OTASRZS7KEESJ,3383,136241_0.34090909090909083.png,8,97,live
288,A17D91TYBDNFPH:3HWRJOOET7938UWB5OTASRZS7KEESJ,3286,136204_-0.21969696969696972.png,7,98,live
289,A17D91TYBDNFPH:3HWRJOOET7938UWB5OTASRZS7KEESJ,3285,136223_0.06818181818181823.png,7,99,live
290,A17D91TYBDNFPH:3HWRJOOET7938UWB5OTASRZS7KEESJ,3779,136200_-0.2803030303030303.png,7,101,live
291,A17D91TYBDNFPH:3HWRJOOET7938UWB5OTASRZS7KEESJ,3515,136253_0.5227272727272727.png,6,102,live
292,A17D91TYBDNFPH:3HWRJOOET7938UWB5OTASRZS7KEESJ,3094,136172_-0.7045454545454546.png,7,103,live
293,A17D91TYBDNFPH:3HWRJOOET7938UWB5OTASRZS7KEESJ,3894,136262_0.6590909090909092.png,8,104,live
294,A17D91TYBDNFPH:3HWRJOOET7938UWB5OTASRZS7KEESJ,4405,136185_-0.5075757575757576.png,8,105,live
295,A17D91TYBDNFPH:3HWRJOOET7938UWB5OTASRZS7KEESJ,4564,136239_0.31060606060606055.png,8,106,live
296,A17D91TYBDNFPH:3HWRJOOET7938UWB5OTASRZS7KEESJ,6542,136242_0.3560606060606062.png,9,107,live
297,A17D91TYBDNFPH:3HWRJOOET7938UWB5OTASRZS7KEESJ,3741,136259_0.6136363636363638.png,8,108,live
298,A17D91TYBDNFPH:3HWRJOOET7938UWB5OTASRZS7KEESJ,3646,136243_0.3712121212121213.png,6,109,live
299,A17D91TYBDNFPH:3HWRJOOET7938UWB5OTASRZS7KEESJ,3859,136174_-0.6742424242424242.png,7,110,live
300,A1SSKWS5L20II8:30OG32W0SWI6SH46XSCOTXPMKL6EN7,6980,136179_-0.5984848484848485.png,5,2,live
301,A1SSKWS5L20II8:30OG32W0SWI6SH46XSCOTXPMKL6EN7,2903,136172_-0.7045454545454546.png,6,3,live
302,A1SSKWS5L20II8:30OG32W0SWI6SH46XSCOTXPMKL6EN7,3270,136190_-0.4318181818181818.png,6,4,live
303,A1SSKWS5L20II8:30OG32W0SWI6SH46XSCOTXPMKL6EN7,12017,136198_-0.3106060606060606.png,6,5,live
304,A1SSKWS5L20II8:30OG32W0SWI6SH46XSCOTXPMKL6EN7,1766,136205_-0.20454545454545459.png,6,6,live
305,A1SSKWS5L20II8:30OG32W0SWI6SH46XSCOTXPMKL6EN7,1814,136215_-0.05303030303030298.png,5,7,live
306,A1SSKWS5L20II8:30OG32W0SWI6SH46XSCOTXPMKL6EN7,2087,136256_0.5681818181818181.png,4,8,live
307,A1SSKWS5L20II8:30OG32W0SWI6SH46XSCOTXPMKL6EN7,2998,136260_0.6287878787878789.png,3,9,live
308,A1SSKWS5L20II8:30OG32W0SWI6SH46XSCOTXPMKL6EN7,2134,136200_-0.2803030303030303.png,4,10,live
309,A1SSKWS5L20II8:30OG32W0SWI6SH46XSCOTXPMKL6EN7,2405,136202_-0.25.png,3,11,live
310,A1SSKWS5L20II8:30OG32W0SWI6SH46XSCOTXPMKL6EN7,2309,136222_0.053030303030303094.png,5,13,live
311,A1SSKWS5L20II8:30OG32W0SWI6SH46XSCOTXPMKL6EN7,1839,136178_-0.6136363636363636.png,6,14,live
312,A1SSKWS5L20II8:30OG32W0SWI6SH46XSCOTXPMKL6EN7,1710,136246_0.41666666666666674.png,6,15,live
313,A1SSKWS5L20II8:30OG32W0SWI6SH46XSCOTXPMKL6EN7,1558,136197_-0.32575757575757575.png,4,16,live
314,A1SSKWS5L20II8:30OG32W0SWI6SH46XSCOTXPMKL6EN7,1719,136195_-0.3560606060606061.png,5,17,live
315,A1SSKWS5L20II8:30OG32W0SWI6SH46XSCOTXPMKL6EN7,2383,136174_-0.6742424242424242.png,3,18,live
316,A1SSKWS5L20II8:30OG32W0SWI6SH46XSCOTXPMKL6EN7,1638,136199_-0.2954545454545454.png,2,19,live
317,A1SSKWS5L20II8:30OG32W0SWI6SH46XSCOTXPMKL6EN7,1830,136223_0.06818181818181823.png,6,20,live
318,A1SSKWS5L20II8:30OG32W0SWI6SH46XSCOTXPMKL6EN7,4030,136224_0.08333333333333337.png,7,21,live
319,A1SSKWS5L20II8:30OG32W0SWI6SH46XSCOTXPMKL6EN7,2134,136188_-0.4621212121212121.png,6,22,live
320,A1SSKWS5L20II8:30OG32W0SWI6SH46XSCOTXPMKL6EN7,2225,136259_0.6136363636363638.png,5,24,live
321,A1SSKWS5L20II8:30OG32W0SWI6SH46XSCOTXPMKL6EN7,1598,136263_0.6742424242424243.png,6,25,live
322,A1SSKWS5L20II8:30OG32W0SWI6SH46XSCOTXPMKL6EN7,1734,136222_0.053030303030303094.png,4,26,live
323,A1SSKWS5L20II8:30OG32W0SWI6SH46XSCOTXPMKL6EN7,1791,136267_0.7348484848484849.png,6,27,live
324,A1SSKWS5L20II8:30OG32W0SWI6SH46XSCOTXPMKL6EN7,2262,136180_-0.5833333333333333.png,5,28,live
325,A1SSKWS5L20II8:30OG32W0SWI6SH46XSCOTXPMKL6EN7,1742,136240_0.3257575757575757.png,6,29,live
326,A1SSKWS5L20II8:30OG32W0SWI6SH46XSCOTXPMKL6EN7,2195,136219_0.007575757575757569.png,6,30,live
327,A1SSKWS5L20II8:30OG32W0SWI6SH46XSCOTXPMKL6EN7,2113,136182_-0.553030303030303.png,6,31,live
328,A1SSKWS5L20II8:30OG32W0SWI6SH46XSCOTXPMKL6EN7,2646,136232_0.20454545454545459.png,7,32,live
329,A1SSKWS5L20II8:30OG32W0SWI6SH46XSCOTXPMKL6EN7,2470,136177_-0.6287878787878788.png,7,33,live
330,A1SSKWS5L20II8:30OG32W0SWI6SH46XSCOTXPMKL6EN7,1774,136203_-0.23484848484848486.png,5,35,live
331,A1SSKWS5L20II8:30OG32W0SWI6SH46XSCOTXPMKL6EN7,1782,136231_0.18939393939393945.png,6,36,live
332,A1SSKWS5L20II8:30OG32W0SWI6SH46XSCOTXPMKL6EN7,1685,136246_0.41666666666666674.png,7,37,live
333,A1SSKWS5L20II8:30OG32W0SWI6SH46XSCOTXPMKL6EN7,2015,136201_-0.26515151515151514.png,4,38,live
334,A1SSKWS5L20II8:30OG32W0SWI6SH46XSCOTXPMKL6EN7,1797,136209_-0.14393939393939392.png,5,39,live
335,A1SSKWS5L20II8:30OG32W0SWI6SH46XSCOTXPMKL6EN7,1741,136184_-0.5227272727272727.png,6,40,live
336,A1SSKWS5L20II8:30OG32W0SWI6SH46XSCOTXPMKL6EN7,1742,136204_-0.21969696969696972.png,7,41,live
337,A1SSKWS5L20II8:30OG32W0SWI6SH46XSCOTXPMKL6EN7,2526,136217_-0.022727272727272707.png,3,42,live
338,A1SSKWS5L20II8:30OG32W0SWI6SH46XSCOTXPMKL6EN7,1989,136221_0.037878787878787845.png,4,43,live
339,A1SSKWS5L20II8:30OG32W0SWI6SH46XSCOTXPMKL6EN7,1559,136225_0.09848484848484851.png,6,44,live
340,A1SSKWS5L20II8:30OG32W0SWI6SH46XSCOTXPMKL6EN7,1850,136221_0.037878787878787845.png,5,46,live
341,A1SSKWS5L20II8:30OG32W0SWI6SH46XSCOTXPMKL6EN7,1776,136245_0.4015151515151516.png,6,47,live
342,A1SSKWS5L20II8:30OG32W0SWI6SH46XSCOTXPMKL6EN7,1923,136176_-0.6439393939393939.png,5,48,live
343,A1SSKWS5L20II8:30OG32W0SWI6SH46XSCOTXPMKL6EN7,2270,136264_0.6893939393939394.png,6,49,live
344,A1SSKWS5L20II8:30OG32W0SWI6SH46XSCOTXPMKL6EN7,2053,136176_-0.6439393939393939.png,5,50,live
345,A1SSKWS5L20II8:30OG32W0SWI6SH46XSCOTXPMKL6EN7,1754,136230_0.1742424242424243.png,6,51,live
346,A1SSKWS5L20II8:30OG32W0SWI6SH46XSCOTXPMKL6EN7,1569,136232_0.20454545454545459.png,4,52,live
347,A1SSKWS5L20II8:30OG32W0SWI6SH46XSCOTXPMKL6EN7,1478,136212_-0.09848484848484851.png,6,53,live
348,A1SSKWS5L20II8:30OG32W0SWI6SH46XSCOTXPMKL6EN7,2535,136228_0.14393939393939392.png,3,54,live
349,A1SSKWS5L20II8:30OG32W0SWI6SH46XSCOTXPMKL6EN7,2181,136234_0.23484848484848486.png,6,55,live
350,A1SSKWS5L20II8:30OG32W0SWI6SH46XSCOTXPMKL6EN7,3107,136216_-0.037878787878787845.png,6,57,live
351,A1SSKWS5L20II8:30OG32W0SWI6SH46XSCOTXPMKL6EN7,1869,136187_-0.4772727272727273.png,4,58,live
352,A1SSKWS5L20II8:30OG32W0SWI6SH46XSCOTXPMKL6EN7,1574,136175_-0.6590909090909091.png,5,59,live
353,A1SSKWS5L20II8:30OG32W0SWI6SH46XSCOTXPMKL6EN7,1453,136211_-0.11363636363636365.png,6,60,live
354,A1SSKWS5L20II8:30OG32W0SWI6SH46XSCOTXPMKL6EN7,1789,136223_0.06818181818181823.png,3,61,live
355,A1SSKWS5L20II8:30OG32W0SWI6SH46XSCOTXPMKL6EN7,1661,136196_-0.3409090909090909.png,4,62,live
356,A1SSKWS5L20II8:30OG32W0SWI6SH46XSCOTXPMKL6EN7,1807,136241_0.34090909090909083.png,5,63,live
357,A1SSKWS5L20II8:30OG32W0SWI6SH46XSCOTXPMKL6EN7,4198,136242_0.3560606060606062.png,7,64,live
358,A1SSKWS5L20II8:30OG32W0SWI6SH46XSCOTXPMKL6EN7,3206,136244_0.38636363636363646.png,6,65,live
359,A1SSKWS5L20II8:30OG32W0SWI6SH46XSCOTXPMKL6EN7,1527,136204_-0.21969696969696972.png,5,66,live
360,A1SSKWS5L20II8:30OG32W0SWI6SH46XSCOTXPMKL6EN7,2314,136178_-0.6136363636363636.png,5,68,live
361,A1SSKWS5L20II8:30OG32W0SWI6SH46XSCOTXPMKL6EN7,1691,136239_0.31060606060606055.png,4,69,live
362,A1SSKWS5L20II8:30OG32W0SWI6SH46XSCOTXPMKL6EN7,2830,136266_0.7196969696969697.png,5,70,live
363,A1SSKWS5L20II8:30OG32W0SWI6SH46XSCOTXPMKL6EN7,1974,136194_-0.3712121212121212.png,6,71,live
364,A1SSKWS5L20II8:30OG32W0SWI6SH46XSCOTXPMKL6EN7,2247,136254_0.5378787878787878.png,5,72,live
365,A1SSKWS5L20II8:30OG32W0SWI6SH46XSCOTXPMKL6EN7,2005,136224_0.08333333333333337.png,4,73,live
366,A1SSKWS5L20II8:30OG32W0SWI6SH46XSCOTXPMKL6EN7,2534,136259_0.6136363636363638.png,3,74,live
367,A1SSKWS5L20II8:30OG32W0SWI6SH46XSCOTXPMKL6EN7,2309,136220_0.022727272727272707.png,5,75,live
368,A1SSKWS5L20II8:30OG32W0SWI6SH46XSCOTXPMKL6EN7,3405,136179_-0.5984848484848485.png,6,76,live
369,A1SSKWS5L20II8:30OG32W0SWI6SH46XSCOTXPMKL6EN7,2465,136193_-0.38636363636363635.png,6,77,live
370,A1SSKWS5L20II8:30OG32W0SWI6SH46XSCOTXPMKL6EN7,2525,136185_-0.5075757575757576.png,7,79,live
371,A1SSKWS5L20II8:30OG32W0SWI6SH46XSCOTXPMKL6EN7,2102,136248_0.446969696969697.png,6,80,live
372,A1SSKWS5L20II8:30OG32W0SWI6SH46XSCOTXPMKL6EN7,2462,136261_0.643939393939394.png,5,81,live
373,A1SSKWS5L20II8:30OG32W0SWI6SH46XSCOTXPMKL6EN7,1829,136201_-0.26515151515151514.png,4,82,live
374,A1SSKWS5L20II8:30OG32W0SWI6SH46XSCOTXPMKL6EN7,2182,136181_-0.5681818181818181.png,3,83,live
375,A1SSKWS5L20II8:30OG32W0SWI6SH46XSCOTXPMKL6EN7,2063,136218_-0.007575757575757569.png,6,84,live
376,A1SSKWS5L20II8:30OG32W0SWI6SH46XSCOTXPMKL6EN7,2254,136215_-0.05303030303030298.png,7,85,live
377,A1SSKWS5L20II8:30OG32W0SWI6SH46XSCOTXPMKL6EN7,1983,136253_0.5227272727272727.png,6,86,live
378,A1SSKWS5L20II8:30OG32W0SWI6SH46XSCOTXPMKL6EN7,1798,136206_-0.18939393939393934.png,6,87,live
379,A1SSKWS5L20II8:30OG32W0SWI6SH46XSCOTXPMKL6EN7,1871,136170_-0.7348484848484849.png,7,88,live
380,A1SSKWS5L20II8:30OG32W0SWI6SH46XSCOTXPMKL6EN7,2449,136249_0.46212121212121215.png,6,90,live
381,A1SSKWS5L20II8:30OG32W0SWI6SH46XSCOTXPMKL6EN7,2518,136218_-0.007575757575757569.png,7,91,live
382,A1SSKWS5L20II8:30OG32W0SWI6SH46XSCOTXPMKL6EN7,1478,136250_0.4772727272727273.png,6,92,live
383,A1SSKWS5L20II8:30OG32W0SWI6SH46XSCOTXPMKL6EN7,1558,136197_-0.32575757575757575.png,5,93,live
384,A1SSKWS5L20II8:30OG32W0SWI6SH46XSCOTXPMKL6EN7,1485,136252_0.5075757575757576.png,6,94,live
385,A1SSKWS5L20II8:30OG32W0SWI6SH46XSCOTXPMKL6EN7,1559,136190_-0.4318181818181818.png,7,95,live
386,A1SSKWS5L20II8:30OG32W0SWI6SH46XSCOTXPMKL6EN7,1663,136183_-0.5378787878787878.png,7,96,live
387,A1SSKWS5L20II8:30OG32W0SWI6SH46XSCOTXPMKL6EN7,1542,136213_-0.08333333333333326.png,6,97,live
388,A1SSKWS5L20II8:30OG32W0SWI6SH46XSCOTXPMKL6EN7,3062,136172_-0.7045454545454546.png,5,98,live
389,A1SSKWS5L20II8:30OG32W0SWI6SH46XSCOTXPMKL6EN7,1422,136187_-0.4772727272727273.png,4,99,live
390,A1SSKWS5L20II8:30OG32W0SWI6SH46XSCOTXPMKL6EN7,2166,136265_0.7045454545454546.png,6,101,live
391,A1SSKWS5L20II8:30OG32W0SWI6SH46XSCOTXPMKL6EN7,2476,136189_-0.44696969696969696.png,4,102,live
392,A1SSKWS5L20II8:30OG32W0SWI6SH46XSCOTXPMKL6EN7,1437,136243_0.3712121212121213.png,5,103,live
393,A1SSKWS5L20II8:30OG32W0SWI6SH46XSCOTXPMKL6EN7,1735,136238_0.2954545454545454.png,6,104,live
394,A1SSKWS5L20II8:30OG32W0SWI6SH46XSCOTXPMKL6EN7,1519,136192_-0.4015151515151515.png,7,105,live
395,A1SSKWS5L20II8:30OG32W0SWI6SH46XSCOTXPMKL6EN7,1910,136169_-0.75.png,4,106,live
396,A1SSKWS5L20II8:30OG32W0SWI6SH46XSCOTXPMKL6EN7,1486,136226_0.11363636363636365.png,6,107,live
397,A1SSKWS5L20II8:30OG32W0SWI6SH46XSCOTXPMKL6EN7,2454,136189_-0.44696969696969696.png,7,108,live
398,A1SSKWS5L20II8:30OG32W0SWI6SH46XSCOTXPMKL6EN7,1854,136262_0.6590909090909092.png,3,109,live
399,A1SSKWS5L20II8:30OG32W0SWI6SH46XSCOTXPMKL6EN7,1430,136243_0.3712121212121213.png,5,110,live
400,A2OZF756R5JSG4:3VW04L3ZLVDKAB9RU3PPFO1R25RXXJ,8418,136178_-0.6136363636363636.png,8,2,live
401,A2OZF756R5JSG4:3VW04L3ZLVDKAB9RU3PPFO1R25RXXJ,3263,136201_-0.26515151515151514.png,4,3,live
402,A2OZF756R5JSG4:3VW04L3ZLVDKAB9RU3PPFO1R25RXXJ,4004,136200_-0.2803030303030303.png,8,4,live
403,A2OZF756R5JSG4:3VW04L3ZLVDKAB9RU3PPFO1R25RXXJ,4883,136224_0.08333333333333337.png,7,5,live
404,A2OZF756R5JSG4:3VW04L3ZLVDKAB9RU3PPFO1R25RXXJ,8794,136172_-0.7045454545454546.png,7,6,live
405,A2OZF756R5JSG4:3VW04L3ZLVDKAB9RU3PPFO1R25RXXJ,3694,136226_0.11363636363636365.png,3,7,live
406,A2OZF756R5JSG4:3VW04L3ZLVDKAB9RU3PPFO1R25RXXJ,6952,136220_0.022727272727272707.png,7,8,live
407,A2OZF756R5JSG4:3VW04L3ZLVDKAB9RU3PPFO1R25RXXJ,3600,136223_0.06818181818181823.png,9,9,live
408,A2OZF756R5JSG4:3VW04L3ZLVDKAB9RU3PPFO1R25RXXJ,4997,136181_-0.5681818181818181.png,1,10,live
409,A2OZF756R5JSG4:3VW04L3ZLVDKAB9RU3PPFO1R25RXXJ,5803,136204_-0.21969696969696972.png,3,11,live
410,A2OZF756R5JSG4:3VW04L3ZLVDKAB9RU3PPFO1R25RXXJ,4503,136172_-0.7045454545454546.png,7,13,live
411,A2OZF756R5JSG4:3VW04L3ZLVDKAB9RU3PPFO1R25RXXJ,3724,136260_0.6287878787878789.png,1,14,live
412,A2OZF756R5JSG4:3VW04L3ZLVDKAB9RU3PPFO1R25RXXJ,2943,136190_-0.4318181818181818.png,9,15,live
413,A2OZF756R5JSG4:3VW04L3ZLVDKAB9RU3PPFO1R25RXXJ,3952,136217_-0.022727272727272707.png,2,16,live
414,A2OZF756R5JSG4:3VW04L3ZLVDKAB9RU3PPFO1R25RXXJ,3975,136209_-0.14393939393939392.png,3,17,live
415,A2OZF756R5JSG4:3VW04L3ZLVDKAB9RU3PPFO1R25RXXJ,3217,136196_-0.3409090909090909.png,9,18,live
416,A2OZF756R5JSG4:3VW04L3ZLVDKAB9RU3PPFO1R25RXXJ,3569,136221_0.037878787878787845.png,9,19,live
417,A2OZF756R5JSG4:3VW04L3ZLVDKAB9RU3PPFO1R25RXXJ,6187,136266_0.7196969696969697.png,5,20,live
418,A2OZF756R5JSG4:3VW04L3ZLVDKAB9RU3PPFO1R25RXXJ,3060,136195_-0.3560606060606061.png,2,21,live
419,A2OZF756R5JSG4:3VW04L3ZLVDKAB9RU3PPFO1R25RXXJ,2576,136178_-0.6136363636363636.png,8,22,live
420,A2OZF756R5JSG4:3VW04L3ZLVDKAB9RU3PPFO1R25RXXJ,7538,136169_-0.75.png,6,24,live
421,A2OZF756R5JSG4:3VW04L3ZLVDKAB9RU3PPFO1R25RXXJ,3164,136194_-0.3712121212121212.png,6,25,live
422,A2OZF756R5JSG4:3VW04L3ZLVDKAB9RU3PPFO1R25RXXJ,3172,136246_0.41666666666666674.png,8,26,live
423,A2OZF756R5JSG4:3VW04L3ZLVDKAB9RU3PPFO1R25RXXJ,2535,136264_0.6893939393939394.png,3,27,live
424,A2OZF756R5JSG4:3VW04L3ZLVDKAB9RU3PPFO1R25RXXJ,4834,136215_-0.05303030303030298.png,3,28,live
425,A2OZF756R5JSG4:3VW04L3ZLVDKAB9RU3PPFO1R25RXXJ,4366,136265_0.7045454545454546.png,8,29,live
426,A2OZF756R5JSG4:3VW04L3ZLVDKAB9RU3PPFO1R25RXXJ,3138,136248_0.446969696969697.png,9,30,live
427,A2OZF756R5JSG4:3VW04L3ZLVDKAB9RU3PPFO1R25RXXJ,3100,136218_-0.007575757575757569.png,9,31,live
428,A2OZF756R5JSG4:3VW04L3ZLVDKAB9RU3PPFO1R25RXXJ,3272,136198_-0.3106060606060606.png,2,32,live
429,A2OZF756R5JSG4:3VW04L3ZLVDKAB9RU3PPFO1R25RXXJ,2701,136232_0.20454545454545459.png,1,33,live
430,A2OZF756R5JSG4:3VW04L3ZLVDKAB9RU3PPFO1R25RXXJ,3292,136228_0.14393939393939392.png,5,35,live
431,A2OZF756R5JSG4:3VW04L3ZLVDKAB9RU3PPFO1R25RXXJ,2920,136225_0.09848484848484851.png,6,36,live
432,A2OZF756R5JSG4:3VW04L3ZLVDKAB9RU3PPFO1R25RXXJ,2669,136243_0.3712121212121213.png,1,37,live
433,A2OZF756R5JSG4:3VW04L3ZLVDKAB9RU3PPFO1R25RXXJ,2905,136230_0.1742424242424243.png,7,38,live
434,A2OZF756R5JSG4:3VW04L3ZLVDKAB9RU3PPFO1R25RXXJ,3624,136267_0.7348484848484849.png,8,39,live
435,A2OZF756R5JSG4:3VW04L3ZLVDKAB9RU3PPFO1R25RXXJ,4380,136231_0.18939393939393945.png,1,40,live
436,A2OZF756R5JSG4:3VW04L3ZLVDKAB9RU3PPFO1R25RXXJ,6224,136263_0.6742424242424243.png,1,41,live
437,A2OZF756R5JSG4:3VW04L3ZLVDKAB9RU3PPFO1R25RXXJ,3961,136180_-0.5833333333333333.png,7,42,live
438,A2OZF756R5JSG4:3VW04L3ZLVDKAB9RU3PPFO1R25RXXJ,4335,136197_-0.32575757575757575.png,8,43,live
439,A2OZF756R5JSG4:3VW04L3ZLVDKAB9RU3PPFO1R25RXXJ,2741,136177_-0.6287878787878788.png,1,44,live
440,A2OZF756R5JSG4:3VW04L3ZLVDKAB9RU3PPFO1R25RXXJ,2386,136243_0.3712121212121213.png,1,46,live
441,A2OZF756R5JSG4:3VW04L3ZLVDKAB9RU3PPFO1R25RXXJ,2953,136202_-0.25.png,1,47,live
442,A2OZF756R5JSG4:3VW04L3ZLVDKAB9RU3PPFO1R25RXXJ,6843,136212_-0.09848484848484851.png,5,48,live
443,A2OZF756R5JSG4:3VW04L3ZLVDKAB9RU3PPFO1R25RXXJ,2819,136242_0.3560606060606062.png,8,49,live
444,A2OZF756R5JSG4:3VW04L3ZLVDKAB9RU3PPFO1R25RXXJ,2764,136183_-0.5378787878787878.png,3,50,live
445,A2OZF756R5JSG4:3VW04L3ZLVDKAB9RU3PPFO1R25RXXJ,2498,136206_-0.18939393939393934.png,9,51,live
446,A2OZF756R5JSG4:3VW04L3ZLVDKAB9RU3PPFO1R25RXXJ,6976,136204_-0.21969696969696972.png,6,52,live
447,A2OZF756R5JSG4:3VW04L3ZLVDKAB9RU3PPFO1R25RXXJ,3217,136213_-0.08333333333333326.png,8,53,live
448,A2OZF756R5JSG4:3VW04L3ZLVDKAB9RU3PPFO1R25RXXJ,3076,136262_0.6590909090909092.png,7,54,live
449,A2OZF756R5JSG4:3VW04L3ZLVDKAB9RU3PPFO1R25RXXJ,2967,136259_0.6136363636363638.png,9,55,live
450,A2OZF756R5JSG4:3VW04L3ZLVDKAB9RU3PPFO1R25RXXJ,2739,136239_0.31060606060606055.png,3,57,live
451,A2OZF756R5JSG4:3VW04L3ZLVDKAB9RU3PPFO1R25RXXJ,3004,136240_0.3257575757575757.png,8,58,live
452,A2OZF756R5JSG4:3VW04L3ZLVDKAB9RU3PPFO1R25RXXJ,6116,136211_-0.11363636363636365.png,1,59,live
453,A2OZF756R5JSG4:3VW04L3ZLVDKAB9RU3PPFO1R25RXXJ,3928,136201_-0.26515151515151514.png,3,60,live
454,A2OZF756R5JSG4:3VW04L3ZLVDKAB9RU3PPFO1R25RXXJ,3773,136218_-0.007575757575757569.png,9,61,live
455,A2OZF756R5JSG4:3VW04L3ZLVDKAB9RU3PPFO1R25RXXJ,11319,136259_0.6136363636363638.png,8,62,live
456,A2OZF756R5JSG4:3VW04L3ZLVDKAB9RU3PPFO1R25RXXJ,5382,136241_0.34090909090909083.png,5,63,live
457,A2OZF756R5JSG4:3VW04L3ZLVDKAB9RU3PPFO1R25RXXJ,2499,136192_-0.4015151515151515.png,4,64,live
458,A2OZF756R5JSG4:3VW04L3ZLVDKAB9RU3PPFO1R25RXXJ,5949,136215_-0.05303030303030298.png,3,65,live
459,A2OZF756R5JSG4:3VW04L3ZLVDKAB9RU3PPFO1R25RXXJ,2727,136246_0.41666666666666674.png,8,66,live
460,A2OZF756R5JSG4:3VW04L3ZLVDKAB9RU3PPFO1R25RXXJ,2768,136253_0.5227272727272727.png,1,68,live
461,A2OZF756R5JSG4:3VW04L3ZLVDKAB9RU3PPFO1R25RXXJ,2631,136189_-0.44696969696969696.png,1,69,live
462,A2OZF756R5JSG4:3VW04L3ZLVDKAB9RU3PPFO1R25RXXJ,2499,136249_0.46212121212121215.png,9,70,live
463,A2OZF756R5JSG4:3VW04L3ZLVDKAB9RU3PPFO1R25RXXJ,3121,136179_-0.5984848484848485.png,5,71,live
464,A2OZF756R5JSG4:3VW04L3ZLVDKAB9RU3PPFO1R25RXXJ,2883,136188_-0.4621212121212121.png,3,72,live
465,A2OZF756R5JSG4:3VW04L3ZLVDKAB9RU3PPFO1R25RXXJ,2912,136203_-0.23484848484848486.png,1,73,live
466,A2OZF756R5JSG4:3VW04L3ZLVDKAB9RU3PPFO1R25RXXJ,2482,136221_0.037878787878787845.png,9,74,live
467,A2OZF756R5JSG4:3VW04L3ZLVDKAB9RU3PPFO1R25RXXJ,5624,136185_-0.5075757575757576.png,7,75,live
468,A2OZF756R5JSG4:3VW04L3ZLVDKAB9RU3PPFO1R25RXXJ,4350,136197_-0.32575757575757575.png,6,76,live
469,A2OZF756R5JSG4:3VW04L3ZLVDKAB9RU3PPFO1R25RXXJ,2919,136250_0.4772727272727273.png,1,77,live
470,A2OZF756R5JSG4:3VW04L3ZLVDKAB9RU3PPFO1R25RXXJ,4270,136205_-0.20454545454545459.png,6,79,live
471,A2OZF756R5JSG4:3VW04L3ZLVDKAB9RU3PPFO1R25RXXJ,9014,136245_0.4015151515151516.png,6,80,live
472,A2OZF756R5JSG4:3VW04L3ZLVDKAB9RU3PPFO1R25RXXJ,2326,136216_-0.037878787878787845.png,1,81,live
473,A2OZF756R5JSG4:3VW04L3ZLVDKAB9RU3PPFO1R25RXXJ,4030,136187_-0.4772727272727273.png,2,82,live
474,A2OZF756R5JSG4:3VW04L3ZLVDKAB9RU3PPFO1R25RXXJ,2756,136176_-0.6439393939393939.png,1,83,live
475,A2OZF756R5JSG4:3VW04L3ZLVDKAB9RU3PPFO1R25RXXJ,2379,136222_0.053030303030303094.png,1,84,live
476,A2OZF756R5JSG4:3VW04L3ZLVDKAB9RU3PPFO1R25RXXJ,4133,136223_0.06818181818181823.png,9,85,live
477,A2OZF756R5JSG4:3VW04L3ZLVDKAB9RU3PPFO1R25RXXJ,2397,136261_0.643939393939394.png,1,86,live
478,A2OZF756R5JSG4:3VW04L3ZLVDKAB9RU3PPFO1R25RXXJ,3133,136254_0.5378787878787878.png,8,87,live
479,A2OZF756R5JSG4:3VW04L3ZLVDKAB9RU3PPFO1R25RXXJ,3568,136224_0.08333333333333337.png,7,88,live
480,A2OZF756R5JSG4:3VW04L3ZLVDKAB9RU3PPFO1R25RXXJ,2716,136244_0.38636363636363646.png,7,90,live
481,A2OZF756R5JSG4:3VW04L3ZLVDKAB9RU3PPFO1R25RXXJ,2953,136199_-0.2954545454545454.png,5,91,live
482,A2OZF756R5JSG4:3VW04L3ZLVDKAB9RU3PPFO1R25RXXJ,2356,136238_0.2954545454545454.png,1,92,live
483,A2OZF756R5JSG4:3VW04L3ZLVDKAB9RU3PPFO1R25RXXJ,2234,136222_0.053030303030303094.png,1,93,live
484,A2OZF756R5JSG4:3VW04L3ZLVDKAB9RU3PPFO1R25RXXJ,2802,136182_-0.553030303030303.png,1,94,live
485,A2OZF756R5JSG4:3VW04L3ZLVDKAB9RU3PPFO1R25RXXJ,3866,136256_0.5681818181818181.png,4,95,live
486,A2OZF756R5JSG4:3VW04L3ZLVDKAB9RU3PPFO1R25RXXJ,2733,136193_-0.38636363636363635.png,6,96,live
487,A2OZF756R5JSG4:3VW04L3ZLVDKAB9RU3PPFO1R25RXXJ,2257,136176_-0.6439393939393939.png,1,97,live
488,A2OZF756R5JSG4:3VW04L3ZLVDKAB9RU3PPFO1R25RXXJ,3326,136190_-0.4318181818181818.png,9,98,live
489,A2OZF756R5JSG4:3VW04L3ZLVDKAB9RU3PPFO1R25RXXJ,3139,136252_0.5075757575757576.png,6,99,live
490,A2OZF756R5JSG4:3VW04L3ZLVDKAB9RU3PPFO1R25RXXJ,2732,136184_-0.5227272727272727.png,2,101,live
491,A2OZF756R5JSG4:3VW04L3ZLVDKAB9RU3PPFO1R25RXXJ,2543,136179_-0.5984848484848485.png,5,102,live
492,A2OZF756R5JSG4:3VW04L3ZLVDKAB9RU3PPFO1R25RXXJ,2427,136189_-0.44696969696969696.png,1,103,live
493,A2OZF756R5JSG4:3VW04L3ZLVDKAB9RU3PPFO1R25RXXJ,3077,136219_0.007575757575757569.png,7,104,live
494,A2OZF756R5JSG4:3VW04L3ZLVDKAB9RU3PPFO1R25RXXJ,3068,136170_-0.7348484848484849.png,3,105,live
495,A2OZF756R5JSG4:3VW04L3ZLVDKAB9RU3PPFO1R25RXXJ,3732,136234_0.23484848484848486.png,8,106,live
496,A2OZF756R5JSG4:3VW04L3ZLVDKAB9RU3PPFO1R25RXXJ,4045,136174_-0.6742424242424242.png,2,107,live
497,A2OZF756R5JSG4:3VW04L3ZLVDKAB9RU3PPFO1R25RXXJ,2326,136187_-0.4772727272727273.png,2,108,live
498,A2OZF756R5JSG4:3VW04L3ZLVDKAB9RU3PPFO1R25RXXJ,2124,136232_0.20454545454545459.png,1,109,live
499,A2OZF756R5JSG4:3VW04L3ZLVDKAB9RU3PPFO1R25RXXJ,3177,136175_-0.6590909090909091.png,7,110,live
500,A3PLJLUKN3PEA2:3GFK2QRXXBOWJSKRESA8LMW004C5WP,9338,136218_-0.007575757575757569.png,9,2,live
501,A3PLJLUKN3PEA2:3GFK2QRXXBOWJSKRESA8LMW004C5WP,6805,136259_0.6136363636363638.png,8,3,live
502,A3PLJLUKN3PEA2:3GFK2QRXXBOWJSKRESA8LMW004C5WP,7903,136216_-0.037878787878787845.png,4,4,live
503,A3PLJLUKN3PEA2:3GFK2QRXXBOWJSKRESA8LMW004C5WP,7713,136254_0.5378787878787878.png,7,5,live
504,A3PLJLUKN3PEA2:3GFK2QRXXBOWJSKRESA8LMW004C5WP,7526,136225_0.09848484848484851.png,7,6,live
505,A3PLJLUKN3PEA2:3GFK2QRXXBOWJSKRESA8LMW004C5WP,9546,136170_-0.7348484848484849.png,6,7,live
506,A3PLJLUKN3PEA2:3GFK2QRXXBOWJSKRESA8LMW004C5WP,7093,136239_0.31060606060606055.png,6,8,live
507,A3PLJLUKN3PEA2:3GFK2QRXXBOWJSKRESA8LMW004C5WP,6639,136212_-0.09848484848484851.png,7,9,live
508,A3PLJLUKN3PEA2:3GFK2QRXXBOWJSKRESA8LMW004C5WP,7797,136219_0.007575757575757569.png,6,10,live
509,A3PLJLUKN3PEA2:3GFK2QRXXBOWJSKRESA8LMW004C5WP,4635,136201_-0.26515151515151514.png,5,11,live
510,A3PLJLUKN3PEA2:3GFK2QRXXBOWJSKRESA8LMW004C5WP,7593,136197_-0.32575757575757575.png,8,13,live
511,A3PLJLUKN3PEA2:3GFK2QRXXBOWJSKRESA8LMW004C5WP,5144,136188_-0.4621212121212121.png,4,14,live
512,A3PLJLUKN3PEA2:3GFK2QRXXBOWJSKRESA8LMW004C5WP,7726,136249_0.46212121212121215.png,3,15,live
513,A3PLJLUKN3PEA2:3GFK2QRXXBOWJSKRESA8LMW004C5WP,4598,136260_0.6287878787878789.png,1,16,live
514,A3PLJLUKN3PEA2:3GFK2QRXXBOWJSKRESA8LMW004C5WP,5196,136264_0.6893939393939394.png,5,17,live
515,A3PLJLUKN3PEA2:3GFK2QRXXBOWJSKRESA8LMW004C5WP,7520,136199_-0.2954545454545454.png,5,18,live
516,A3PLJLUKN3PEA2:3GFK2QRXXBOWJSKRESA8LMW004C5WP,5050,136181_-0.5681818181818181.png,3,19,live
517,A3PLJLUKN3PEA2:3GFK2QRXXBOWJSKRESA8LMW004C5WP,4202,136246_0.41666666666666674.png,9,20,live
518,A3PLJLUKN3PEA2:3GFK2QRXXBOWJSKRESA8LMW004C5WP,4313,136196_-0.3409090909090909.png,9,21,live
519,A3PLJLUKN3PEA2:3GFK2QRXXBOWJSKRESA8LMW004C5WP,3783,136232_0.20454545454545459.png,1,22,live
520,A3PLJLUKN3PEA2:3GFK2QRXXBOWJSKRESA8LMW004C5WP,6748,136217_-0.022727272727272707.png,7,24,live
521,A3PLJLUKN3PEA2:3GFK2QRXXBOWJSKRESA8LMW004C5WP,3814,136243_0.3712121212121213.png,1,25,live
522,A3PLJLUKN3PEA2:3GFK2QRXXBOWJSKRESA8LMW004C5WP,3901,136205_-0.20454545454545459.png,7,26,live
523,A3PLJLUKN3PEA2:3GFK2QRXXBOWJSKRESA8LMW004C5WP,7006,136240_0.3257575757575757.png,7,27,live
524,A3PLJLUKN3PEA2:3GFK2QRXXBOWJSKRESA8LMW004C5WP,8405,136203_-0.23484848484848486.png,2,28,live
525,A3PLJLUKN3PEA2:3GFK2QRXXBOWJSKRESA8LMW004C5WP,4230,136169_-0.75.png,8,29,live
526,A3PLJLUKN3PEA2:3GFK2QRXXBOWJSKRESA8LMW004C5WP,4246,136220_0.022727272727272707.png,8,30,live
527,A3PLJLUKN3PEA2:3GFK2QRXXBOWJSKRESA8LMW004C5WP,5442,136202_-0.25.png,3,31,live
528,A3PLJLUKN3PEA2:3GFK2QRXXBOWJSKRESA8LMW004C5WP,5402,136262_0.6590909090909092.png,5,32,live
529,A3PLJLUKN3PEA2:3GFK2QRXXBOWJSKRESA8LMW004C5WP,5757,136226_0.11363636363636365.png,2,33,live
530,A3PLJLUKN3PEA2:3GFK2QRXXBOWJSKRESA8LMW004C5WP,5165,136266_0.7196969696969697.png,7,35,live
531,A3PLJLUKN3PEA2:3GFK2QRXXBOWJSKRESA8LMW004C5WP,4322,136204_-0.21969696969696972.png,6,36,live
532,A3PLJLUKN3PEA2:3GFK2QRXXBOWJSKRESA8LMW004C5WP,3421,136222_0.053030303030303094.png,1,37,live
533,A3PLJLUKN3PEA2:3GFK2QRXXBOWJSKRESA8LMW004C5WP,3917,136238_0.2954545454545454.png,1,38,live
534,A3PLJLUKN3PEA2:3GFK2QRXXBOWJSKRESA8LMW004C5WP,5174,136179_-0.5984848484848485.png,8,39,live
535,A3PLJLUKN3PEA2:3GFK2QRXXBOWJSKRESA8LMW004C5WP,3376,136232_0.20454545454545459.png,1,40,live
536,A3PLJLUKN3PEA2:3GFK2QRXXBOWJSKRESA8LMW004C5WP,4131,136190_-0.4318181818181818.png,8,41,live
537,A3PLJLUKN3PEA2:3GFK2QRXXBOWJSKRESA8LMW004C5WP,5034,136189_-0.44696969696969696.png,4,42,live
538,A3PLJLUKN3PEA2:3GFK2QRXXBOWJSKRESA8LMW004C5WP,4280,136187_-0.4772727272727273.png,5,43,live
539,A3PLJLUKN3PEA2:3GFK2QRXXBOWJSKRESA8LMW004C5WP,9485,136231_0.18939393939393945.png,7,44,live
540,A3PLJLUKN3PEA2:3GFK2QRXXBOWJSKRESA8LMW004C5WP,5376,136176_-0.6439393939393939.png,3,46,live
541,A3PLJLUKN3PEA2:3GFK2QRXXBOWJSKRESA8LMW004C5WP,4944,136209_-0.14393939393939392.png,6,47,live
542,A3PLJLUKN3PEA2:3GFK2QRXXBOWJSKRESA8LMW004C5WP,3822,136230_0.1742424242424243.png,6,48,live
543,A3PLJLUKN3PEA2:3GFK2QRXXBOWJSKRESA8LMW004C5WP,5104,136221_0.037878787878787845.png,6,49,live
544,A3PLJLUKN3PEA2:3GFK2QRXXBOWJSKRESA8LMW004C5WP,6899,136256_0.5681818181818181.png,7,50,live
545,A3PLJLUKN3PEA2:3GFK2QRXXBOWJSKRESA8LMW004C5WP,4649,136261_0.643939393939394.png,7,51,live
546,A3PLJLUKN3PEA2:3GFK2QRXXBOWJSKRESA8LMW004C5WP,4225,136252_0.5075757575757576.png,7,52,live
547,A3PLJLUKN3PEA2:3GFK2QRXXBOWJSKRESA8LMW004C5WP,3666,136201_-0.26515151515151514.png,5,53,live
548,A3PLJLUKN3PEA2:3GFK2QRXXBOWJSKRESA8LMW004C5WP,4765,136259_0.6136363636363638.png,8,54,live
549,A3PLJLUKN3PEA2:3GFK2QRXXBOWJSKRESA8LMW004C5WP,6345,136180_-0.5833333333333333.png,7,55,live
550,A3PLJLUKN3PEA2:3GFK2QRXXBOWJSKRESA8LMW004C5WP,4662,136206_-0.18939393939393934.png,7,57,live
551,A3PLJLUKN3PEA2:3GFK2QRXXBOWJSKRESA8LMW004C5WP,4215,136221_0.037878787878787845.png,7,58,live
552,A3PLJLUKN3PEA2:3GFK2QRXXBOWJSKRESA8LMW004C5WP,4325,136222_0.053030303030303094.png,1,59,live
553,A3PLJLUKN3PEA2:3GFK2QRXXBOWJSKRESA8LMW004C5WP,4855,136213_-0.08333333333333326.png,7,60,live
554,A3PLJLUKN3PEA2:3GFK2QRXXBOWJSKRESA8LMW004C5WP,4027,136185_-0.5075757575757576.png,8,61,live
555,A3PLJLUKN3PEA2:3GFK2QRXXBOWJSKRESA8LMW004C5WP,4165,136184_-0.5227272727272727.png,5,62,live
556,A3PLJLUKN3PEA2:3GFK2QRXXBOWJSKRESA8LMW004C5WP,8517,136174_-0.6742424242424242.png,4,63,live
557,A3PLJLUKN3PEA2:3GFK2QRXXBOWJSKRESA8LMW004C5WP,3713,136172_-0.7045454545454546.png,7,64,live
558,A3PLJLUKN3PEA2:3GFK2QRXXBOWJSKRESA8LMW004C5WP,3983,136243_0.3712121212121213.png,1,65,live
559,A3PLJLUKN3PEA2:3GFK2QRXXBOWJSKRESA8LMW004C5WP,5998,136190_-0.4318181818181818.png,8,66,live
560,A3PLJLUKN3PEA2:3GFK2QRXXBOWJSKRESA8LMW004C5WP,3766,136177_-0.6287878787878788.png,1,68,live
561,A3PLJLUKN3PEA2:3GFK2QRXXBOWJSKRESA8LMW004C5WP,4215,136189_-0.44696969696969696.png,3,69,live
562,A3PLJLUKN3PEA2:3GFK2QRXXBOWJSKRESA8LMW004C5WP,4573,136242_0.3560606060606062.png,8,70,live
563,A3PLJLUKN3PEA2:3GFK2QRXXBOWJSKRESA8LMW004C5WP,3346,136228_0.14393939393939392.png,6,71,live
564,A3PLJLUKN3PEA2:3GFK2QRXXBOWJSKRESA8LMW004C5WP,5160,136193_-0.38636363636363635.png,7,72,live
565,A3PLJLUKN3PEA2:3GFK2QRXXBOWJSKRESA8LMW004C5WP,3874,136200_-0.2803030303030303.png,7,73,live
566,A3PLJLUKN3PEA2:3GFK2QRXXBOWJSKRESA8LMW004C5WP,3593,136250_0.4772727272727273.png,2,74,live
567,A3PLJLUKN3PEA2:3GFK2QRXXBOWJSKRESA8LMW004C5WP,2913,136187_-0.4772727272727273.png,5,75,live
568,A3PLJLUKN3PEA2:3GFK2QRXXBOWJSKRESA8LMW004C5WP,5200,136223_0.06818181818181823.png,9,76,live
569,A3PLJLUKN3PEA2:3GFK2QRXXBOWJSKRESA8LMW004C5WP,4430,136176_-0.6439393939393939.png,3,77,live
570,A3PLJLUKN3PEA2:3GFK2QRXXBOWJSKRESA8LMW004C5WP,3857,136224_0.08333333333333337.png,8,79,live
571,A3PLJLUKN3PEA2:3GFK2QRXXBOWJSKRESA8LMW004C5WP,5010,136215_-0.05303030303030298.png,5,80,live
572,A3PLJLUKN3PEA2:3GFK2QRXXBOWJSKRESA8LMW004C5WP,6146,136215_-0.05303030303030298.png,5,81,live
573,A3PLJLUKN3PEA2:3GFK2QRXXBOWJSKRESA8LMW004C5WP,5564,136182_-0.553030303030303.png,3,82,live
574,A3PLJLUKN3PEA2:3GFK2QRXXBOWJSKRESA8LMW004C5WP,3447,136234_0.23484848484848486.png,6,83,live
575,A3PLJLUKN3PEA2:3GFK2QRXXBOWJSKRESA8LMW004C5WP,6770,136244_0.38636363636363646.png,8,84,live
576,A3PLJLUKN3PEA2:3GFK2QRXXBOWJSKRESA8LMW004C5WP,5551,136175_-0.6590909090909091.png,9,85,live
577,A3PLJLUKN3PEA2:3GFK2QRXXBOWJSKRESA8LMW004C5WP,4856,136265_0.7045454545454546.png,9,86,live
578,A3PLJLUKN3PEA2:3GFK2QRXXBOWJSKRESA8LMW004C5WP,4436,136192_-0.4015151515151515.png,6,87,live
579,A3PLJLUKN3PEA2:3GFK2QRXXBOWJSKRESA8LMW004C5WP,7006,136194_-0.3712121212121212.png,9,88,live
580,A3PLJLUKN3PEA2:3GFK2QRXXBOWJSKRESA8LMW004C5WP,4398,136267_0.7348484848484849.png,7,90,live
581,A3PLJLUKN3PEA2:3GFK2QRXXBOWJSKRESA8LMW004C5WP,3946,136246_0.41666666666666674.png,8,91,live
582,A3PLJLUKN3PEA2:3GFK2QRXXBOWJSKRESA8LMW004C5WP,4628,136197_-0.32575757575757575.png,8,92,live
583,A3PLJLUKN3PEA2:3GFK2QRXXBOWJSKRESA8LMW004C5WP,4952,136172_-0.7045454545454546.png,7,93,live
584,A3PLJLUKN3PEA2:3GFK2QRXXBOWJSKRESA8LMW004C5WP,3839,136218_-0.007575757575757569.png,9,94,live
585,A3PLJLUKN3PEA2:3GFK2QRXXBOWJSKRESA8LMW004C5WP,3648,136178_-0.6136363636363636.png,7,95,live
586,A3PLJLUKN3PEA2:3GFK2QRXXBOWJSKRESA8LMW004C5WP,4486,136179_-0.5984848484848485.png,8,96,live
587,A3PLJLUKN3PEA2:3GFK2QRXXBOWJSKRESA8LMW004C5WP,3879,136183_-0.5378787878787878.png,7,97,live
588,A3PLJLUKN3PEA2:3GFK2QRXXBOWJSKRESA8LMW004C5WP,3945,136224_0.08333333333333337.png,9,98,live
589,A3PLJLUKN3PEA2:3GFK2QRXXBOWJSKRESA8LMW004C5WP,3364,136241_0.34090909090909083.png,7,99,live
590,A3PLJLUKN3PEA2:3GFK2QRXXBOWJSKRESA8LMW004C5WP,4212,136198_-0.3106060606060606.png,4,101,live
591,A3PLJLUKN3PEA2:3GFK2QRXXBOWJSKRESA8LMW004C5WP,4146,136263_0.6742424242424243.png,5,102,live
592,A3PLJLUKN3PEA2:3GFK2QRXXBOWJSKRESA8LMW004C5WP,4226,136248_0.446969696969697.png,7,103,live
593,A3PLJLUKN3PEA2:3GFK2QRXXBOWJSKRESA8LMW004C5WP,8065,136253_0.5227272727272727.png,4,104,live
594,A3PLJLUKN3PEA2:3GFK2QRXXBOWJSKRESA8LMW004C5WP,4856,136195_-0.3560606060606061.png,2,105,live
595,A3PLJLUKN3PEA2:3GFK2QRXXBOWJSKRESA8LMW004C5WP,3256,136223_0.06818181818181823.png,9,106,live
596,A3PLJLUKN3PEA2:3GFK2QRXXBOWJSKRESA8LMW004C5WP,5762,136178_-0.6136363636363636.png,7,107,live
597,A3PLJLUKN3PEA2:3GFK2QRXXBOWJSKRESA8LMW004C5WP,3651,136204_-0.21969696969696972.png,7,108,live
598,A3PLJLUKN3PEA2:3GFK2QRXXBOWJSKRESA8LMW004C5WP,3375,136245_0.4015151515151516.png,5,109,live
599,A3PLJLUKN3PEA2:3GFK2QRXXBOWJSKRESA8LMW004C5WP,4014,136211_-0.11363636363636365.png,2,110,live
600,A1CXWTVNAOBU23:3C5W7UE9CHX9GZANGWNG47LTV18MXP,2995,136204_-0.21969696969696972.png,4,2,live
601,A1CXWTVNAOBU23:3C5W7UE9CHX9GZANGWNG47LTV18MXP,2252,136178_-0.6136363636363636.png,3,3,live
602,A1CXWTVNAOBU23:3C5W7UE9CHX9GZANGWNG47LTV18MXP,2972,136240_0.3257575757575757.png,6,4,live
603,A1CXWTVNAOBU23:3C5W7UE9CHX9GZANGWNG47LTV18MXP,4011,136261_0.643939393939394.png,3,5,live
604,A1CXWTVNAOBU23:3C5W7UE9CHX9GZANGWNG47LTV18MXP,2140,136254_0.5378787878787878.png,8,6,live
605,A1CXWTVNAOBU23:3C5W7UE9CHX9GZANGWNG47LTV18MXP,2379,136222_0.053030303030303094.png,4,7,live
606,A1CXWTVNAOBU23:3C5W7UE9CHX9GZANGWNG47LTV18MXP,2005,136184_-0.5227272727272727.png,5,8,live
607,A1CXWTVNAOBU23:3C5W7UE9CHX9GZANGWNG47LTV18MXP,1990,136204_-0.21969696969696972.png,2,9,live
608,A1CXWTVNAOBU23:3C5W7UE9CHX9GZANGWNG47LTV18MXP,2540,136264_0.6893939393939394.png,5,10,live
609,A1CXWTVNAOBU23:3C5W7UE9CHX9GZANGWNG47LTV18MXP,3060,136249_0.46212121212121215.png,7,11,live
610,A1CXWTVNAOBU23:3C5W7UE9CHX9GZANGWNG47LTV18MXP,3965,136220_0.022727272727272707.png,7,13,live
611,A1CXWTVNAOBU23:3C5W7UE9CHX9GZANGWNG47LTV18MXP,1764,136221_0.037878787878787845.png,7,14,live
612,A1CXWTVNAOBU23:3C5W7UE9CHX9GZANGWNG47LTV18MXP,2172,136193_-0.38636363636363635.png,8,15,live
613,A1CXWTVNAOBU23:3C5W7UE9CHX9GZANGWNG47LTV18MXP,4069,136260_0.6287878787878789.png,2,16,live
614,A1CXWTVNAOBU23:3C5W7UE9CHX9GZANGWNG47LTV18MXP,2501,136231_0.18939393939393945.png,5,17,live
615,A1CXWTVNAOBU23:3C5W7UE9CHX9GZANGWNG47LTV18MXP,1788,136177_-0.6287878787878788.png,4,18,live
616,A1CXWTVNAOBU23:3C5W7UE9CHX9GZANGWNG47LTV18MXP,2995,136224_0.08333333333333337.png,6,19,live
617,A1CXWTVNAOBU23:3C5W7UE9CHX9GZANGWNG47LTV18MXP,1925,136197_-0.32575757575757575.png,7,20,live
618,A1CXWTVNAOBU23:3C5W7UE9CHX9GZANGWNG47LTV18MXP,1508,136230_0.1742424242424243.png,8,21,live
619,A1CXWTVNAOBU23:3C5W7UE9CHX9GZANGWNG47LTV18MXP,3475,136222_0.053030303030303094.png,1,22,live
620,A1CXWTVNAOBU23:3C5W7UE9CHX9GZANGWNG47LTV18MXP,2340,136212_-0.09848484848484851.png,5,24,live
621,A1CXWTVNAOBU23:3C5W7UE9CHX9GZANGWNG47LTV18MXP,2188,136246_0.41666666666666674.png,6,25,live
622,A1CXWTVNAOBU23:3C5W7UE9CHX9GZANGWNG47LTV18MXP,2181,136218_-0.007575757575757569.png,7,26,live
623,A1CXWTVNAOBU23:3C5W7UE9CHX9GZANGWNG47LTV18MXP,1709,136223_0.06818181818181823.png,5,27,live
624,A1CXWTVNAOBU23:3C5W7UE9CHX9GZANGWNG47LTV18MXP,1997,136180_-0.5833333333333333.png,6,28,live
625,A1CXWTVNAOBU23:3C5W7UE9CHX9GZANGWNG47LTV18MXP,2868,136187_-0.4772727272727273.png,3,29,live
626,A1CXWTVNAOBU23:3C5W7UE9CHX9GZANGWNG47LTV18MXP,3228,136201_-0.26515151515151514.png,3,30,live
627,A1CXWTVNAOBU23:3C5W7UE9CHX9GZANGWNG47LTV18MXP,2052,136190_-0.4318181818181818.png,4,31,live
628,A1CXWTVNAOBU23:3C5W7UE9CHX9GZANGWNG47LTV18MXP,1661,136219_0.007575757575757569.png,5,32,live
629,A1CXWTVNAOBU23:3C5W7UE9CHX9GZANGWNG47LTV18MXP,1821,136202_-0.25.png,6,33,live
630,A1CXWTVNAOBU23:3C5W7UE9CHX9GZANGWNG47LTV18MXP,4016,136179_-0.5984848484848485.png,9,35,live
631,A1CXWTVNAOBU23:3C5W7UE9CHX9GZANGWNG47LTV18MXP,2916,136232_0.20454545454545459.png,2,36,live
632,A1CXWTVNAOBU23:3C5W7UE9CHX9GZANGWNG47LTV18MXP,3029,136196_-0.3409090909090909.png,9,37,live
633,A1CXWTVNAOBU23:3C5W7UE9CHX9GZANGWNG47LTV18MXP,3309,136259_0.6136363636363638.png,8,38,live
634,A1CXWTVNAOBU23:3C5W7UE9CHX9GZANGWNG47LTV18MXP,2325,136228_0.14393939393939392.png,9,39,live
635,A1CXWTVNAOBU23:3C5W7UE9CHX9GZANGWNG47LTV18MXP,2141,136172_-0.7045454545454546.png,3,40,live
636,A1CXWTVNAOBU23:3C5W7UE9CHX9GZANGWNG47LTV18MXP,3677,136188_-0.4621212121212121.png,3,41,live
637,A1CXWTVNAOBU23:3C5W7UE9CHX9GZANGWNG47LTV18MXP,5180,136182_-0.553030303030303.png,1,42,live
638,A1CXWTVNAOBU23:3C5W7UE9CHX9GZANGWNG47LTV18MXP,2549,136217_-0.022727272727272707.png,5,43,live
639,A1CXWTVNAOBU23:3C5W7UE9CHX9GZANGWNG47LTV18MXP,2589,136213_-0.08333333333333326.png,7,44,live
640,A1CXWTVNAOBU23:3C5W7UE9CHX9GZANGWNG47LTV18MXP,3018,136195_-0.3560606060606061.png,3,46,live
641,A1CXWTVNAOBU23:3C5W7UE9CHX9GZANGWNG47LTV18MXP,3580,136250_0.4772727272727273.png,2,47,live
642,A1CXWTVNAOBU23:3C5W7UE9CHX9GZANGWNG47LTV18MXP,2228,136194_-0.3712121212121212.png,4,48,live
643,A1CXWTVNAOBU23:3C5W7UE9CHX9GZANGWNG47LTV18MXP,3413,136224_0.08333333333333337.png,7,49,live
644,A1CXWTVNAOBU23:3C5W7UE9CHX9GZANGWNG47LTV18MXP,1844,136241_0.34090909090909083.png,8,50,live
645,A1CXWTVNAOBU23:3C5W7UE9CHX9GZANGWNG47LTV18MXP,4116,136239_0.31060606060606055.png,9,51,live
646,A1CXWTVNAOBU23:3C5W7UE9CHX9GZANGWNG47LTV18MXP,2189,136183_-0.5378787878787878.png,3,52,live
647,A1CXWTVNAOBU23:3C5W7UE9CHX9GZANGWNG47LTV18MXP,3269,136176_-0.6439393939393939.png,9,53,live
648,A1CXWTVNAOBU23:3C5W7UE9CHX9GZANGWNG47LTV18MXP,4428,136203_-0.23484848484848486.png,2,54,live
649,A1CXWTVNAOBU23:3C5W7UE9CHX9GZANGWNG47LTV18MXP,2773,136169_-0.75.png,3,55,live
650,A1CXWTVNAOBU23:3C5W7UE9CHX9GZANGWNG47LTV18MXP,2412,136221_0.037878787878787845.png,4,57,live
651,A1CXWTVNAOBU23:3C5W7UE9CHX9GZANGWNG47LTV18MXP,2779,136244_0.38636363636363646.png,4,58,live
652,A1CXWTVNAOBU23:3C5W7UE9CHX9GZANGWNG47LTV18MXP,1900,136172_-0.7045454545454546.png,3,59,live
653,A1CXWTVNAOBU23:3C5W7UE9CHX9GZANGWNG47LTV18MXP,2524,136197_-0.32575757575757575.png,7,60,live
654,A1CXWTVNAOBU23:3C5W7UE9CHX9GZANGWNG47LTV18MXP,3373,136174_-0.6742424242424242.png,3,61,live
655,A1CXWTVNAOBU23:3C5W7UE9CHX9GZANGWNG47LTV18MXP,4749,136215_-0.05303030303030298.png,6,62,live
656,A1CXWTVNAOBU23:3C5W7UE9CHX9GZANGWNG47LTV18MXP,2997,136198_-0.3106060606060606.png,4,63,live
657,A1CXWTVNAOBU23:3C5W7UE9CHX9GZANGWNG47LTV18MXP,2404,136201_-0.26515151515151514.png,6,64,live
658,A1CXWTVNAOBU23:3C5W7UE9CHX9GZANGWNG47LTV18MXP,2221,136189_-0.44696969696969696.png,6,65,live
659,A1CXWTVNAOBU23:3C5W7UE9CHX9GZANGWNG47LTV18MXP,2428,136265_0.7045454545454546.png,7,66,live
660,A1CXWTVNAOBU23:3C5W7UE9CHX9GZANGWNG47LTV18MXP,2002,136225_0.09848484848484851.png,3,68,live
661,A1CXWTVNAOBU23:3C5W7UE9CHX9GZANGWNG47LTV18MXP,1811,136199_-0.2954545454545454.png,6,69,live
662,A1CXWTVNAOBU23:3C5W7UE9CHX9GZANGWNG47LTV18MXP,2379,136252_0.5075757575757576.png,8,70,live
663,A1CXWTVNAOBU23:3C5W7UE9CHX9GZANGWNG47LTV18MXP,2885,136190_-0.4318181818181818.png,7,71,live
664,A1CXWTVNAOBU23:3C5W7UE9CHX9GZANGWNG47LTV18MXP,2045,136211_-0.11363636363636365.png,4,72,live
665,A1CXWTVNAOBU23:3C5W7UE9CHX9GZANGWNG47LTV18MXP,2213,136266_0.7196969696969697.png,4,73,live
666,A1CXWTVNAOBU23:3C5W7UE9CHX9GZANGWNG47LTV18MXP,2188,136238_0.2954545454545454.png,3,74,live
667,A1CXWTVNAOBU23:3C5W7UE9CHX9GZANGWNG47LTV18MXP,2909,136232_0.20454545454545459.png,2,75,live
668,A1CXWTVNAOBU23:3C5W7UE9CHX9GZANGWNG47LTV18MXP,2364,136216_-0.037878787878787845.png,2,76,live
669,A1CXWTVNAOBU23:3C5W7UE9CHX9GZANGWNG47LTV18MXP,3412,136185_-0.5075757575757576.png,5,77,live
670,A1CXWTVNAOBU23:3C5W7UE9CHX9GZANGWNG47LTV18MXP,3834,136175_-0.6590909090909091.png,7,79,live
671,A1CXWTVNAOBU23:3C5W7UE9CHX9GZANGWNG47LTV18MXP,2443,136262_0.6590909090909092.png,5,80,live
672,A1CXWTVNAOBU23:3C5W7UE9CHX9GZANGWNG47LTV18MXP,3030,136253_0.5227272727272727.png,3,81,live
673,A1CXWTVNAOBU23:3C5W7UE9CHX9GZANGWNG47LTV18MXP,5692,136243_0.3712121212121213.png,1,82,live
674,A1CXWTVNAOBU23:3C5W7UE9CHX9GZANGWNG47LTV18MXP,2796,136248_0.446969696969697.png,9,83,live
675,A1CXWTVNAOBU23:3C5W7UE9CHX9GZANGWNG47LTV18MXP,6085,136218_-0.007575757575757569.png,5,84,live
676,A1CXWTVNAOBU23:3C5W7UE9CHX9GZANGWNG47LTV18MXP,2324,136256_0.5681818181818181.png,9,85,live
677,A1CXWTVNAOBU23:3C5W7UE9CHX9GZANGWNG47LTV18MXP,28956,136242_0.3560606060606062.png,6,86,live
678,A1CXWTVNAOBU23:3C5W7UE9CHX9GZANGWNG47LTV18MXP,2516,136176_-0.6439393939393939.png,9,87,live
679,A1CXWTVNAOBU23:3C5W7UE9CHX9GZANGWNG47LTV18MXP,39228,136181_-0.5681818181818181.png,2,88,live
680,A1CXWTVNAOBU23:3C5W7UE9CHX9GZANGWNG47LTV18MXP,4537,136209_-0.14393939393939392.png,7,90,live
681,A1CXWTVNAOBU23:3C5W7UE9CHX9GZANGWNG47LTV18MXP,2597,136263_0.6742424242424243.png,7,91,live
682,A1CXWTVNAOBU23:3C5W7UE9CHX9GZANGWNG47LTV18MXP,2452,136189_-0.44696969696969696.png,7,92,live
683,A1CXWTVNAOBU23:3C5W7UE9CHX9GZANGWNG47LTV18MXP,2060,136246_0.41666666666666674.png,7,93,live
684,A1CXWTVNAOBU23:3C5W7UE9CHX9GZANGWNG47LTV18MXP,2140,136243_0.3712121212121213.png,1,94,live
685,A1CXWTVNAOBU23:3C5W7UE9CHX9GZANGWNG47LTV18MXP,1819,136259_0.6136363636363638.png,7,95,live
686,A1CXWTVNAOBU23:3C5W7UE9CHX9GZANGWNG47LTV18MXP,2300,136245_0.4015151515151516.png,3,96,live
687,A1CXWTVNAOBU23:3C5W7UE9CHX9GZANGWNG47LTV18MXP,1972,136215_-0.05303030303030298.png,6,97,live
688,A1CXWTVNAOBU23:3C5W7UE9CHX9GZANGWNG47LTV18MXP,2884,136234_0.23484848484848486.png,7,98,live
689,A1CXWTVNAOBU23:3C5W7UE9CHX9GZANGWNG47LTV18MXP,2348,136179_-0.5984848484848485.png,7,99,live
690,A1CXWTVNAOBU23:3C5W7UE9CHX9GZANGWNG47LTV18MXP,3817,136267_0.7348484848484849.png,5,101,live
691,A1CXWTVNAOBU23:3C5W7UE9CHX9GZANGWNG47LTV18MXP,1893,136170_-0.7348484848484849.png,3,102,live
692,A1CXWTVNAOBU23:3C5W7UE9CHX9GZANGWNG47LTV18MXP,2124,136223_0.06818181818181823.png,7,103,live
693,A1CXWTVNAOBU23:3C5W7UE9CHX9GZANGWNG47LTV18MXP,2604,136226_0.11363636363636365.png,2,104,live
694,A1CXWTVNAOBU23:3C5W7UE9CHX9GZANGWNG47LTV18MXP,3188,136205_-0.20454545454545459.png,6,105,live
695,A1CXWTVNAOBU23:3C5W7UE9CHX9GZANGWNG47LTV18MXP,1933,136187_-0.4772727272727273.png,5,106,live
696,A1CXWTVNAOBU23:3C5W7UE9CHX9GZANGWNG47LTV18MXP,2693,136200_-0.2803030303030303.png,9,107,live
697,A1CXWTVNAOBU23:3C5W7UE9CHX9GZANGWNG47LTV18MXP,1939,136192_-0.4015151515151515.png,8,108,live
698,A1CXWTVNAOBU23:3C5W7UE9CHX9GZANGWNG47LTV18MXP,2397,136206_-0.18939393939393934.png,3,109,live
699,A1CXWTVNAOBU23:3C5W7UE9CHX9GZANGWNG47LTV18MXP,2028,136178_-0.6136363636363636.png,8,110,live
700,A3CGDCXIOVQNE6:3U088ZLJVM0XOLYQHM4W4R09JW20W0,3602,136262_0.6590909090909092.png,7,2,live
701,A3CGDCXIOVQNE6:3U088ZLJVM0XOLYQHM4W4R09JW20W0,3102,136217_-0.022727272727272707.png,6,3,live
702,A3CGDCXIOVQNE6:3U088ZLJVM0XOLYQHM4W4R09JW20W0,4542,136189_-0.44696969696969696.png,5,4,live
703,A3CGDCXIOVQNE6:3U088ZLJVM0XOLYQHM4W4R09JW20W0,3091,136252_0.5075757575757576.png,7,5,live
704,A3CGDCXIOVQNE6:3U088ZLJVM0XOLYQHM4W4R09JW20W0,3921,136184_-0.5227272727272727.png,8,6,live
705,A3CGDCXIOVQNE6:3U088ZLJVM0XOLYQHM4W4R09JW20W0,4385,136221_0.037878787878787845.png,5,7,live
706,A3CGDCXIOVQNE6:3U088ZLJVM0XOLYQHM4W4R09JW20W0,2398,136260_0.6287878787878789.png,2,8,live
707,A3CGDCXIOVQNE6:3U088ZLJVM0XOLYQHM4W4R09JW20W0,3168,136197_-0.32575757575757575.png,6,9,live
708,A3CGDCXIOVQNE6:3U088ZLJVM0XOLYQHM4W4R09JW20W0,2497,136223_0.06818181818181823.png,9,10,live
709,A3CGDCXIOVQNE6:3U088ZLJVM0XOLYQHM4W4R09JW20W0,2927,136261_0.643939393939394.png,3,11,live
710,A3CGDCXIOVQNE6:3U088ZLJVM0XOLYQHM4W4R09JW20W0,5977,136232_0.20454545454545459.png,3,13,live
711,A3CGDCXIOVQNE6:3U088ZLJVM0XOLYQHM4W4R09JW20W0,2556,136196_-0.3409090909090909.png,7,14,live
712,A3CGDCXIOVQNE6:3U088ZLJVM0XOLYQHM4W4R09JW20W0,2373,136201_-0.26515151515151514.png,3,15,live
713,A3CGDCXIOVQNE6:3U088ZLJVM0XOLYQHM4W4R09JW20W0,3120,136190_-0.4318181818181818.png,8,16,live
714,A3CGDCXIOVQNE6:3U088ZLJVM0XOLYQHM4W4R09JW20W0,2964,136209_-0.14393939393939392.png,6,17,live
715,A3CGDCXIOVQNE6:3U088ZLJVM0XOLYQHM4W4R09JW20W0,2134,136190_-0.4318181818181818.png,8,18,live
716,A3CGDCXIOVQNE6:3U088ZLJVM0XOLYQHM4W4R09JW20W0,3055,136189_-0.44696969696969696.png,5,19,live
717,A3CGDCXIOVQNE6:3U088ZLJVM0XOLYQHM4W4R09JW20W0,8408,136215_-0.05303030303030298.png,7,20,live
718,A3CGDCXIOVQNE6:3U088ZLJVM0XOLYQHM4W4R09JW20W0,4238,136218_-0.007575757575757569.png,5,21,live
719,A3CGDCXIOVQNE6:3U088ZLJVM0XOLYQHM4W4R09JW20W0,6641,136182_-0.553030303030303.png,2,22,live
720,A3CGDCXIOVQNE6:3U088ZLJVM0XOLYQHM4W4R09JW20W0,4750,136263_0.6742424242424243.png,3,24,live
721,A3CGDCXIOVQNE6:3U088ZLJVM0XOLYQHM4W4R09JW20W0,7547,136204_-0.21969696969696972.png,6,25,live
722,A3CGDCXIOVQNE6:3U088ZLJVM0XOLYQHM4W4R09JW20W0,2471,136224_0.08333333333333337.png,7,26,live
723,A3CGDCXIOVQNE6:3U088ZLJVM0XOLYQHM4W4R09JW20W0,13278,136180_-0.5833333333333333.png,7,27,live
724,A3CGDCXIOVQNE6:3U088ZLJVM0XOLYQHM4W4R09JW20W0,2213,136195_-0.3560606060606061.png,3,28,live
725,A3CGDCXIOVQNE6:3U088ZLJVM0XOLYQHM4W4R09JW20W0,3488,136176_-0.6439393939393939.png,1,29,live
726,A3CGDCXIOVQNE6:3U088ZLJVM0XOLYQHM4W4R09JW20W0,2555,136254_0.5378787878787878.png,8,30,live
727,A3CGDCXIOVQNE6:3U088ZLJVM0XOLYQHM4W4R09JW20W0,6388,136219_0.007575757575757569.png,4,31,live
728,A3CGDCXIOVQNE6:3U088ZLJVM0XOLYQHM4W4R09JW20W0,2221,136220_0.022727272727272707.png,6,32,live
729,A3CGDCXIOVQNE6:3U088ZLJVM0XOLYQHM4W4R09JW20W0,2291,136170_-0.7348484848484849.png,5,33,live
730,A3CGDCXIOVQNE6:3U088ZLJVM0XOLYQHM4W4R09JW20W0,3816,136188_-0.4621212121212121.png,4,35,live
731,A3CGDCXIOVQNE6:3U088ZLJVM0XOLYQHM4W4R09JW20W0,2390,136259_0.6136363636363638.png,8,36,live
732,A3CGDCXIOVQNE6:3U088ZLJVM0XOLYQHM4W4R09JW20W0,3961,136197_-0.32575757575757575.png,5,37,live
733,A3CGDCXIOVQNE6:3U088ZLJVM0XOLYQHM4W4R09JW20W0,13636,136246_0.41666666666666674.png,7,38,live
734,A3CGDCXIOVQNE6:3U088ZLJVM0XOLYQHM4W4R09JW20W0,8151,136249_0.46212121212121215.png,5,39,live
735,A3CGDCXIOVQNE6:3U088ZLJVM0XOLYQHM4W4R09JW20W0,1925,136218_-0.007575757575757569.png,5,40,live
736,A3CGDCXIOVQNE6:3U088ZLJVM0XOLYQHM4W4R09JW20W0,2728,136212_-0.09848484848484851.png,4,41,live
737,A3CGDCXIOVQNE6:3U088ZLJVM0XOLYQHM4W4R09JW20W0,2466,136256_0.5681818181818181.png,5,42,live
738,A3CGDCXIOVQNE6:3U088ZLJVM0XOLYQHM4W4R09JW20W0,4128,136199_-0.2954545454545454.png,6,43,live
739,A3CGDCXIOVQNE6:3U088ZLJVM0XOLYQHM4W4R09JW20W0,5235,136223_0.06818181818181823.png,9,44,live
740,A3CGDCXIOVQNE6:3U088ZLJVM0XOLYQHM4W4R09JW20W0,6060,136264_0.6893939393939394.png,2,46,live
741,A3CGDCXIOVQNE6:3U088ZLJVM0XOLYQHM4W4R09JW20W0,3091,136232_0.20454545454545459.png,3,47,live
742,A3CGDCXIOVQNE6:3U088ZLJVM0XOLYQHM4W4R09JW20W0,2461,136192_-0.4015151515151515.png,7,48,live
743,A3CGDCXIOVQNE6:3U088ZLJVM0XOLYQHM4W4R09JW20W0,2310,136222_0.053030303030303094.png,1,49,live
744,A3CGDCXIOVQNE6:3U088ZLJVM0XOLYQHM4W4R09JW20W0,2498,136181_-0.5681818181818181.png,3,50,live
745,A3CGDCXIOVQNE6:3U088ZLJVM0XOLYQHM4W4R09JW20W0,3455,136178_-0.6136363636363636.png,8,51,live
746,A3CGDCXIOVQNE6:3U088ZLJVM0XOLYQHM4W4R09JW20W0,2511,136216_-0.037878787878787845.png,2,52,live
747,A3CGDCXIOVQNE6:3U088ZLJVM0XOLYQHM4W4R09JW20W0,3019,136239_0.31060606060606055.png,7,53,live
748,A3CGDCXIOVQNE6:3U088ZLJVM0XOLYQHM4W4R09JW20W0,5385,136172_-0.7045454545454546.png,6,54,live
749,A3CGDCXIOVQNE6:3U088ZLJVM0XOLYQHM4W4R09JW20W0,2411,136224_0.08333333333333337.png,6,55,live
750,A3CGDCXIOVQNE6:3U088ZLJVM0XOLYQHM4W4R09JW20W0,2710,136185_-0.5075757575757576.png,4,57,live
751,A3CGDCXIOVQNE6:3U088ZLJVM0XOLYQHM4W4R09JW20W0,2311,136206_-0.18939393939393934.png,6,58,live
752,A3CGDCXIOVQNE6:3U088ZLJVM0XOLYQHM4W4R09JW20W0,2526,136187_-0.4772727272727273.png,2,59,live
753,A3CGDCXIOVQNE6:3U088ZLJVM0XOLYQHM4W4R09JW20W0,2184,136222_0.053030303030303094.png,1,60,live
754,A3CGDCXIOVQNE6:3U088ZLJVM0XOLYQHM4W4R09JW20W0,2230,136198_-0.3106060606060606.png,1,61,live
755,A3CGDCXIOVQNE6:3U088ZLJVM0XOLYQHM4W4R09JW20W0,7095,136179_-0.5984848484848485.png,3,62,live
756,A3CGDCXIOVQNE6:3U088ZLJVM0XOLYQHM4W4R09JW20W0,2277,136225_0.09848484848484851.png,3,63,live
757,A3CGDCXIOVQNE6:3U088ZLJVM0XOLYQHM4W4R09JW20W0,12156,136228_0.14393939393939392.png,4,64,live
758,A3CGDCXIOVQNE6:3U088ZLJVM0XOLYQHM4W4R09JW20W0,3175,136193_-0.38636363636363635.png,6,65,live
759,A3CGDCXIOVQNE6:3U088ZLJVM0XOLYQHM4W4R09JW20W0,2213,136267_0.7348484848484849.png,7,66,live
760,A3CGDCXIOVQNE6:3U088ZLJVM0XOLYQHM4W4R09JW20W0,2351,136226_0.11363636363636365.png,1,68,live
761,A3CGDCXIOVQNE6:3U088ZLJVM0XOLYQHM4W4R09JW20W0,1965,136172_-0.7045454545454546.png,6,69,live
762,A3CGDCXIOVQNE6:3U088ZLJVM0XOLYQHM4W4R09JW20W0,6584,136245_0.4015151515151516.png,7,70,live
763,A3CGDCXIOVQNE6:3U088ZLJVM0XOLYQHM4W4R09JW20W0,10603,136234_0.23484848484848486.png,8,71,live
764,A3CGDCXIOVQNE6:3U088ZLJVM0XOLYQHM4W4R09JW20W0,1981,136183_-0.5378787878787878.png,3,72,live
765,A3CGDCXIOVQNE6:3U088ZLJVM0XOLYQHM4W4R09JW20W0,4798,136243_0.3712121212121213.png,1,73,live
766,A3CGDCXIOVQNE6:3U088ZLJVM0XOLYQHM4W4R09JW20W0,2329,136221_0.037878787878787845.png,5,74,live
767,A3CGDCXIOVQNE6:3U088ZLJVM0XOLYQHM4W4R09JW20W0,2140,136211_-0.11363636363636365.png,2,75,live
768,A3CGDCXIOVQNE6:3U088ZLJVM0XOLYQHM4W4R09JW20W0,2450,136259_0.6136363636363638.png,7,76,live
769,A3CGDCXIOVQNE6:3U088ZLJVM0XOLYQHM4W4R09JW20W0,2454,136265_0.7045454545454546.png,6,77,live
770,A3CGDCXIOVQNE6:3U088ZLJVM0XOLYQHM4W4R09JW20W0,5959,136246_0.41666666666666674.png,7,79,live
771,A3CGDCXIOVQNE6:3U088ZLJVM0XOLYQHM4W4R09JW20W0,3111,136175_-0.6590909090909091.png,6,80,live
772,A3CGDCXIOVQNE6:3U088ZLJVM0XOLYQHM4W4R09JW20W0,2041,136194_-0.3712121212121212.png,8,81,live
773,A3CGDCXIOVQNE6:3U088ZLJVM0XOLYQHM4W4R09JW20W0,2478,136243_0.3712121212121213.png,1,82,live
774,A3CGDCXIOVQNE6:3U088ZLJVM0XOLYQHM4W4R09JW20W0,3341,136204_-0.21969696969696972.png,5,83,live
775,A3CGDCXIOVQNE6:3U088ZLJVM0XOLYQHM4W4R09JW20W0,2325,136241_0.34090909090909083.png,4,84,live
776,A3CGDCXIOVQNE6:3U088ZLJVM0XOLYQHM4W4R09JW20W0,3047,136213_-0.08333333333333326.png,7,85,live
777,A3CGDCXIOVQNE6:3U088ZLJVM0XOLYQHM4W4R09JW20W0,2394,136179_-0.5984848484848485.png,4,86,live
778,A3CGDCXIOVQNE6:3U088ZLJVM0XOLYQHM4W4R09JW20W0,3191,136240_0.3257575757575757.png,7,87,live
779,A3CGDCXIOVQNE6:3U088ZLJVM0XOLYQHM4W4R09JW20W0,5428,136178_-0.6136363636363636.png,8,88,live
780,A3CGDCXIOVQNE6:3U088ZLJVM0XOLYQHM4W4R09JW20W0,6770,136253_0.5227272727272727.png,3,90,live
781,A3CGDCXIOVQNE6:3U088ZLJVM0XOLYQHM4W4R09JW20W0,2333,136201_-0.26515151515151514.png,3,91,live
782,A3CGDCXIOVQNE6:3U088ZLJVM0XOLYQHM4W4R09JW20W0,2398,136176_-0.6439393939393939.png,1,92,live
783,A3CGDCXIOVQNE6:3U088ZLJVM0XOLYQHM4W4R09JW20W0,3010,136266_0.7196969696969697.png,6,93,live
784,A3CGDCXIOVQNE6:3U088ZLJVM0XOLYQHM4W4R09JW20W0,2550,136205_-0.20454545454545459.png,7,94,live
785,A3CGDCXIOVQNE6:3U088ZLJVM0XOLYQHM4W4R09JW20W0,6198,136230_0.1742424242424243.png,6,95,live
786,A3CGDCXIOVQNE6:3U088ZLJVM0XOLYQHM4W4R09JW20W0,3523,136169_-0.75.png,4,96,live
787,A3CGDCXIOVQNE6:3U088ZLJVM0XOLYQHM4W4R09JW20W0,11441,136242_0.3560606060606062.png,7,97,live
788,A3CGDCXIOVQNE6:3U088ZLJVM0XOLYQHM4W4R09JW20W0,2178,136215_-0.05303030303030298.png,6,98,live
789,A3CGDCXIOVQNE6:3U088ZLJVM0XOLYQHM4W4R09JW20W0,2254,136231_0.18939393939393945.png,3,99,live
790,A3CGDCXIOVQNE6:3U088ZLJVM0XOLYQHM4W4R09JW20W0,2233,136244_0.38636363636363646.png,8,101,live
791,A3CGDCXIOVQNE6:3U088ZLJVM0XOLYQHM4W4R09JW20W0,2736,136174_-0.6742424242424242.png,3,102,live
792,A3CGDCXIOVQNE6:3U088ZLJVM0XOLYQHM4W4R09JW20W0,11046,136202_-0.25.png,3,103,live
793,A3CGDCXIOVQNE6:3U088ZLJVM0XOLYQHM4W4R09JW20W0,2166,136250_0.4772727272727273.png,3,104,live
794,A3CGDCXIOVQNE6:3U088ZLJVM0XOLYQHM4W4R09JW20W0,2115,136238_0.2954545454545454.png,2,105,live
795,A3CGDCXIOVQNE6:3U088ZLJVM0XOLYQHM4W4R09JW20W0,3553,136187_-0.4772727272727273.png,2,106,live
796,A3CGDCXIOVQNE6:3U088ZLJVM0XOLYQHM4W4R09JW20W0,2157,136203_-0.23484848484848486.png,1,107,live
797,A3CGDCXIOVQNE6:3U088ZLJVM0XOLYQHM4W4R09JW20W0,2522,136177_-0.6287878787878788.png,2,108,live
798,A3CGDCXIOVQNE6:3U088ZLJVM0XOLYQHM4W4R09JW20W0,2598,136248_0.446969696969697.png,6,109,live
799,A3CGDCXIOVQNE6:3U088ZLJVM0XOLYQHM4W4R09JW20W0,4332,136200_-0.2803030303030303.png,7,110,live
800,A2L53B1MI02U0W:32AT8R96GNGKXQTXVO8FW9LVT8ASUG,11969,136190_-0.4318181818181818.png,8,2,live
801,A2L53B1MI02U0W:32AT8R96GNGKXQTXVO8FW9LVT8ASUG,3771,136196_-0.3409090909090909.png,5,3,live
802,A2L53B1MI02U0W:32AT8R96GNGKXQTXVO8FW9LVT8ASUG,3659,136260_0.6287878787878789.png,2,4,live
803,A2L53B1MI02U0W:32AT8R96GNGKXQTXVO8FW9LVT8ASUG,1988,136217_-0.022727272727272707.png,3,5,live
804,A2L53B1MI02U0W:32AT8R96GNGKXQTXVO8FW9LVT8ASUG,3371,136264_0.6893939393939394.png,4,6,live
805,A2L53B1MI02U0W:32AT8R96GNGKXQTXVO8FW9LVT8ASUG,2347,136221_0.037878787878787845.png,7,7,live
806,A2L53B1MI02U0W:32AT8R96GNGKXQTXVO8FW9LVT8ASUG,2619,136170_-0.7348484848484849.png,6,8,live
807,A2L53B1MI02U0W:32AT8R96GNGKXQTXVO8FW9LVT8ASUG,2156,136244_0.38636363636363646.png,8,9,live
808,A2L53B1MI02U0W:32AT8R96GNGKXQTXVO8FW9LVT8ASUG,2189,136193_-0.38636363636363635.png,8,10,live
809,A2L53B1MI02U0W:32AT8R96GNGKXQTXVO8FW9LVT8ASUG,2060,136250_0.4772727272727273.png,5,11,live
810,A2L53B1MI02U0W:32AT8R96GNGKXQTXVO8FW9LVT8ASUG,2692,136228_0.14393939393939392.png,5,13,live
811,A2L53B1MI02U0W:32AT8R96GNGKXQTXVO8FW9LVT8ASUG,1955,136242_0.3560606060606062.png,6,14,live
812,A2L53B1MI02U0W:32AT8R96GNGKXQTXVO8FW9LVT8ASUG,7819,136224_0.08333333333333337.png,7,15,live
813,A2L53B1MI02U0W:32AT8R96GNGKXQTXVO8FW9LVT8ASUG,2455,136190_-0.4318181818181818.png,8,16,live
814,A2L53B1MI02U0W:32AT8R96GNGKXQTXVO8FW9LVT8ASUG,2075,136216_-0.037878787878787845.png,4,17,live
815,A2L53B1MI02U0W:32AT8R96GNGKXQTXVO8FW9LVT8ASUG,2084,136187_-0.4772727272727273.png,4,18,live
816,A2L53B1MI02U0W:32AT8R96GNGKXQTXVO8FW9LVT8ASUG,2339,136179_-0.5984848484848485.png,6,19,live
817,A2L53B1MI02U0W:32AT8R96GNGKXQTXVO8FW9LVT8ASUG,2483,136200_-0.2803030303030303.png,7,20,live
818,A2L53B1MI02U0W:32AT8R96GNGKXQTXVO8FW9LVT8ASUG,3275,136221_0.037878787878787845.png,7,21,live
819,A2L53B1MI02U0W:32AT8R96GNGKXQTXVO8FW9LVT8ASUG,2132,136259_0.6136363636363638.png,7,22,live
820,A2L53B1MI02U0W:32AT8R96GNGKXQTXVO8FW9LVT8ASUG,2095,136174_-0.6742424242424242.png,5,24,live
821,A2L53B1MI02U0W:32AT8R96GNGKXQTXVO8FW9LVT8ASUG,1668,136218_-0.007575757575757569.png,5,25,live
822,A2L53B1MI02U0W:32AT8R96GNGKXQTXVO8FW9LVT8ASUG,2803,136263_0.6742424242424243.png,2,26,live
823,A2L53B1MI02U0W:32AT8R96GNGKXQTXVO8FW9LVT8ASUG,1924,136202_-0.25.png,3,27,live
824,A2L53B1MI02U0W:32AT8R96GNGKXQTXVO8FW9LVT8ASUG,2244,136192_-0.4015151515151515.png,5,28,live
825,A2L53B1MI02U0W:32AT8R96GNGKXQTXVO8FW9LVT8ASUG,2115,136172_-0.7045454545454546.png,7,29,live
826,A2L53B1MI02U0W:32AT8R96GNGKXQTXVO8FW9LVT8ASUG,6099,136243_0.3712121212121213.png,1,30,live
827,A2L53B1MI02U0W:32AT8R96GNGKXQTXVO8FW9LVT8ASUG,1899,136205_-0.20454545454545459.png,5,31,live
828,A2L53B1MI02U0W:32AT8R96GNGKXQTXVO8FW9LVT8ASUG,3227,136261_0.643939393939394.png,5,32,live
829,A2L53B1MI02U0W:32AT8R96GNGKXQTXVO8FW9LVT8ASUG,2003,136204_-0.21969696969696972.png,5,33,live
830,A2L53B1MI02U0W:32AT8R96GNGKXQTXVO8FW9LVT8ASUG,2190,136232_0.20454545454545459.png,2,35,live
831,A2L53B1MI02U0W:32AT8R96GNGKXQTXVO8FW9LVT8ASUG,2884,136185_-0.5075757575757576.png,7,36,live
832,A2L53B1MI02U0W:32AT8R96GNGKXQTXVO8FW9LVT8ASUG,2235,136256_0.5681818181818181.png,4,37,live
833,A2L53B1MI02U0W:32AT8R96GNGKXQTXVO8FW9LVT8ASUG,2619,136184_-0.5227272727272727.png,3,38,live
834,A2L53B1MI02U0W:32AT8R96GNGKXQTXVO8FW9LVT8ASUG,20865,136201_-0.26515151515151514.png,4,39,live
835,A2L53B1MI02U0W:32AT8R96GNGKXQTXVO8FW9LVT8ASUG,3779,136219_0.007575757575757569.png,4,40,live
836,A2L53B1MI02U0W:32AT8R96GNGKXQTXVO8FW9LVT8ASUG,3371,136181_-0.5681818181818181.png,2,41,live
837,A2L53B1MI02U0W:32AT8R96GNGKXQTXVO8FW9LVT8ASUG,3836,136178_-0.6136363636363636.png,6,42,live
838,A2L53B1MI02U0W:32AT8R96GNGKXQTXVO8FW9LVT8ASUG,2068,136175_-0.6590909090909091.png,7,43,live
839,A2L53B1MI02U0W:32AT8R96GNGKXQTXVO8FW9LVT8ASUG,8035,136199_-0.2954545454545454.png,3,44,live
840,A2L53B1MI02U0W:32AT8R96GNGKXQTXVO8FW9LVT8ASUG,2458,136197_-0.32575757575757575.png,4,46,live
841,A2L53B1MI02U0W:32AT8R96GNGKXQTXVO8FW9LVT8ASUG,3112,136218_-0.007575757575757569.png,6,47,live
842,A2L53B1MI02U0W:32AT8R96GNGKXQTXVO8FW9LVT8ASUG,2148,136194_-0.3712121212121212.png,7,48,live
843,A2L53B1MI02U0W:32AT8R96GNGKXQTXVO8FW9LVT8ASUG,1635,136240_0.3257575757575757.png,7,49,live
844,A2L53B1MI02U0W:32AT8R96GNGKXQTXVO8FW9LVT8ASUG,3690,136232_0.20454545454545459.png,1,50,live
845,A2L53B1MI02U0W:32AT8R96GNGKXQTXVO8FW9LVT8ASUG,2268,136212_-0.09848484848484851.png,2,51,live
846,A2L53B1MI02U0W:32AT8R96GNGKXQTXVO8FW9LVT8ASUG,2179,136241_0.34090909090909083.png,6,52,live
847,A2L53B1MI02U0W:32AT8R96GNGKXQTXVO8FW9LVT8ASUG,2595,136234_0.23484848484848486.png,7,53,live
848,A2L53B1MI02U0W:32AT8R96GNGKXQTXVO8FW9LVT8ASUG,2596,136176_-0.6439393939393939.png,2,54,live
849,A2L53B1MI02U0W:32AT8R96GNGKXQTXVO8FW9LVT8ASUG,14050,136180_-0.5833333333333333.png,5,55,live
850,A2L53B1MI02U0W:32AT8R96GNGKXQTXVO8FW9LVT8ASUG,21317,136177_-0.6287878787878788.png,2,57,live
851,A2L53B1MI02U0W:32AT8R96GNGKXQTXVO8FW9LVT8ASUG,2275,136189_-0.44696969696969696.png,4,58,live
852,A2L53B1MI02U0W:32AT8R96GNGKXQTXVO8FW9LVT8ASUG,1947,136178_-0.6136363636363636.png,6,59,live
853,A2L53B1MI02U0W:32AT8R96GNGKXQTXVO8FW9LVT8ASUG,2559,136197_-0.32575757575757575.png,5,60,live
854,A2L53B1MI02U0W:32AT8R96GNGKXQTXVO8FW9LVT8ASUG,2157,136225_0.09848484848484851.png,4,61,live
855,A2L53B1MI02U0W:32AT8R96GNGKXQTXVO8FW9LVT8ASUG,1579,136189_-0.44696969696969696.png,5,62,live
856,A2L53B1MI02U0W:32AT8R96GNGKXQTXVO8FW9LVT8ASUG,1899,136267_0.7348484848484849.png,6,63,live
857,A2L53B1MI02U0W:32AT8R96GNGKXQTXVO8FW9LVT8ASUG,5146,136243_0.3712121212121213.png,1,64,live
858,A2L53B1MI02U0W:32AT8R96GNGKXQTXVO8FW9LVT8ASUG,2331,136239_0.31060606060606055.png,5,65,live
859,A2L53B1MI02U0W:32AT8R96GNGKXQTXVO8FW9LVT8ASUG,2003,136252_0.5075757575757576.png,6,66,live
860,A2L53B1MI02U0W:32AT8R96GNGKXQTXVO8FW9LVT8ASUG,2382,136188_-0.4621212121212121.png,2,68,live
861,A2L53B1MI02U0W:32AT8R96GNGKXQTXVO8FW9LVT8ASUG,2108,136253_0.5227272727272727.png,4,69,live
862,A2L53B1MI02U0W:32AT8R96GNGKXQTXVO8FW9LVT8ASUG,2443,136223_0.06818181818181823.png,7,70,live
863,A2L53B1MI02U0W:32AT8R96GNGKXQTXVO8FW9LVT8ASUG,1851,136172_-0.7045454545454546.png,8,71,live
864,A2L53B1MI02U0W:32AT8R96GNGKXQTXVO8FW9LVT8ASUG,3100,136213_-0.08333333333333326.png,4,72,live
865,A2L53B1MI02U0W:32AT8R96GNGKXQTXVO8FW9LVT8ASUG,2003,136230_0.1742424242424243.png,5,73,live
866,A2L53B1MI02U0W:32AT8R96GNGKXQTXVO8FW9LVT8ASUG,2306,136201_-0.26515151515151514.png,4,74,live
867,A2L53B1MI02U0W:32AT8R96GNGKXQTXVO8FW9LVT8ASUG,1874,136176_-0.6439393939393939.png,2,75,live
868,A2L53B1MI02U0W:32AT8R96GNGKXQTXVO8FW9LVT8ASUG,2411,136203_-0.23484848484848486.png,1,76,live
869,A2L53B1MI02U0W:32AT8R96GNGKXQTXVO8FW9LVT8ASUG,1955,136220_0.022727272727272707.png,5,77,live
870,A2L53B1MI02U0W:32AT8R96GNGKXQTXVO8FW9LVT8ASUG,41608,136206_-0.18939393939393934.png,5,79,live
871,A2L53B1MI02U0W:32AT8R96GNGKXQTXVO8FW9LVT8ASUG,2531,136231_0.18939393939393945.png,2,80,live
872,A2L53B1MI02U0W:32AT8R96GNGKXQTXVO8FW9LVT8ASUG,2179,136249_0.46212121212121215.png,6,81,live
873,A2L53B1MI02U0W:32AT8R96GNGKXQTXVO8FW9LVT8ASUG,2843,136209_-0.14393939393939392.png,2,82,live
874,A2L53B1MI02U0W:32AT8R96GNGKXQTXVO8FW9LVT8ASUG,3051,136182_-0.553030303030303.png,1,83,live
875,A2L53B1MI02U0W:32AT8R96GNGKXQTXVO8FW9LVT8ASUG,2611,136226_0.11363636363636365.png,1,84,live
876,A2L53B1MI02U0W:32AT8R96GNGKXQTXVO8FW9LVT8ASUG,1956,136265_0.7045454545454546.png,6,85,live
877,A2L53B1MI02U0W:32AT8R96GNGKXQTXVO8FW9LVT8ASUG,3563,136224_0.08333333333333337.png,6,86,live
878,A2L53B1MI02U0W:32AT8R96GNGKXQTXVO8FW9LVT8ASUG,2012,136254_0.5378787878787878.png,6,87,live
879,A2L53B1MI02U0W:32AT8R96GNGKXQTXVO8FW9LVT8ASUG,2931,136259_0.6136363636363638.png,6,88,live
880,A2L53B1MI02U0W:32AT8R96GNGKXQTXVO8FW9LVT8ASUG,3258,136169_-0.75.png,6,90,live
881,A2L53B1MI02U0W:32AT8R96GNGKXQTXVO8FW9LVT8ASUG,2003,136222_0.053030303030303094.png,1,91,live
882,A2L53B1MI02U0W:32AT8R96GNGKXQTXVO8FW9LVT8ASUG,2668,136198_-0.3106060606060606.png,1,92,live
883,A2L53B1MI02U0W:32AT8R96GNGKXQTXVO8FW9LVT8ASUG,1644,136222_0.053030303030303094.png,1,93,live
884,A2L53B1MI02U0W:32AT8R96GNGKXQTXVO8FW9LVT8ASUG,1925,136248_0.446969696969697.png,5,94,live
885,A2L53B1MI02U0W:32AT8R96GNGKXQTXVO8FW9LVT8ASUG,2994,136245_0.4015151515151516.png,5,95,live
886,A2L53B1MI02U0W:32AT8R96GNGKXQTXVO8FW9LVT8ASUG,3787,136211_-0.11363636363636365.png,2,96,live
887,A2L53B1MI02U0W:32AT8R96GNGKXQTXVO8FW9LVT8ASUG,1795,136262_0.6590909090909092.png,5,97,live
888,A2L53B1MI02U0W:32AT8R96GNGKXQTXVO8FW9LVT8ASUG,2268,136195_-0.3560606060606061.png,1,98,live
889,A2L53B1MI02U0W:32AT8R96GNGKXQTXVO8FW9LVT8ASUG,109802,136223_0.06818181818181823.png,7,99,live
890,A2L53B1MI02U0W:32AT8R96GNGKXQTXVO8FW9LVT8ASUG,2515,136204_-0.21969696969696972.png,3,101,live
891,A2L53B1MI02U0W:32AT8R96GNGKXQTXVO8FW9LVT8ASUG,1635,136246_0.41666666666666674.png,7,102,live
892,A2L53B1MI02U0W:32AT8R96GNGKXQTXVO8FW9LVT8ASUG,2907,136179_-0.5984848484848485.png,5,103,live
893,A2L53B1MI02U0W:32AT8R96GNGKXQTXVO8FW9LVT8ASUG,2218,136183_-0.5378787878787878.png,2,104,live
894,A2L53B1MI02U0W:32AT8R96GNGKXQTXVO8FW9LVT8ASUG,2040,136187_-0.4772727272727273.png,3,105,live
895,A2L53B1MI02U0W:32AT8R96GNGKXQTXVO8FW9LVT8ASUG,2499,136215_-0.05303030303030298.png,5,106,live
896,A2L53B1MI02U0W:32AT8R96GNGKXQTXVO8FW9LVT8ASUG,2675,136238_0.2954545454545454.png,1,107,live
897,A2L53B1MI02U0W:32AT8R96GNGKXQTXVO8FW9LVT8ASUG,2356,136266_0.7196969696969697.png,6,108,live
898,A2L53B1MI02U0W:32AT8R96GNGKXQTXVO8FW9LVT8ASUG,2516,136215_-0.05303030303030298.png,5,109,live
899,A2L53B1MI02U0W:32AT8R96GNGKXQTXVO8FW9LVT8ASUG,1904,136246_0.41666666666666674.png,6,110,live
900,A3KC385CZNYEG5:3SNLUL3WO6UXTDY7BFBEKN701EZUL1,7523,136242_0.3560606060606062.png,7,2,live
901,A3KC385CZNYEG5:3SNLUL3WO6UXTDY7BFBEKN701EZUL1,4829,136240_0.3257575757575757.png,6,3,live
902,A3KC385CZNYEG5:3SNLUL3WO6UXTDY7BFBEKN701EZUL1,4811,136249_0.46212121212121215.png,4,4,live
903,A3KC385CZNYEG5:3SNLUL3WO6UXTDY7BFBEKN701EZUL1,7502,136215_-0.05303030303030298.png,7,5,live
904,A3KC385CZNYEG5:3SNLUL3WO6UXTDY7BFBEKN701EZUL1,3179,136190_-0.4318181818181818.png,5,6,live
905,A3KC385CZNYEG5:3SNLUL3WO6UXTDY7BFBEKN701EZUL1,3358,136246_0.41666666666666674.png,7,7,live
906,A3KC385CZNYEG5:3SNLUL3WO6UXTDY7BFBEKN701EZUL1,3621,136179_-0.5984848484848485.png,7,8,live
907,A3KC385CZNYEG5:3SNLUL3WO6UXTDY7BFBEKN701EZUL1,4021,136182_-0.553030303030303.png,4,9,live
908,A3KC385CZNYEG5:3SNLUL3WO6UXTDY7BFBEKN701EZUL1,5061,136220_0.022727272727272707.png,7,10,live
909,A3KC385CZNYEG5:3SNLUL3WO6UXTDY7BFBEKN701EZUL1,3878,136250_0.4772727272727273.png,3,11,live
910,A3KC385CZNYEG5:3SNLUL3WO6UXTDY7BFBEKN701EZUL1,2738,136243_0.3712121212121213.png,2,13,live
911,A3KC385CZNYEG5:3SNLUL3WO6UXTDY7BFBEKN701EZUL1,3837,136206_-0.18939393939393934.png,7,14,live
912,A3KC385CZNYEG5:3SNLUL3WO6UXTDY7BFBEKN701EZUL1,3398,136224_0.08333333333333337.png,8,15,live
913,A3KC385CZNYEG5:3SNLUL3WO6UXTDY7BFBEKN701EZUL1,2724,136176_-0.6439393939393939.png,7,16,live
914,A3KC385CZNYEG5:3SNLUL3WO6UXTDY7BFBEKN701EZUL1,3605,136267_0.7348484848484849.png,6,17,live
915,A3KC385CZNYEG5:3SNLUL3WO6UXTDY7BFBEKN701EZUL1,4301,136213_-0.08333333333333326.png,6,18,live
916,A3KC385CZNYEG5:3SNLUL3WO6UXTDY7BFBEKN701EZUL1,2604,136195_-0.3560606060606061.png,3,19,live
917,A3KC385CZNYEG5:3SNLUL3WO6UXTDY7BFBEKN701EZUL1,2099,136190_-0.4318181818181818.png,5,20,live
918,A3KC385CZNYEG5:3SNLUL3WO6UXTDY7BFBEKN701EZUL1,3949,136216_-0.037878787878787845.png,3,21,live
919,A3KC385CZNYEG5:3SNLUL3WO6UXTDY7BFBEKN701EZUL1,10454,136180_-0.5833333333333333.png,6,22,live
920,A3KC385CZNYEG5:3SNLUL3WO6UXTDY7BFBEKN701EZUL1,3971,136202_-0.25.png,4,24,live
921,A3KC385CZNYEG5:3SNLUL3WO6UXTDY7BFBEKN701EZUL1,2182,136266_0.7196969696969697.png,5,25,live
922,A3KC385CZNYEG5:3SNLUL3WO6UXTDY7BFBEKN701EZUL1,2757,136201_-0.26515151515151514.png,7,26,live
923,A3KC385CZNYEG5:3SNLUL3WO6UXTDY7BFBEKN701EZUL1,2704,136221_0.037878787878787845.png,4,27,live
924,A3KC385CZNYEG5:3SNLUL3WO6UXTDY7BFBEKN701EZUL1,3219,136169_-0.75.png,6,28,live
925,A3KC385CZNYEG5:3SNLUL3WO6UXTDY7BFBEKN701EZUL1,3602,136209_-0.14393939393939392.png,6,29,live
926,A3KC385CZNYEG5:3SNLUL3WO6UXTDY7BFBEKN701EZUL1,4941,136217_-0.022727272727272707.png,5,30,live
927,A3KC385CZNYEG5:3SNLUL3WO6UXTDY7BFBEKN701EZUL1,2555,136172_-0.7045454545454546.png,5,31,live
928,A3KC385CZNYEG5:3SNLUL3WO6UXTDY7BFBEKN701EZUL1,4003,136224_0.08333333333333337.png,7,32,live
929,A3KC385CZNYEG5:3SNLUL3WO6UXTDY7BFBEKN701EZUL1,5316,136228_0.14393939393939392.png,5,33,live
930,A3KC385CZNYEG5:3SNLUL3WO6UXTDY7BFBEKN701EZUL1,2962,136204_-0.21969696969696972.png,5,35,live
931,A3KC385CZNYEG5:3SNLUL3WO6UXTDY7BFBEKN701EZUL1,2877,136212_-0.09848484848484851.png,7,36,live
932,A3KC385CZNYEG5:3SNLUL3WO6UXTDY7BFBEKN701EZUL1,9014,136248_0.446969696969697.png,6,37,live
933,A3KC385CZNYEG5:3SNLUL3WO6UXTDY7BFBEKN701EZUL1,2149,136185_-0.5075757575757576.png,6,38,live
934,A3KC385CZNYEG5:3SNLUL3WO6UXTDY7BFBEKN701EZUL1,6317,136259_0.6136363636363638.png,6,39,live
935,A3KC385CZNYEG5:3SNLUL3WO6UXTDY7BFBEKN701EZUL1,8502,136245_0.4015151515151516.png,6,40,live
936,A3KC385CZNYEG5:3SNLUL3WO6UXTDY7BFBEKN701EZUL1,8078,136184_-0.5227272727272727.png,4,41,live
937,A3KC385CZNYEG5:3SNLUL3WO6UXTDY7BFBEKN701EZUL1,2917,136181_-0.5681818181818181.png,3,42,live
938,A3KC385CZNYEG5:3SNLUL3WO6UXTDY7BFBEKN701EZUL1,6454,136179_-0.5984848484848485.png,7,43,live
939,A3KC385CZNYEG5:3SNLUL3WO6UXTDY7BFBEKN701EZUL1,2115,136232_0.20454545454545459.png,2,44,live
940,A3KC385CZNYEG5:3SNLUL3WO6UXTDY7BFBEKN701EZUL1,7059,136205_-0.20454545454545459.png,7,46,live
941,A3KC385CZNYEG5:3SNLUL3WO6UXTDY7BFBEKN701EZUL1,4156,136204_-0.21969696969696972.png,5,47,live
942,A3KC385CZNYEG5:3SNLUL3WO6UXTDY7BFBEKN701EZUL1,9502,136264_0.6893939393939394.png,5,48,live
943,A3KC385CZNYEG5:3SNLUL3WO6UXTDY7BFBEKN701EZUL1,3933,136170_-0.7348484848484849.png,5,49,live
944,A3KC385CZNYEG5:3SNLUL3WO6UXTDY7BFBEKN701EZUL1,2474,136256_0.5681818181818181.png,5,50,live
945,A3KC385CZNYEG5:3SNLUL3WO6UXTDY7BFBEKN701EZUL1,31213,136197_-0.32575757575757575.png,7,51,live
946,A3KC385CZNYEG5:3SNLUL3WO6UXTDY7BFBEKN701EZUL1,13046,136252_0.5075757575757576.png,7,52,live
947,A3KC385CZNYEG5:3SNLUL3WO6UXTDY7BFBEKN701EZUL1,3683,136223_0.06818181818181823.png,5,53,live
948,A3KC385CZNYEG5:3SNLUL3WO6UXTDY7BFBEKN701EZUL1,10133,136203_-0.23484848484848486.png,3,54,live
949,A3KC385CZNYEG5:3SNLUL3WO6UXTDY7BFBEKN701EZUL1,2309,136261_0.643939393939394.png,6,55,live
950,A3KC385CZNYEG5:3SNLUL3WO6UXTDY7BFBEKN701EZUL1,2709,136189_-0.44696969696969696.png,5,57,live
951,A3KC385CZNYEG5:3SNLUL3WO6UXTDY7BFBEKN701EZUL1,2715,136223_0.06818181818181823.png,5,58,live
952,A3KC385CZNYEG5:3SNLUL3WO6UXTDY7BFBEKN701EZUL1,3549,136226_0.11363636363636365.png,3,59,live
953,A3KC385CZNYEG5:3SNLUL3WO6UXTDY7BFBEKN701EZUL1,2221,136225_0.09848484848484851.png,4,60,live
954,A3KC385CZNYEG5:3SNLUL3WO6UXTDY7BFBEKN701EZUL1,2739,136234_0.23484848484848486.png,7,61,live
955,A3KC385CZNYEG5:3SNLUL3WO6UXTDY7BFBEKN701EZUL1,6878,136253_0.5227272727272727.png,5,62,live
956,A3KC385CZNYEG5:3SNLUL3WO6UXTDY7BFBEKN701EZUL1,2125,136193_-0.38636363636363635.png,5,63,live
957,A3KC385CZNYEG5:3SNLUL3WO6UXTDY7BFBEKN701EZUL1,1878,136194_-0.3712121212121212.png,5,64,live
958,A3KC385CZNYEG5:3SNLUL3WO6UXTDY7BFBEKN701EZUL1,1915,136188_-0.4621212121212121.png,5,65,live
959,A3KC385CZNYEG5:3SNLUL3WO6UXTDY7BFBEKN701EZUL1,2989,136197_-0.32575757575757575.png,6,66,live
960,A3KC385CZNYEG5:3SNLUL3WO6UXTDY7BFBEKN701EZUL1,3219,136243_0.3712121212121213.png,2,68,live
961,A3KC385CZNYEG5:3SNLUL3WO6UXTDY7BFBEKN701EZUL1,2189,136232_0.20454545454545459.png,2,69,live
962,A3KC385CZNYEG5:3SNLUL3WO6UXTDY7BFBEKN701EZUL1,4004,136199_-0.2954545454545454.png,5,70,live
963,A3KC385CZNYEG5:3SNLUL3WO6UXTDY7BFBEKN701EZUL1,3653,136262_0.6590909090909092.png,5,71,live
964,A3KC385CZNYEG5:3SNLUL3WO6UXTDY7BFBEKN701EZUL1,2677,136246_0.41666666666666674.png,6,72,live
965,A3KC385CZNYEG5:3SNLUL3WO6UXTDY7BFBEKN701EZUL1,2245,136183_-0.5378787878787878.png,6,73,live
966,A3KC385CZNYEG5:3SNLUL3WO6UXTDY7BFBEKN701EZUL1,3045,136196_-0.3409090909090909.png,6,74,live
967,A3KC385CZNYEG5:3SNLUL3WO6UXTDY7BFBEKN701EZUL1,2633,136200_-0.2803030303030303.png,7,75,live
968,A3KC385CZNYEG5:3SNLUL3WO6UXTDY7BFBEKN701EZUL1,12150,136192_-0.4015151515151515.png,6,76,live
969,A3KC385CZNYEG5:3SNLUL3WO6UXTDY7BFBEKN701EZUL1,2452,136176_-0.6439393939393939.png,7,77,live
970,A3KC385CZNYEG5:3SNLUL3WO6UXTDY7BFBEKN701EZUL1,2462,136175_-0.6590909090909091.png,5,79,live
971,A3KC385CZNYEG5:3SNLUL3WO6UXTDY7BFBEKN701EZUL1,5102,136218_-0.007575757575757569.png,6,80,live
972,A3KC385CZNYEG5:3SNLUL3WO6UXTDY7BFBEKN701EZUL1,5997,136189_-0.44696969696969696.png,5,81,live
973,A3KC385CZNYEG5:3SNLUL3WO6UXTDY7BFBEKN701EZUL1,3445,136260_0.6287878787878789.png,3,82,live
974,A3KC385CZNYEG5:3SNLUL3WO6UXTDY7BFBEKN701EZUL1,3915,136219_0.007575757575757569.png,8,83,live
975,A3KC385CZNYEG5:3SNLUL3WO6UXTDY7BFBEKN701EZUL1,2917,136230_0.1742424242424243.png,7,84,live
976,A3KC385CZNYEG5:3SNLUL3WO6UXTDY7BFBEKN701EZUL1,2229,136174_-0.6742424242424242.png,6,85,live
977,A3KC385CZNYEG5:3SNLUL3WO6UXTDY7BFBEKN701EZUL1,2181,136187_-0.4772727272727273.png,4,86,live
978,A3KC385CZNYEG5:3SNLUL3WO6UXTDY7BFBEKN701EZUL1,2550,136263_0.6742424242424243.png,5,87,live
979,A3KC385CZNYEG5:3SNLUL3WO6UXTDY7BFBEKN701EZUL1,2146,136201_-0.26515151515151514.png,7,88,live
980,A3KC385CZNYEG5:3SNLUL3WO6UXTDY7BFBEKN701EZUL1,2107,136221_0.037878787878787845.png,4,90,live
981,A3KC385CZNYEG5:3SNLUL3WO6UXTDY7BFBEKN701EZUL1,20958,136172_-0.7045454545454546.png,6,91,live
982,A3KC385CZNYEG5:3SNLUL3WO6UXTDY7BFBEKN701EZUL1,1908,136187_-0.4772727272727273.png,4,92,live
983,A3KC385CZNYEG5:3SNLUL3WO6UXTDY7BFBEKN701EZUL1,5404,136198_-0.3106060606060606.png,6,93,live
984,A3KC385CZNYEG5:3SNLUL3WO6UXTDY7BFBEKN701EZUL1,2548,136211_-0.11363636363636365.png,5,94,live
985,A3KC385CZNYEG5:3SNLUL3WO6UXTDY7BFBEKN701EZUL1,2461,136239_0.31060606060606055.png,5,95,live
986,A3KC385CZNYEG5:3SNLUL3WO6UXTDY7BFBEKN701EZUL1,2396,136222_0.053030303030303094.png,4,96,live
987,A3KC385CZNYEG5:3SNLUL3WO6UXTDY7BFBEKN701EZUL1,5332,136265_0.7045454545454546.png,6,97,live
988,A3KC385CZNYEG5:3SNLUL3WO6UXTDY7BFBEKN701EZUL1,2403,136254_0.5378787878787878.png,6,98,live
989,A3KC385CZNYEG5:3SNLUL3WO6UXTDY7BFBEKN701EZUL1,6708,136178_-0.6136363636363636.png,7,99,live
990,A3KC385CZNYEG5:3SNLUL3WO6UXTDY7BFBEKN701EZUL1,8034,136241_0.34090909090909083.png,6,101,live
991,A3KC385CZNYEG5:3SNLUL3WO6UXTDY7BFBEKN701EZUL1,2052,136231_0.18939393939393945.png,5,102,live
992,A3KC385CZNYEG5:3SNLUL3WO6UXTDY7BFBEKN701EZUL1,21764,136238_0.2954545454545454.png,4,103,live
993,A3KC385CZNYEG5:3SNLUL3WO6UXTDY7BFBEKN701EZUL1,2621,136218_-0.007575757575757569.png,6,104,live
994,A3KC385CZNYEG5:3SNLUL3WO6UXTDY7BFBEKN701EZUL1,3516,136222_0.053030303030303094.png,4,105,live
995,A3KC385CZNYEG5:3SNLUL3WO6UXTDY7BFBEKN701EZUL1,4994,136178_-0.6136363636363636.png,7,106,live
996,A3KC385CZNYEG5:3SNLUL3WO6UXTDY7BFBEKN701EZUL1,2636,136177_-0.6287878787878788.png,4,107,live
997,A3KC385CZNYEG5:3SNLUL3WO6UXTDY7BFBEKN701EZUL1,4422,136244_0.38636363636363646.png,6,108,live
998,A3KC385CZNYEG5:3SNLUL3WO6UXTDY7BFBEKN701EZUL1,7881,136215_-0.05303030303030298.png,7,109,live
999,A3KC385CZNYEG5:3SNLUL3WO6UXTDY7BFBEKN701EZUL1,4773,136259_0.6136363636363638.png,6,110,live
1000,ANVLK95ONV5DL:36NEMU28XHKURZ5X6RRU2O7MMZ0WM4,3104,136194_-0.3712121212121212.png,6,2,live
1001,ANVLK95ONV5DL:36NEMU28XHKURZ5X6RRU2O7MMZ0WM4,1989,136189_-0.44696969696969696.png,6,3,live
1002,ANVLK95ONV5DL:36NEMU28XHKURZ5X6RRU2O7MMZ0WM4,1543,136195_-0.3560606060606061.png,5,4,live
1003,ANVLK95ONV5DL:36NEMU28XHKURZ5X6RRU2O7MMZ0WM4,1552,136216_-0.037878787878787845.png,6,5,live
1004,ANVLK95ONV5DL:36NEMU28XHKURZ5X6RRU2O7MMZ0WM4,2294,136181_-0.5681818181818181.png,4,6,live
1005,ANVLK95ONV5DL:36NEMU28XHKURZ5X6RRU2O7MMZ0WM4,1508,136182_-0.553030303030303.png,5,7,live
1006,ANVLK95ONV5DL:36NEMU28XHKURZ5X6RRU2O7MMZ0WM4,1435,136252_0.5075757575757576.png,6,8,live
1007,ANVLK95ONV5DL:36NEMU28XHKURZ5X6RRU2O7MMZ0WM4,2504,136192_-0.4015151515151515.png,4,9,live
1008,ANVLK95ONV5DL:36NEMU28XHKURZ5X6RRU2O7MMZ0WM4,51376,136222_0.053030303030303094.png,7,10,live
1009,ANVLK95ONV5DL:36NEMU28XHKURZ5X6RRU2O7MMZ0WM4,1670,136184_-0.5227272727272727.png,7,11,live
1010,ANVLK95ONV5DL:36NEMU28XHKURZ5X6RRU2O7MMZ0WM4,1801,136176_-0.6439393939393939.png,5,13,live
1011,ANVLK95ONV5DL:36NEMU28XHKURZ5X6RRU2O7MMZ0WM4,26489,136223_0.06818181818181823.png,6,14,live
1012,ANVLK95ONV5DL:36NEMU28XHKURZ5X6RRU2O7MMZ0WM4,1507,136213_-0.08333333333333326.png,6,15,live
1013,ANVLK95ONV5DL:36NEMU28XHKURZ5X6RRU2O7MMZ0WM4,1419,136223_0.06818181818181823.png,5,16,live
1014,ANVLK95ONV5DL:36NEMU28XHKURZ5X6RRU2O7MMZ0WM4,1508,136215_-0.05303030303030298.png,6,17,live
1015,ANVLK95ONV5DL:36NEMU28XHKURZ5X6RRU2O7MMZ0WM4,2555,136239_0.31060606060606055.png,5,18,live
1016,ANVLK95ONV5DL:36NEMU28XHKURZ5X6RRU2O7MMZ0WM4,2083,136179_-0.5984848484848485.png,6,19,live
1017,ANVLK95ONV5DL:36NEMU28XHKURZ5X6RRU2O7MMZ0WM4,1677,136200_-0.2803030303030303.png,7,20,live
1018,ANVLK95ONV5DL:36NEMU28XHKURZ5X6RRU2O7MMZ0WM4,1249,136187_-0.4772727272727273.png,5,21,live
1019,ANVLK95ONV5DL:36NEMU28XHKURZ5X6RRU2O7MMZ0WM4,1531,136249_0.46212121212121215.png,6,22,live
1020,ANVLK95ONV5DL:36NEMU28XHKURZ5X6RRU2O7MMZ0WM4,1797,136261_0.643939393939394.png,6,24,live
1021,ANVLK95ONV5DL:36NEMU28XHKURZ5X6RRU2O7MMZ0WM4,1424,136234_0.23484848484848486.png,5,25,live
1022,ANVLK95ONV5DL:36NEMU28XHKURZ5X6RRU2O7MMZ0WM4,1994,136246_0.41666666666666674.png,4,26,live
1023,ANVLK95ONV5DL:36NEMU28XHKURZ5X6RRU2O7MMZ0WM4,1371,136244_0.38636363636363646.png,5,27,live
1024,ANVLK95ONV5DL:36NEMU28XHKURZ5X6RRU2O7MMZ0WM4,1343,136241_0.34090909090909083.png,6,28,live
1025,ANVLK95ONV5DL:36NEMU28XHKURZ5X6RRU2O7MMZ0WM4,1572,136240_0.3257575757575757.png,4,29,live
1026,ANVLK95ONV5DL:36NEMU28XHKURZ5X6RRU2O7MMZ0WM4,2231,136231_0.18939393939393945.png,5,30,live
1027,ANVLK95ONV5DL:36NEMU28XHKURZ5X6RRU2O7MMZ0WM4,1614,136187_-0.4772727272727273.png,6,31,live
1028,ANVLK95ONV5DL:36NEMU28XHKURZ5X6RRU2O7MMZ0WM4,2510,136169_-0.75.png,7,32,live
1029,ANVLK95ONV5DL:36NEMU28XHKURZ5X6RRU2O7MMZ0WM4,1886,136232_0.20454545454545459.png,4,33,live
1030,ANVLK95ONV5DL:36NEMU28XHKURZ5X6RRU2O7MMZ0WM4,1664,136211_-0.11363636363636365.png,4,35,live
1031,ANVLK95ONV5DL:36NEMU28XHKURZ5X6RRU2O7MMZ0WM4,1566,136177_-0.6287878787878788.png,5,36,live
1032,ANVLK95ONV5DL:36NEMU28XHKURZ5X6RRU2O7MMZ0WM4,1663,136212_-0.09848484848484851.png,6,37,live
1033,ANVLK95ONV5DL:36NEMU28XHKURZ5X6RRU2O7MMZ0WM4,1982,136180_-0.5833333333333333.png,7,38,live
1034,ANVLK95ONV5DL:36NEMU28XHKURZ5X6RRU2O7MMZ0WM4,1324,136250_0.4772727272727273.png,4,39,live
1035,ANVLK95ONV5DL:36NEMU28XHKURZ5X6RRU2O7MMZ0WM4,1435,136242_0.3560606060606062.png,6,40,live
1036,ANVLK95ONV5DL:36NEMU28XHKURZ5X6RRU2O7MMZ0WM4,1611,136204_-0.21969696969696972.png,4,41,live
1037,ANVLK95ONV5DL:36NEMU28XHKURZ5X6RRU2O7MMZ0WM4,1691,136172_-0.7045454545454546.png,3,42,live
1038,ANVLK95ONV5DL:36NEMU28XHKURZ5X6RRU2O7MMZ0WM4,2359,136228_0.14393939393939392.png,6,43,live
1039,ANVLK95ONV5DL:36NEMU28XHKURZ5X6RRU2O7MMZ0WM4,1711,136238_0.2954545454545454.png,7,44,live
1040,ANVLK95ONV5DL:36NEMU28XHKURZ5X6RRU2O7MMZ0WM4,1819,136178_-0.6136363636363636.png,6,46,live
1041,ANVLK95ONV5DL:36NEMU28XHKURZ5X6RRU2O7MMZ0WM4,1474,136183_-0.5378787878787878.png,5,47,live
1042,ANVLK95ONV5DL:36NEMU28XHKURZ5X6RRU2O7MMZ0WM4,2305,136174_-0.6742424242424242.png,7,48,live
1043,ANVLK95ONV5DL:36NEMU28XHKURZ5X6RRU2O7MMZ0WM4,1633,136245_0.4015151515151516.png,6,49,live
