,subId,rt,imgName,rating,trial_index,debug_mode
0,A2C7TMRC2QHTIW:3X87C8JFV8IS5XMGEFOAM8O6PHZSQT,2630,071197.jpg,5,2,live
1,A2C7TMRC2QHTIW:3X87C8JFV8IS5XMGEFOAM8O6PHZSQT,1899,043872.jpg,2,3,live
2,A2C7TMRC2QHTIW:3X87C8JFV8IS5XMGEFOAM8O6PHZSQT,1389,151719.jpg,2,4,live
3,A2C7TMRC2QHTIW:3X87C8JFV8IS5XMGEFOAM8O6PHZSQT,1283,032084.jpg,1,5,live
4,A2C7TMRC2QHTIW:3X87C8JFV8IS5XMGEFOAM8O6PHZSQT,1756,110369.jpg,8,6,live
5,A2C7TMRC2QHTIW:3X87C8JFV8IS5XMGEFOAM8O6PHZSQT,1638,031763.jpg,1,7,live
6,A2C7TMRC2QHTIW:3X87C8JFV8IS5XMGEFOAM8O6PHZSQT,1849,117797.jpg,6,8,live
7,A2C7TMRC2QHTIW:3X87C8JFV8IS5XMGEFOAM8O6PHZSQT,1532,083782.jpg,1,9,live
8,A2C7TMRC2QHTIW:3X87C8JFV8IS5XMGEFOAM8O6PHZSQT,2547,174354.jpg,9,10,live
9,A2C7TMRC2QHTIW:3X87C8JFV8IS5XMGEFOAM8O6PHZSQT,1851,176723.jpg,7,11,live
10,A2C7TMRC2QHTIW:3X87C8JFV8IS5XMGEFOAM8O6PHZSQT,1858,024060.jpg,2,13,live
11,A2C7TMRC2QHTIW:3X87C8JFV8IS5XMGEFOAM8O6PHZSQT,1776,129756.jpg,1,14,live
12,A2C7TMRC2QHTIW:3X87C8JFV8IS5XMGEFOAM8O6PHZSQT,1543,025788.jpg,5,15,live
13,A2C7TMRC2QHTIW:3X87C8JFV8IS5XMGEFOAM8O6PHZSQT,1555,100006.jpg,1,16,live
14,A2C7TMRC2QHTIW:3X87C8JFV8IS5XMGEFOAM8O6PHZSQT,1715,053041.jpg,1,17,live
15,A2C7TMRC2QHTIW:3X87C8JFV8IS5XMGEFOAM8O6PHZSQT,2005,015405.jpg,1,18,live
16,A2C7TMRC2QHTIW:3X87C8JFV8IS5XMGEFOAM8O6PHZSQT,1260,052537.jpg,1,19,live
17,A2C7TMRC2QHTIW:3X87C8JFV8IS5XMGEFOAM8O6PHZSQT,3354,093378.jpg,6,20,live
18,A2C7TMRC2QHTIW:3X87C8JFV8IS5XMGEFOAM8O6PHZSQT,1996,093378.jpg,6,21,live
19,A2C7TMRC2QHTIW:3X87C8JFV8IS5XMGEFOAM8O6PHZSQT,2043,077010.jpg,1,22,live
20,A2C7TMRC2QHTIW:3X87C8JFV8IS5XMGEFOAM8O6PHZSQT,1702,042306.jpg,1,24,live
21,A2C7TMRC2QHTIW:3X87C8JFV8IS5XMGEFOAM8O6PHZSQT,2803,076493.jpg,8,25,live
22,A2C7TMRC2QHTIW:3X87C8JFV8IS5XMGEFOAM8O6PHZSQT,1570,100978.jpg,7,26,live
23,A2C7TMRC2QHTIW:3X87C8JFV8IS5XMGEFOAM8O6PHZSQT,2315,016460.jpg,4,27,live
24,A2C7TMRC2QHTIW:3X87C8JFV8IS5XMGEFOAM8O6PHZSQT,1899,065232.jpg,8,28,live
25,A2C7TMRC2QHTIW:3X87C8JFV8IS5XMGEFOAM8O6PHZSQT,2060,124569.jpg,5,29,live
26,A2C7TMRC2QHTIW:3X87C8JFV8IS5XMGEFOAM8O6PHZSQT,2091,077169.jpg,6,30,live
27,A2C7TMRC2QHTIW:3X87C8JFV8IS5XMGEFOAM8O6PHZSQT,1965,098615.jpg,5,31,live
28,A2C7TMRC2QHTIW:3X87C8JFV8IS5XMGEFOAM8O6PHZSQT,2179,054938.jpg,5,32,live
29,A2C7TMRC2QHTIW:3X87C8JFV8IS5XMGEFOAM8O6PHZSQT,1603,150552.jpg,4,33,live
30,A2C7TMRC2QHTIW:3X87C8JFV8IS5XMGEFOAM8O6PHZSQT,1742,056648.jpg,6,35,live
31,A2C7TMRC2QHTIW:3X87C8JFV8IS5XMGEFOAM8O6PHZSQT,1962,202552.jpg,2,36,live
32,A2C7TMRC2QHTIW:3X87C8JFV8IS5XMGEFOAM8O6PHZSQT,2187,088398.jpg,8,37,live
33,A2C7TMRC2QHTIW:3X87C8JFV8IS5XMGEFOAM8O6PHZSQT,2108,081054.jpg,1,38,live
34,A2C7TMRC2QHTIW:3X87C8JFV8IS5XMGEFOAM8O6PHZSQT,1747,032472.jpg,6,39,live
35,A2C7TMRC2QHTIW:3X87C8JFV8IS5XMGEFOAM8O6PHZSQT,1411,038546.jpg,6,40,live
36,A2C7TMRC2QHTIW:3X87C8JFV8IS5XMGEFOAM8O6PHZSQT,1467,086810.jpg,1,41,live
37,A2C7TMRC2QHTIW:3X87C8JFV8IS5XMGEFOAM8O6PHZSQT,1675,113079.jpg,7,42,live
38,A2C7TMRC2QHTIW:3X87C8JFV8IS5XMGEFOAM8O6PHZSQT,2180,078190.jpg,6,43,live
39,A2C7TMRC2QHTIW:3X87C8JFV8IS5XMGEFOAM8O6PHZSQT,1779,049463.jpg,1,44,live
40,A2C7TMRC2QHTIW:3X87C8JFV8IS5XMGEFOAM8O6PHZSQT,1671,143051.jpg,1,46,live
41,A2C7TMRC2QHTIW:3X87C8JFV8IS5XMGEFOAM8O6PHZSQT,3296,143767.jpg,1,47,live
42,A2C7TMRC2QHTIW:3X87C8JFV8IS5XMGEFOAM8O6PHZSQT,1747,054459.jpg,7,48,live
43,A2C7TMRC2QHTIW:3X87C8JFV8IS5XMGEFOAM8O6PHZSQT,1820,140421.jpg,3,49,live
44,A2C7TMRC2QHTIW:3X87C8JFV8IS5XMGEFOAM8O6PHZSQT,1436,066051.jpg,1,50,live
45,A2C7TMRC2QHTIW:3X87C8JFV8IS5XMGEFOAM8O6PHZSQT,1147,142657.jpg,1,51,live
46,A2C7TMRC2QHTIW:3X87C8JFV8IS5XMGEFOAM8O6PHZSQT,1185,076409.jpg,1,52,live
47,A2C7TMRC2QHTIW:3X87C8JFV8IS5XMGEFOAM8O6PHZSQT,1173,015405.jpg,1,53,live
48,A2C7TMRC2QHTIW:3X87C8JFV8IS5XMGEFOAM8O6PHZSQT,2099,124569.jpg,3,54,live
49,A2C7TMRC2QHTIW:3X87C8JFV8IS5XMGEFOAM8O6PHZSQT,1603,078190.jpg,5,55,live
50,A2C7TMRC2QHTIW:3X87C8JFV8IS5XMGEFOAM8O6PHZSQT,1615,020087.jpg,7,57,live
51,A2C7TMRC2QHTIW:3X87C8JFV8IS5XMGEFOAM8O6PHZSQT,2139,144125.jpg,6,58,live
52,A2C7TMRC2QHTIW:3X87C8JFV8IS5XMGEFOAM8O6PHZSQT,1995,084323.jpg,3,59,live
53,A2C7TMRC2QHTIW:3X87C8JFV8IS5XMGEFOAM8O6PHZSQT,1483,068350.jpg,1,60,live
54,A2C7TMRC2QHTIW:3X87C8JFV8IS5XMGEFOAM8O6PHZSQT,1155,088677.jpg,1,61,live
55,A2C7TMRC2QHTIW:3X87C8JFV8IS5XMGEFOAM8O6PHZSQT,1059,091837.jpg,1,62,live
56,A2C7TMRC2QHTIW:3X87C8JFV8IS5XMGEFOAM8O6PHZSQT,1668,142336.jpg,8,63,live
57,A2C7TMRC2QHTIW:3X87C8JFV8IS5XMGEFOAM8O6PHZSQT,1611,087519.jpg,1,64,live
58,A2C7TMRC2QHTIW:3X87C8JFV8IS5XMGEFOAM8O6PHZSQT,1548,142336.jpg,8,65,live
59,A2C7TMRC2QHTIW:3X87C8JFV8IS5XMGEFOAM8O6PHZSQT,1804,054459.jpg,7,66,live
60,A2C7TMRC2QHTIW:3X87C8JFV8IS5XMGEFOAM8O6PHZSQT,1957,053394.jpg,7,68,live
61,A2C7TMRC2QHTIW:3X87C8JFV8IS5XMGEFOAM8O6PHZSQT,1931,127601.jpg,3,69,live
62,A2C7TMRC2QHTIW:3X87C8JFV8IS5XMGEFOAM8O6PHZSQT,1444,185343.jpg,5,70,live
63,A2C7TMRC2QHTIW:3X87C8JFV8IS5XMGEFOAM8O6PHZSQT,1547,106414.jpg,1,71,live
64,A2C7TMRC2QHTIW:3X87C8JFV8IS5XMGEFOAM8O6PHZSQT,1987,042306.jpg,1,72,live
65,A2C7TMRC2QHTIW:3X87C8JFV8IS5XMGEFOAM8O6PHZSQT,1891,100684.jpg,3,73,live
66,A2C7TMRC2QHTIW:3X87C8JFV8IS5XMGEFOAM8O6PHZSQT,1427,086142.jpg,1,74,live
67,A2C7TMRC2QHTIW:3X87C8JFV8IS5XMGEFOAM8O6PHZSQT,1379,087519.jpg,1,75,live
68,A2C7TMRC2QHTIW:3X87C8JFV8IS5XMGEFOAM8O6PHZSQT,1472,077010.jpg,1,76,live
69,A2C7TMRC2QHTIW:3X87C8JFV8IS5XMGEFOAM8O6PHZSQT,2706,101907.jpg,1,77,live
70,A2C7TMRC2QHTIW:3X87C8JFV8IS5XMGEFOAM8O6PHZSQT,2311,154870.jpg,3,79,live
71,A2C7TMRC2QHTIW:3X87C8JFV8IS5XMGEFOAM8O6PHZSQT,1339,052537.jpg,1,80,live
72,A2C7TMRC2QHTIW:3X87C8JFV8IS5XMGEFOAM8O6PHZSQT,2371,124843.jpg,7,81,live
73,A2C7TMRC2QHTIW:3X87C8JFV8IS5XMGEFOAM8O6PHZSQT,1562,049463.jpg,1,82,live
74,A2C7TMRC2QHTIW:3X87C8JFV8IS5XMGEFOAM8O6PHZSQT,1523,165401.jpg,5,83,live
75,A2C7TMRC2QHTIW:3X87C8JFV8IS5XMGEFOAM8O6PHZSQT,1507,143051.jpg,1,84,live
76,A2C7TMRC2QHTIW:3X87C8JFV8IS5XMGEFOAM8O6PHZSQT,1795,024231.jpg,5,85,live
77,A2C7TMRC2QHTIW:3X87C8JFV8IS5XMGEFOAM8O6PHZSQT,4435,077518.jpg,7,86,live
78,A2C7TMRC2QHTIW:3X87C8JFV8IS5XMGEFOAM8O6PHZSQT,1531,127601.jpg,5,87,live
79,A2C7TMRC2QHTIW:3X87C8JFV8IS5XMGEFOAM8O6PHZSQT,1483,034432.jpg,3,88,live
80,A2C7TMRC2QHTIW:3X87C8JFV8IS5XMGEFOAM8O6PHZSQT,2332,124843.jpg,7,90,live
81,A2C7TMRC2QHTIW:3X87C8JFV8IS5XMGEFOAM8O6PHZSQT,1675,012584.jpg,8,91,live
82,A2C7TMRC2QHTIW:3X87C8JFV8IS5XMGEFOAM8O6PHZSQT,1715,056106.jpg,9,92,live
83,A2C7TMRC2QHTIW:3X87C8JFV8IS5XMGEFOAM8O6PHZSQT,2011,144125.jpg,5,93,live
84,A2C7TMRC2QHTIW:3X87C8JFV8IS5XMGEFOAM8O6PHZSQT,1612,129756.jpg,1,94,live
85,A2C7TMRC2QHTIW:3X87C8JFV8IS5XMGEFOAM8O6PHZSQT,1170,173118.jpg,1,95,live
86,A2C7TMRC2QHTIW:3X87C8JFV8IS5XMGEFOAM8O6PHZSQT,1027,077071.jpg,1,96,live
87,A2C7TMRC2QHTIW:3X87C8JFV8IS5XMGEFOAM8O6PHZSQT,1483,176723.jpg,6,97,live
88,A2C7TMRC2QHTIW:3X87C8JFV8IS5XMGEFOAM8O6PHZSQT,1972,028197.jpg,4,98,live
89,A2C7TMRC2QHTIW:3X87C8JFV8IS5XMGEFOAM8O6PHZSQT,1507,186059.jpg,1,99,live
90,A2C7TMRC2QHTIW:3X87C8JFV8IS5XMGEFOAM8O6PHZSQT,1729,035472.jpg,1,101,live
91,A2C7TMRC2QHTIW:3X87C8JFV8IS5XMGEFOAM8O6PHZSQT,1707,077518.jpg,5,102,live
92,A2C7TMRC2QHTIW:3X87C8JFV8IS5XMGEFOAM8O6PHZSQT,2051,050845.jpg,4,103,live
93,A2C7TMRC2QHTIW:3X87C8JFV8IS5XMGEFOAM8O6PHZSQT,1427,113016.jpg,1,104,live
94,A2C7TMRC2QHTIW:3X87C8JFV8IS5XMGEFOAM8O6PHZSQT,1443,091837.jpg,1,105,live
95,A2C7TMRC2QHTIW:3X87C8JFV8IS5XMGEFOAM8O6PHZSQT,1634,106149.jpg,7,106,live
96,A2C7TMRC2QHTIW:3X87C8JFV8IS5XMGEFOAM8O6PHZSQT,1748,023266.jpg,6,107,live
97,A2C7TMRC2QHTIW:3X87C8JFV8IS5XMGEFOAM8O6PHZSQT,1683,064273.jpg,8,108,live
98,A2C7TMRC2QHTIW:3X87C8JFV8IS5XMGEFOAM8O6PHZSQT,2115,153051.jpg,7,109,live
99,A2C7TMRC2QHTIW:3X87C8JFV8IS5XMGEFOAM8O6PHZSQT,2005,038546.jpg,8,110,live
100,A3KC385CZNYEG5:3A4TN5196MPZLNYHY3BGYPSNCRIHCT,7533,127601.jpg,2,2,live
101,A3KC385CZNYEG5:3A4TN5196MPZLNYHY3BGYPSNCRIHCT,4231,110369.jpg,5,3,live
102,A3KC385CZNYEG5:3A4TN5196MPZLNYHY3BGYPSNCRIHCT,3392,124843.jpg,6,4,live
103,A3KC385CZNYEG5:3A4TN5196MPZLNYHY3BGYPSNCRIHCT,5367,173118.jpg,5,5,live
104,A3KC385CZNYEG5:3A4TN5196MPZLNYHY3BGYPSNCRIHCT,10231,015405.jpg,5,6,live
105,A3KC385CZNYEG5:3A4TN5196MPZLNYHY3BGYPSNCRIHCT,12567,113016.jpg,3,7,live
106,A3KC385CZNYEG5:3A4TN5196MPZLNYHY3BGYPSNCRIHCT,3719,056106.jpg,8,8,live
107,A3KC385CZNYEG5:3A4TN5196MPZLNYHY3BGYPSNCRIHCT,3973,124843.jpg,6,9,live
108,A3KC385CZNYEG5:3A4TN5196MPZLNYHY3BGYPSNCRIHCT,4127,083782.jpg,3,10,live
109,A3KC385CZNYEG5:3A4TN5196MPZLNYHY3BGYPSNCRIHCT,3623,053041.jpg,3,11,live
110,A3KC385CZNYEG5:3A4TN5196MPZLNYHY3BGYPSNCRIHCT,11314,081054.jpg,4,13,live
111,A3KC385CZNYEG5:3A4TN5196MPZLNYHY3BGYPSNCRIHCT,4062,077518.jpg,5,14,live
112,A3KC385CZNYEG5:3A4TN5196MPZLNYHY3BGYPSNCRIHCT,3510,100006.jpg,6,15,live
113,A3KC385CZNYEG5:3A4TN5196MPZLNYHY3BGYPSNCRIHCT,2647,024060.jpg,5,16,live
114,A3KC385CZNYEG5:3A4TN5196MPZLNYHY3BGYPSNCRIHCT,3167,142336.jpg,6,17,live
115,A3KC385CZNYEG5:3A4TN5196MPZLNYHY3BGYPSNCRIHCT,3872,124569.jpg,3,18,live
116,A3KC385CZNYEG5:3A4TN5196MPZLNYHY3BGYPSNCRIHCT,6175,117797.jpg,4,19,live
117,A3KC385CZNYEG5:3A4TN5196MPZLNYHY3BGYPSNCRIHCT,2504,129756.jpg,5,20,live
118,A3KC385CZNYEG5:3A4TN5196MPZLNYHY3BGYPSNCRIHCT,4888,035472.jpg,4,21,live
119,A3KC385CZNYEG5:3A4TN5196MPZLNYHY3BGYPSNCRIHCT,4652,151719.jpg,6,22,live
120,A3KC385CZNYEG5:3A4TN5196MPZLNYHY3BGYPSNCRIHCT,12673,015405.jpg,5,24,live
121,A3KC385CZNYEG5:3A4TN5196MPZLNYHY3BGYPSNCRIHCT,6303,032472.jpg,6,25,live
122,A3KC385CZNYEG5:3A4TN5196MPZLNYHY3BGYPSNCRIHCT,1830,142336.jpg,6,26,live
123,A3KC385CZNYEG5:3A4TN5196MPZLNYHY3BGYPSNCRIHCT,3804,087519.jpg,3,27,live
124,A3KC385CZNYEG5:3A4TN5196MPZLNYHY3BGYPSNCRIHCT,2758,140421.jpg,4,28,live
125,A3KC385CZNYEG5:3A4TN5196MPZLNYHY3BGYPSNCRIHCT,3206,064273.jpg,7,29,live
126,A3KC385CZNYEG5:3A4TN5196MPZLNYHY3BGYPSNCRIHCT,2561,054459.jpg,6,30,live
127,A3KC385CZNYEG5:3A4TN5196MPZLNYHY3BGYPSNCRIHCT,2279,042306.jpg,6,31,live
128,A3KC385CZNYEG5:3A4TN5196MPZLNYHY3BGYPSNCRIHCT,3367,106149.jpg,6,32,live
129,A3KC385CZNYEG5:3A4TN5196MPZLNYHY3BGYPSNCRIHCT,3951,077010.jpg,3,33,live
130,A3KC385CZNYEG5:3A4TN5196MPZLNYHY3BGYPSNCRIHCT,6595,056648.jpg,6,35,live
131,A3KC385CZNYEG5:3A4TN5196MPZLNYHY3BGYPSNCRIHCT,3614,032084.jpg,3,36,live
132,A3KC385CZNYEG5:3A4TN5196MPZLNYHY3BGYPSNCRIHCT,2413,042306.jpg,6,37,live
133,A3KC385CZNYEG5:3A4TN5196MPZLNYHY3BGYPSNCRIHCT,2552,043872.jpg,4,38,live
134,A3KC385CZNYEG5:3A4TN5196MPZLNYHY3BGYPSNCRIHCT,5214,028197.jpg,2,39,live
135,A3KC385CZNYEG5:3A4TN5196MPZLNYHY3BGYPSNCRIHCT,3359,087519.jpg,3,40,live
136,A3KC385CZNYEG5:3A4TN5196MPZLNYHY3BGYPSNCRIHCT,4031,101907.jpg,5,41,live
137,A3KC385CZNYEG5:3A4TN5196MPZLNYHY3BGYPSNCRIHCT,8766,078190.jpg,6,42,live
138,A3KC385CZNYEG5:3A4TN5196MPZLNYHY3BGYPSNCRIHCT,4174,066051.jpg,6,43,live
139,A3KC385CZNYEG5:3A4TN5196MPZLNYHY3BGYPSNCRIHCT,2175,129756.jpg,6,44,live
140,A3KC385CZNYEG5:3A4TN5196MPZLNYHY3BGYPSNCRIHCT,9597,113079.jpg,6,46,live
141,A3KC385CZNYEG5:3A4TN5196MPZLNYHY3BGYPSNCRIHCT,2879,154870.jpg,5,47,live
142,A3KC385CZNYEG5:3A4TN5196MPZLNYHY3BGYPSNCRIHCT,4296,106414.jpg,3,48,live
143,A3KC385CZNYEG5:3A4TN5196MPZLNYHY3BGYPSNCRIHCT,5304,054459.jpg,6,49,live
144,A3KC385CZNYEG5:3A4TN5196MPZLNYHY3BGYPSNCRIHCT,3887,144125.jpg,6,50,live
145,A3KC385CZNYEG5:3A4TN5196MPZLNYHY3BGYPSNCRIHCT,22558,124569.jpg,2,51,live
146,A3KC385CZNYEG5:3A4TN5196MPZLNYHY3BGYPSNCRIHCT,3518,202552.jpg,4,52,live
147,A3KC385CZNYEG5:3A4TN5196MPZLNYHY3BGYPSNCRIHCT,2637,020087.jpg,6,53,live
148,A3KC385CZNYEG5:3A4TN5196MPZLNYHY3BGYPSNCRIHCT,5205,031763.jpg,5,54,live
149,A3KC385CZNYEG5:3A4TN5196MPZLNYHY3BGYPSNCRIHCT,3359,049463.jpg,5,55,live
150,A3KC385CZNYEG5:3A4TN5196MPZLNYHY3BGYPSNCRIHCT,2573,023266.jpg,7,57,live
151,A3KC385CZNYEG5:3A4TN5196MPZLNYHY3BGYPSNCRIHCT,2072,052537.jpg,6,58,live
152,A3KC385CZNYEG5:3A4TN5196MPZLNYHY3BGYPSNCRIHCT,3589,174354.jpg,9,59,live
153,A3KC385CZNYEG5:3A4TN5196MPZLNYHY3BGYPSNCRIHCT,2358,078190.jpg,6,60,live
154,A3KC385CZNYEG5:3A4TN5196MPZLNYHY3BGYPSNCRIHCT,2446,088398.jpg,7,61,live
155,A3KC385CZNYEG5:3A4TN5196MPZLNYHY3BGYPSNCRIHCT,2333,176723.jpg,6,62,live
156,A3KC385CZNYEG5:3A4TN5196MPZLNYHY3BGYPSNCRIHCT,5215,086142.jpg,3,63,live
157,A3KC385CZNYEG5:3A4TN5196MPZLNYHY3BGYPSNCRIHCT,5796,153051.jpg,7,64,live
158,A3KC385CZNYEG5:3A4TN5196MPZLNYHY3BGYPSNCRIHCT,2259,142657.jpg,6,65,live
159,A3KC385CZNYEG5:3A4TN5196MPZLNYHY3BGYPSNCRIHCT,2334,150552.jpg,6,66,live
160,A3KC385CZNYEG5:3A4TN5196MPZLNYHY3BGYPSNCRIHCT,2964,076409.jpg,7,68,live
161,A3KC385CZNYEG5:3A4TN5196MPZLNYHY3BGYPSNCRIHCT,2442,053394.jpg,7,69,live
162,A3KC385CZNYEG5:3A4TN5196MPZLNYHY3BGYPSNCRIHCT,1949,100684.jpg,6,70,live
163,A3KC385CZNYEG5:3A4TN5196MPZLNYHY3BGYPSNCRIHCT,3902,185343.jpg,5,71,live
164,A3KC385CZNYEG5:3A4TN5196MPZLNYHY3BGYPSNCRIHCT,3582,098615.jpg,5,72,live
165,A3KC385CZNYEG5:3A4TN5196MPZLNYHY3BGYPSNCRIHCT,4214,038546.jpg,7,73,live
166,A3KC385CZNYEG5:3A4TN5196MPZLNYHY3BGYPSNCRIHCT,6094,049463.jpg,6,74,live
167,A3KC385CZNYEG5:3A4TN5196MPZLNYHY3BGYPSNCRIHCT,3413,012584.jpg,7,75,live
168,A3KC385CZNYEG5:3A4TN5196MPZLNYHY3BGYPSNCRIHCT,3645,034432.jpg,5,76,live
169,A3KC385CZNYEG5:3A4TN5196MPZLNYHY3BGYPSNCRIHCT,2550,084323.jpg,6,77,live
170,A3KC385CZNYEG5:3A4TN5196MPZLNYHY3BGYPSNCRIHCT,3268,091837.jpg,6,79,live
171,A3KC385CZNYEG5:3A4TN5196MPZLNYHY3BGYPSNCRIHCT,4838,071197.jpg,6,80,live
172,A3KC385CZNYEG5:3A4TN5196MPZLNYHY3BGYPSNCRIHCT,2718,077071.jpg,6,81,live
173,A3KC385CZNYEG5:3A4TN5196MPZLNYHY3BGYPSNCRIHCT,1765,091837.jpg,6,82,live
174,A3KC385CZNYEG5:3A4TN5196MPZLNYHY3BGYPSNCRIHCT,2663,186059.jpg,4,83,live
175,A3KC385CZNYEG5:3A4TN5196MPZLNYHY3BGYPSNCRIHCT,2614,100978.jpg,5,84,live
176,A3KC385CZNYEG5:3A4TN5196MPZLNYHY3BGYPSNCRIHCT,3022,025788.jpg,6,85,live
177,A3KC385CZNYEG5:3A4TN5196MPZLNYHY3BGYPSNCRIHCT,3493,093378.jpg,7,86,live
178,A3KC385CZNYEG5:3A4TN5196MPZLNYHY3BGYPSNCRIHCT,2389,016460.jpg,4,87,live
179,A3KC385CZNYEG5:3A4TN5196MPZLNYHY3BGYPSNCRIHCT,2069,144125.jpg,6,88,live
180,A3KC385CZNYEG5:3A4TN5196MPZLNYHY3BGYPSNCRIHCT,3861,077169.jpg,5,90,live
181,A3KC385CZNYEG5:3A4TN5196MPZLNYHY3BGYPSNCRIHCT,2637,165401.jpg,6,91,live
182,A3KC385CZNYEG5:3A4TN5196MPZLNYHY3BGYPSNCRIHCT,5268,065232.jpg,6,92,live
183,A3KC385CZNYEG5:3A4TN5196MPZLNYHY3BGYPSNCRIHCT,3822,086810.jpg,5,93,live
184,A3KC385CZNYEG5:3A4TN5196MPZLNYHY3BGYPSNCRIHCT,2949,024231.jpg,6,94,live
185,A3KC385CZNYEG5:3A4TN5196MPZLNYHY3BGYPSNCRIHCT,2663,076493.jpg,7,95,live
186,A3KC385CZNYEG5:3A4TN5196MPZLNYHY3BGYPSNCRIHCT,3317,050845.jpg,6,96,live
187,A3KC385CZNYEG5:3A4TN5196MPZLNYHY3BGYPSNCRIHCT,4359,176723.jpg,7,97,live
188,A3KC385CZNYEG5:3A4TN5196MPZLNYHY3BGYPSNCRIHCT,2518,068350.jpg,4,98,live
189,A3KC385CZNYEG5:3A4TN5196MPZLNYHY3BGYPSNCRIHCT,2958,077518.jpg,6,99,live
190,A3KC385CZNYEG5:3A4TN5196MPZLNYHY3BGYPSNCRIHCT,1954,052537.jpg,6,101,live
191,A3KC385CZNYEG5:3A4TN5196MPZLNYHY3BGYPSNCRIHCT,2054,143767.jpg,6,102,live
192,A3KC385CZNYEG5:3A4TN5196MPZLNYHY3BGYPSNCRIHCT,3685,088677.jpg,5,103,live
193,A3KC385CZNYEG5:3A4TN5196MPZLNYHY3BGYPSNCRIHCT,2389,127601.jpg,2,104,live
194,A3KC385CZNYEG5:3A4TN5196MPZLNYHY3BGYPSNCRIHCT,2116,093378.jpg,7,105,live
195,A3KC385CZNYEG5:3A4TN5196MPZLNYHY3BGYPSNCRIHCT,2797,143051.jpg,6,106,live
196,A3KC385CZNYEG5:3A4TN5196MPZLNYHY3BGYPSNCRIHCT,4117,038546.jpg,8,107,live
197,A3KC385CZNYEG5:3A4TN5196MPZLNYHY3BGYPSNCRIHCT,2646,143051.jpg,6,108,live
198,A3KC385CZNYEG5:3A4TN5196MPZLNYHY3BGYPSNCRIHCT,2423,054938.jpg,6,109,live
199,A3KC385CZNYEG5:3A4TN5196MPZLNYHY3BGYPSNCRIHCT,2227,077010.jpg,3,110,live
200,ABL3H3O3BI8ZD:3TK8OJTYM3SNXD258XEQXQI3JP9VPC,3026,143767.jpg,6,2,live
201,ABL3H3O3BI8ZD:3TK8OJTYM3SNXD258XEQXQI3JP9VPC,14699,012584.jpg,6,3,live
202,ABL3H3O3BI8ZD:3TK8OJTYM3SNXD258XEQXQI3JP9VPC,1266,084323.jpg,5,4,live
203,ABL3H3O3BI8ZD:3TK8OJTYM3SNXD258XEQXQI3JP9VPC,2891,038546.jpg,5,5,live
204,ABL3H3O3BI8ZD:3TK8OJTYM3SNXD258XEQXQI3JP9VPC,3736,153051.jpg,6,6,live
205,ABL3H3O3BI8ZD:3TK8OJTYM3SNXD258XEQXQI3JP9VPC,4757,016460.jpg,6,7,live
206,ABL3H3O3BI8ZD:3TK8OJTYM3SNXD258XEQXQI3JP9VPC,2335,124843.jpg,6,8,live
207,ABL3H3O3BI8ZD:3TK8OJTYM3SNXD258XEQXQI3JP9VPC,1753,077010.jpg,6,9,live
208,ABL3H3O3BI8ZD:3TK8OJTYM3SNXD258XEQXQI3JP9VPC,1913,110369.jpg,5,10,live
209,ABL3H3O3BI8ZD:3TK8OJTYM3SNXD258XEQXQI3JP9VPC,1707,088677.jpg,4,11,live
210,ABL3H3O3BI8ZD:3TK8OJTYM3SNXD258XEQXQI3JP9VPC,2283,091837.jpg,5,13,live
211,ABL3H3O3BI8ZD:3TK8OJTYM3SNXD258XEQXQI3JP9VPC,20161,117797.jpg,6,14,live
212,ABL3H3O3BI8ZD:3TK8OJTYM3SNXD258XEQXQI3JP9VPC,2529,076409.jpg,6,15,live
213,ABL3H3O3BI8ZD:3TK8OJTYM3SNXD258XEQXQI3JP9VPC,1648,032084.jpg,5,16,live
214,ABL3H3O3BI8ZD:3TK8OJTYM3SNXD258XEQXQI3JP9VPC,2792,124843.jpg,6,17,live
215,ABL3H3O3BI8ZD:3TK8OJTYM3SNXD258XEQXQI3JP9VPC,1644,028197.jpg,7,18,live
216,ABL3H3O3BI8ZD:3TK8OJTYM3SNXD258XEQXQI3JP9VPC,21694,049463.jpg,5,19,live
217,ABL3H3O3BI8ZD:3TK8OJTYM3SNXD258XEQXQI3JP9VPC,2984,054459.jpg,6,20,live
218,ABL3H3O3BI8ZD:3TK8OJTYM3SNXD258XEQXQI3JP9VPC,2679,127601.jpg,7,21,live
219,ABL3H3O3BI8ZD:3TK8OJTYM3SNXD258XEQXQI3JP9VPC,2896,077518.jpg,7,22,live
220,ABL3H3O3BI8ZD:3TK8OJTYM3SNXD258XEQXQI3JP9VPC,6287,078190.jpg,6,24,live
221,ABL3H3O3BI8ZD:3TK8OJTYM3SNXD258XEQXQI3JP9VPC,1427,087519.jpg,5,25,live
222,ABL3H3O3BI8ZD:3TK8OJTYM3SNXD258XEQXQI3JP9VPC,2366,076493.jpg,4,26,live
223,ABL3H3O3BI8ZD:3TK8OJTYM3SNXD258XEQXQI3JP9VPC,10678,124569.jpg,5,27,live
224,ABL3H3O3BI8ZD:3TK8OJTYM3SNXD258XEQXQI3JP9VPC,2150,024231.jpg,6,28,live
225,ABL3H3O3BI8ZD:3TK8OJTYM3SNXD258XEQXQI3JP9VPC,1829,106149.jpg,5,29,live
226,ABL3H3O3BI8ZD:3TK8OJTYM3SNXD258XEQXQI3JP9VPC,1536,032472.jpg,4,30,live
227,ABL3H3O3BI8ZD:3TK8OJTYM3SNXD258XEQXQI3JP9VPC,1353,142336.jpg,5,31,live
228,ABL3H3O3BI8ZD:3TK8OJTYM3SNXD258XEQXQI3JP9VPC,1465,129756.jpg,6,32,live
229,ABL3H3O3BI8ZD:3TK8OJTYM3SNXD258XEQXQI3JP9VPC,1506,100978.jpg,7,33,live
230,ABL3H3O3BI8ZD:3TK8OJTYM3SNXD258XEQXQI3JP9VPC,3465,077518.jpg,5,35,live
231,ABL3H3O3BI8ZD:3TK8OJTYM3SNXD258XEQXQI3JP9VPC,23092,165401.jpg,5,36,live
232,ABL3H3O3BI8ZD:3TK8OJTYM3SNXD258XEQXQI3JP9VPC,1857,020087.jpg,6,37,live
233,ABL3H3O3BI8ZD:3TK8OJTYM3SNXD258XEQXQI3JP9VPC,1409,086810.jpg,5,38,live
234,ABL3H3O3BI8ZD:3TK8OJTYM3SNXD258XEQXQI3JP9VPC,1311,049463.jpg,4,39,live
235,ABL3H3O3BI8ZD:3TK8OJTYM3SNXD258XEQXQI3JP9VPC,2332,042306.jpg,5,40,live
236,ABL3H3O3BI8ZD:3TK8OJTYM3SNXD258XEQXQI3JP9VPC,1715,054938.jpg,6,41,live
237,ABL3H3O3BI8ZD:3TK8OJTYM3SNXD258XEQXQI3JP9VPC,1839,174354.jpg,6,42,live
238,ABL3H3O3BI8ZD:3TK8OJTYM3SNXD258XEQXQI3JP9VPC,3287,071197.jpg,5,43,live
239,ABL3H3O3BI8ZD:3TK8OJTYM3SNXD258XEQXQI3JP9VPC,2913,056648.jpg,5,44,live
240,ABL3H3O3BI8ZD:3TK8OJTYM3SNXD258XEQXQI3JP9VPC,3457,176723.jpg,5,46,live
241,ABL3H3O3BI8ZD:3TK8OJTYM3SNXD258XEQXQI3JP9VPC,5286,140421.jpg,6,47,live
242,ABL3H3O3BI8ZD:3TK8OJTYM3SNXD258XEQXQI3JP9VPC,1694,031763.jpg,5,48,live
243,ABL3H3O3BI8ZD:3TK8OJTYM3SNXD258XEQXQI3JP9VPC,1807,113016.jpg,6,49,live
244,ABL3H3O3BI8ZD:3TK8OJTYM3SNXD258XEQXQI3JP9VPC,1550,035472.jpg,6,50,live
245,ABL3H3O3BI8ZD:3TK8OJTYM3SNXD258XEQXQI3JP9VPC,1405,053041.jpg,6,51,live
246,ABL3H3O3BI8ZD:3TK8OJTYM3SNXD258XEQXQI3JP9VPC,1417,150552.jpg,6,52,live
247,ABL3H3O3BI8ZD:3TK8OJTYM3SNXD258XEQXQI3JP9VPC,2010,083782.jpg,6,53,live
248,ABL3H3O3BI8ZD:3TK8OJTYM3SNXD258XEQXQI3JP9VPC,1647,052537.jpg,5,54,live
249,ABL3H3O3BI8ZD:3TK8OJTYM3SNXD258XEQXQI3JP9VPC,1400,173118.jpg,5,55,live
250,ABL3H3O3BI8ZD:3TK8OJTYM3SNXD258XEQXQI3JP9VPC,2890,202552.jpg,6,57,live
251,ABL3H3O3BI8ZD:3TK8OJTYM3SNXD258XEQXQI3JP9VPC,3256,091837.jpg,6,58,live
252,ABL3H3O3BI8ZD:3TK8OJTYM3SNXD258XEQXQI3JP9VPC,1286,143051.jpg,6,59,live
253,ABL3H3O3BI8ZD:3TK8OJTYM3SNXD258XEQXQI3JP9VPC,1522,064273.jpg,5,60,live
254,ABL3H3O3BI8ZD:3TK8OJTYM3SNXD258XEQXQI3JP9VPC,1847,025788.jpg,6,61,live
255,ABL3H3O3BI8ZD:3TK8OJTYM3SNXD258XEQXQI3JP9VPC,1849,056106.jpg,6,62,live
256,ABL3H3O3BI8ZD:3TK8OJTYM3SNXD258XEQXQI3JP9VPC,1590,034432.jpg,5,63,live
257,ABL3H3O3BI8ZD:3TK8OJTYM3SNXD258XEQXQI3JP9VPC,1384,100006.jpg,5,64,live
258,ABL3H3O3BI8ZD:3TK8OJTYM3SNXD258XEQXQI3JP9VPC,1294,052537.jpg,5,65,live
259,ABL3H3O3BI8ZD:3TK8OJTYM3SNXD258XEQXQI3JP9VPC,1186,042306.jpg,5,66,live
260,ABL3H3O3BI8ZD:3TK8OJTYM3SNXD258XEQXQI3JP9VPC,1957,015405.jpg,5,68,live
261,ABL3H3O3BI8ZD:3TK8OJTYM3SNXD258XEQXQI3JP9VPC,1382,077071.jpg,6,69,live
262,ABL3H3O3BI8ZD:3TK8OJTYM3SNXD258XEQXQI3JP9VPC,1293,113079.jpg,5,70,live
263,ABL3H3O3BI8ZD:3TK8OJTYM3SNXD258XEQXQI3JP9VPC,2086,176723.jpg,5,71,live
264,ABL3H3O3BI8ZD:3TK8OJTYM3SNXD258XEQXQI3JP9VPC,1227,093378.jpg,5,72,live
265,ABL3H3O3BI8ZD:3TK8OJTYM3SNXD258XEQXQI3JP9VPC,1055,143051.jpg,5,73,live
266,ABL3H3O3BI8ZD:3TK8OJTYM3SNXD258XEQXQI3JP9VPC,1179,078190.jpg,5,74,live
267,ABL3H3O3BI8ZD:3TK8OJTYM3SNXD258XEQXQI3JP9VPC,1099,098615.jpg,5,75,live
268,ABL3H3O3BI8ZD:3TK8OJTYM3SNXD258XEQXQI3JP9VPC,1583,086142.jpg,6,76,live
269,ABL3H3O3BI8ZD:3TK8OJTYM3SNXD258XEQXQI3JP9VPC,1772,100684.jpg,6,77,live
270,ABL3H3O3BI8ZD:3TK8OJTYM3SNXD258XEQXQI3JP9VPC,2168,127601.jpg,5,79,live
271,ABL3H3O3BI8ZD:3TK8OJTYM3SNXD258XEQXQI3JP9VPC,2342,081054.jpg,6,80,live
272,ABL3H3O3BI8ZD:3TK8OJTYM3SNXD258XEQXQI3JP9VPC,1900,087519.jpg,6,81,live
273,ABL3H3O3BI8ZD:3TK8OJTYM3SNXD258XEQXQI3JP9VPC,1337,101907.jpg,6,82,live
274,ABL3H3O3BI8ZD:3TK8OJTYM3SNXD258XEQXQI3JP9VPC,1755,066051.jpg,6,83,live
275,ABL3H3O3BI8ZD:3TK8OJTYM3SNXD258XEQXQI3JP9VPC,1198,088398.jpg,5,84,live
276,ABL3H3O3BI8ZD:3TK8OJTYM3SNXD258XEQXQI3JP9VPC,3085,054459.jpg,5,85,live
277,ABL3H3O3BI8ZD:3TK8OJTYM3SNXD258XEQXQI3JP9VPC,1678,124569.jpg,5,86,live
278,ABL3H3O3BI8ZD:3TK8OJTYM3SNXD258XEQXQI3JP9VPC,1084,144125.jpg,5,87,live
279,ABL3H3O3BI8ZD:3TK8OJTYM3SNXD258XEQXQI3JP9VPC,1478,142336.jpg,6,88,live
280,ABL3H3O3BI8ZD:3TK8OJTYM3SNXD258XEQXQI3JP9VPC,2050,186059.jpg,6,90,live
281,ABL3H3O3BI8ZD:3TK8OJTYM3SNXD258XEQXQI3JP9VPC,1662,077010.jpg,5,91,live
282,ABL3H3O3BI8ZD:3TK8OJTYM3SNXD258XEQXQI3JP9VPC,1602,185343.jpg,5,92,live
283,ABL3H3O3BI8ZD:3TK8OJTYM3SNXD258XEQXQI3JP9VPC,1257,154870.jpg,5,93,live
284,ABL3H3O3BI8ZD:3TK8OJTYM3SNXD258XEQXQI3JP9VPC,2556,024060.jpg,4,94,live
285,ABL3H3O3BI8ZD:3TK8OJTYM3SNXD258XEQXQI3JP9VPC,1384,093378.jpg,5,95,live
286,ABL3H3O3BI8ZD:3TK8OJTYM3SNXD258XEQXQI3JP9VPC,1557,023266.jpg,6,96,live
287,ABL3H3O3BI8ZD:3TK8OJTYM3SNXD258XEQXQI3JP9VPC,1281,053394.jpg,5,97,live
288,ABL3H3O3BI8ZD:3TK8OJTYM3SNXD258XEQXQI3JP9VPC,1639,077169.jpg,5,98,live
289,ABL3H3O3BI8ZD:3TK8OJTYM3SNXD258XEQXQI3JP9VPC,1283,068350.jpg,6,99,live
290,ABL3H3O3BI8ZD:3TK8OJTYM3SNXD258XEQXQI3JP9VPC,5318,043872.jpg,6,101,live
291,ABL3H3O3BI8ZD:3TK8OJTYM3SNXD258XEQXQI3JP9VPC,2456,015405.jpg,6,102,live
292,ABL3H3O3BI8ZD:3TK8OJTYM3SNXD258XEQXQI3JP9VPC,1313,038546.jpg,5,103,live
293,ABL3H3O3BI8ZD:3TK8OJTYM3SNXD258XEQXQI3JP9VPC,1594,151719.jpg,5,104,live
294,ABL3H3O3BI8ZD:3TK8OJTYM3SNXD258XEQXQI3JP9VPC,1408,106414.jpg,5,105,live
295,ABL3H3O3BI8ZD:3TK8OJTYM3SNXD258XEQXQI3JP9VPC,1673,144125.jpg,5,106,live
296,ABL3H3O3BI8ZD:3TK8OJTYM3SNXD258XEQXQI3JP9VPC,2221,065232.jpg,6,107,live
297,ABL3H3O3BI8ZD:3TK8OJTYM3SNXD258XEQXQI3JP9VPC,1248,050845.jpg,5,108,live
298,ABL3H3O3BI8ZD:3TK8OJTYM3SNXD258XEQXQI3JP9VPC,1095,142657.jpg,5,109,live
299,ABL3H3O3BI8ZD:3TK8OJTYM3SNXD258XEQXQI3JP9VPC,1155,129756.jpg,5,110,live
300,A3JLE2LJ5I17E2:3J88R45B2I5F12708CF8LBFOZ0FPX7,3298,142336.jpg,5,2,live
301,A3JLE2LJ5I17E2:3J88R45B2I5F12708CF8LBFOZ0FPX7,366754,024231.jpg,6,3,live
302,A3JLE2LJ5I17E2:3J88R45B2I5F12708CF8LBFOZ0FPX7,1405,144125.jpg,5,4,live
303,A3JLE2LJ5I17E2:3J88R45B2I5F12708CF8LBFOZ0FPX7,1316,023266.jpg,5,5,live
304,A3JLE2LJ5I17E2:3J88R45B2I5F12708CF8LBFOZ0FPX7,6567,078190.jpg,5,6,live
305,A3JLE2LJ5I17E2:3J88R45B2I5F12708CF8LBFOZ0FPX7,1953,124843.jpg,6,7,live
306,A3JLE2LJ5I17E2:3J88R45B2I5F12708CF8LBFOZ0FPX7,1371,176723.jpg,5,8,live
307,A3JLE2LJ5I17E2:3J88R45B2I5F12708CF8LBFOZ0FPX7,2587,100684.jpg,5,9,live
308,A3JLE2LJ5I17E2:3J88R45B2I5F12708CF8LBFOZ0FPX7,4028,077169.jpg,6,10,live
309,A3JLE2LJ5I17E2:3J88R45B2I5F12708CF8LBFOZ0FPX7,3625,028197.jpg,6,11,live
310,A3JLE2LJ5I17E2:3J88R45B2I5F12708CF8LBFOZ0FPX7,2073,012584.jpg,6,13,live
311,A3JLE2LJ5I17E2:3J88R45B2I5F12708CF8LBFOZ0FPX7,1167,064273.jpg,5,14,live
312,A3JLE2LJ5I17E2:3J88R45B2I5F12708CF8LBFOZ0FPX7,1530,049463.jpg,4,15,live
313,A3JLE2LJ5I17E2:3J88R45B2I5F12708CF8LBFOZ0FPX7,1475,088677.jpg,5,16,live
314,A3JLE2LJ5I17E2:3J88R45B2I5F12708CF8LBFOZ0FPX7,2874,032084.jpg,6,17,live
315,A3JLE2LJ5I17E2:3J88R45B2I5F12708CF8LBFOZ0FPX7,6155,106149.jpg,6,18,live
316,A3JLE2LJ5I17E2:3J88R45B2I5F12708CF8LBFOZ0FPX7,1673,077518.jpg,6,19,live
317,A3JLE2LJ5I17E2:3J88R45B2I5F12708CF8LBFOZ0FPX7,1526,025788.jpg,6,20,live
318,A3JLE2LJ5I17E2:3J88R45B2I5F12708CF8LBFOZ0FPX7,2903,202552.jpg,6,21,live
319,A3JLE2LJ5I17E2:3J88R45B2I5F12708CF8LBFOZ0FPX7,1743,087519.jpg,5,22,live
320,A3JLE2LJ5I17E2:3J88R45B2I5F12708CF8LBFOZ0FPX7,15348,081054.jpg,5,24,live
321,A3JLE2LJ5I17E2:3J88R45B2I5F12708CF8LBFOZ0FPX7,2231,142657.jpg,6,25,live
322,A3JLE2LJ5I17E2:3J88R45B2I5F12708CF8LBFOZ0FPX7,1707,124569.jpg,6,26,live
323,A3JLE2LJ5I17E2:3J88R45B2I5F12708CF8LBFOZ0FPX7,8484,110369.jpg,6,27,live
324,A3JLE2LJ5I17E2:3J88R45B2I5F12708CF8LBFOZ0FPX7,4591,077010.jpg,7,28,live
325,A3JLE2LJ5I17E2:3J88R45B2I5F12708CF8LBFOZ0FPX7,1515,083782.jpg,5,29,live
326,A3JLE2LJ5I17E2:3J88R45B2I5F12708CF8LBFOZ0FPX7,1683,143051.jpg,5,30,live
327,A3JLE2LJ5I17E2:3J88R45B2I5F12708CF8LBFOZ0FPX7,1971,015405.jpg,6,31,live
328,A3JLE2LJ5I17E2:3J88R45B2I5F12708CF8LBFOZ0FPX7,3963,185343.jpg,5,32,live
329,A3JLE2LJ5I17E2:3J88R45B2I5F12708CF8LBFOZ0FPX7,1559,140421.jpg,6,33,live
330,A3JLE2LJ5I17E2:3J88R45B2I5F12708CF8LBFOZ0FPX7,3085,054459.jpg,5,35,live
331,A3JLE2LJ5I17E2:3J88R45B2I5F12708CF8LBFOZ0FPX7,1559,050845.jpg,5,36,live
332,A3JLE2LJ5I17E2:3J88R45B2I5F12708CF8LBFOZ0FPX7,1670,129756.jpg,6,37,live
333,A3JLE2LJ5I17E2:3J88R45B2I5F12708CF8LBFOZ0FPX7,2477,077071.jpg,6,38,live
334,A3JLE2LJ5I17E2:3J88R45B2I5F12708CF8LBFOZ0FPX7,2037,056648.jpg,6,39,live
335,A3JLE2LJ5I17E2:3J88R45B2I5F12708CF8LBFOZ0FPX7,1912,049463.jpg,5,40,live
336,A3JLE2LJ5I17E2:3J88R45B2I5F12708CF8LBFOZ0FPX7,1597,024060.jpg,6,41,live
337,A3JLE2LJ5I17E2:3J88R45B2I5F12708CF8LBFOZ0FPX7,2263,091837.jpg,6,42,live
338,A3JLE2LJ5I17E2:3J88R45B2I5F12708CF8LBFOZ0FPX7,3412,016460.jpg,6,43,live
339,A3JLE2LJ5I17E2:3J88R45B2I5F12708CF8LBFOZ0FPX7,2793,113079.jpg,5,44,live
340,A3JLE2LJ5I17E2:3J88R45B2I5F12708CF8LBFOZ0FPX7,2524,129756.jpg,6,46,live
341,A3JLE2LJ5I17E2:3J88R45B2I5F12708CF8LBFOZ0FPX7,1332,052537.jpg,5,47,live
342,A3JLE2LJ5I17E2:3J88R45B2I5F12708CF8LBFOZ0FPX7,1667,144125.jpg,5,48,live
343,A3JLE2LJ5I17E2:3J88R45B2I5F12708CF8LBFOZ0FPX7,2175,142336.jpg,5,49,live
344,A3JLE2LJ5I17E2:3J88R45B2I5F12708CF8LBFOZ0FPX7,4024,068350.jpg,5,50,live
345,A3JLE2LJ5I17E2:3J88R45B2I5F12708CF8LBFOZ0FPX7,1630,076409.jpg,6,51,live
346,A3JLE2LJ5I17E2:3J88R45B2I5F12708CF8LBFOZ0FPX7,1480,106414.jpg,5,52,live
347,A3JLE2LJ5I17E2:3J88R45B2I5F12708CF8LBFOZ0FPX7,2375,088398.jpg,4,53,live
348,A3JLE2LJ5I17E2:3J88R45B2I5F12708CF8LBFOZ0FPX7,1871,034432.jpg,6,54,live
349,A3JLE2LJ5I17E2:3J88R45B2I5F12708CF8LBFOZ0FPX7,1800,098615.jpg,6,55,live
350,A3JLE2LJ5I17E2:3J88R45B2I5F12708CF8LBFOZ0FPX7,51674,038546.jpg,4,57,live
351,A3JLE2LJ5I17E2:3J88R45B2I5F12708CF8LBFOZ0FPX7,3512,076493.jpg,6,58,live
352,A3JLE2LJ5I17E2:3J88R45B2I5F12708CF8LBFOZ0FPX7,4986,093378.jpg,6,59,live
353,A3JLE2LJ5I17E2:3J88R45B2I5F12708CF8LBFOZ0FPX7,3294,153051.jpg,5,60,live
354,A3JLE2LJ5I17E2:3J88R45B2I5F12708CF8LBFOZ0FPX7,2094,015405.jpg,6,61,live
355,A3JLE2LJ5I17E2:3J88R45B2I5F12708CF8LBFOZ0FPX7,2117,113016.jpg,6,62,live
356,A3JLE2LJ5I17E2:3J88R45B2I5F12708CF8LBFOZ0FPX7,1280,174354.jpg,5,63,live
357,A3JLE2LJ5I17E2:3J88R45B2I5F12708CF8LBFOZ0FPX7,1755,127601.jpg,5,64,live
358,A3JLE2LJ5I17E2:3J88R45B2I5F12708CF8LBFOZ0FPX7,1263,054938.jpg,4,65,live
359,A3JLE2LJ5I17E2:3J88R45B2I5F12708CF8LBFOZ0FPX7,1926,143051.jpg,5,66,live
360,A3JLE2LJ5I17E2:3J88R45B2I5F12708CF8LBFOZ0FPX7,9592,186059.jpg,5,68,live
361,A3JLE2LJ5I17E2:3J88R45B2I5F12708CF8LBFOZ0FPX7,1840,078190.jpg,6,69,live
362,A3JLE2LJ5I17E2:3J88R45B2I5F12708CF8LBFOZ0FPX7,2119,086142.jpg,5,70,live
363,A3JLE2LJ5I17E2:3J88R45B2I5F12708CF8LBFOZ0FPX7,1933,084323.jpg,6,71,live
364,A3JLE2LJ5I17E2:3J88R45B2I5F12708CF8LBFOZ0FPX7,2066,100978.jpg,5,72,live
365,A3JLE2LJ5I17E2:3J88R45B2I5F12708CF8LBFOZ0FPX7,4581,053394.jpg,5,73,live
366,A3JLE2LJ5I17E2:3J88R45B2I5F12708CF8LBFOZ0FPX7,1976,066051.jpg,5,74,live
367,A3JLE2LJ5I17E2:3J88R45B2I5F12708CF8LBFOZ0FPX7,2182,032472.jpg,6,75,live
368,A3JLE2LJ5I17E2:3J88R45B2I5F12708CF8LBFOZ0FPX7,1658,087519.jpg,5,76,live
369,A3JLE2LJ5I17E2:3J88R45B2I5F12708CF8LBFOZ0FPX7,1583,052537.jpg,6,77,live
370,A3JLE2LJ5I17E2:3J88R45B2I5F12708CF8LBFOZ0FPX7,73872,077518.jpg,6,79,live
371,A3JLE2LJ5I17E2:3J88R45B2I5F12708CF8LBFOZ0FPX7,3154,124569.jpg,5,80,live
372,A3JLE2LJ5I17E2:3J88R45B2I5F12708CF8LBFOZ0FPX7,1898,077010.jpg,4,81,live
373,A3JLE2LJ5I17E2:3J88R45B2I5F12708CF8LBFOZ0FPX7,2177,035472.jpg,5,82,live
374,A3JLE2LJ5I17E2:3J88R45B2I5F12708CF8LBFOZ0FPX7,2837,151719.jpg,7,83,live
375,A3JLE2LJ5I17E2:3J88R45B2I5F12708CF8LBFOZ0FPX7,4012,031763.jpg,6,84,live
376,A3JLE2LJ5I17E2:3J88R45B2I5F12708CF8LBFOZ0FPX7,6433,143767.jpg,6,85,live
377,A3JLE2LJ5I17E2:3J88R45B2I5F12708CF8LBFOZ0FPX7,3886,117797.jpg,5,86,live
378,A3JLE2LJ5I17E2:3J88R45B2I5F12708CF8LBFOZ0FPX7,2361,100006.jpg,5,87,live
379,A3JLE2LJ5I17E2:3J88R45B2I5F12708CF8LBFOZ0FPX7,3378,020087.jpg,4,88,live
380,A3JLE2LJ5I17E2:3J88R45B2I5F12708CF8LBFOZ0FPX7,2144,091837.jpg,5,90,live
381,A3JLE2LJ5I17E2:3J88R45B2I5F12708CF8LBFOZ0FPX7,1844,165401.jpg,6,91,live
382,A3JLE2LJ5I17E2:3J88R45B2I5F12708CF8LBFOZ0FPX7,1481,150552.jpg,6,92,live
383,A3JLE2LJ5I17E2:3J88R45B2I5F12708CF8LBFOZ0FPX7,1802,071197.jpg,5,93,live
384,A3JLE2LJ5I17E2:3J88R45B2I5F12708CF8LBFOZ0FPX7,1345,042306.jpg,6,94,live
385,A3JLE2LJ5I17E2:3J88R45B2I5F12708CF8LBFOZ0FPX7,1441,127601.jpg,5,95,live
386,A3JLE2LJ5I17E2:3J88R45B2I5F12708CF8LBFOZ0FPX7,1487,086810.jpg,4,96,live
387,A3JLE2LJ5I17E2:3J88R45B2I5F12708CF8LBFOZ0FPX7,1684,053041.jpg,6,97,live
388,A3JLE2LJ5I17E2:3J88R45B2I5F12708CF8LBFOZ0FPX7,1656,065232.jpg,6,98,live
389,A3JLE2LJ5I17E2:3J88R45B2I5F12708CF8LBFOZ0FPX7,2299,042306.jpg,5,99,live
390,A3JLE2LJ5I17E2:3J88R45B2I5F12708CF8LBFOZ0FPX7,3562,038546.jpg,6,101,live
391,A3JLE2LJ5I17E2:3J88R45B2I5F12708CF8LBFOZ0FPX7,1914,154870.jpg,5,102,live
392,A3JLE2LJ5I17E2:3J88R45B2I5F12708CF8LBFOZ0FPX7,1607,054459.jpg,6,103,live
393,A3JLE2LJ5I17E2:3J88R45B2I5F12708CF8LBFOZ0FPX7,1573,101907.jpg,5,104,live
394,A3JLE2LJ5I17E2:3J88R45B2I5F12708CF8LBFOZ0FPX7,1258,173118.jpg,5,105,live
395,A3JLE2LJ5I17E2:3J88R45B2I5F12708CF8LBFOZ0FPX7,1643,176723.jpg,5,106,live
396,A3JLE2LJ5I17E2:3J88R45B2I5F12708CF8LBFOZ0FPX7,10514,043872.jpg,5,107,live
397,A3JLE2LJ5I17E2:3J88R45B2I5F12708CF8LBFOZ0FPX7,2395,056106.jpg,5,108,live
398,A3JLE2LJ5I17E2:3J88R45B2I5F12708CF8LBFOZ0FPX7,2291,124843.jpg,6,109,live
399,A3JLE2LJ5I17E2:3J88R45B2I5F12708CF8LBFOZ0FPX7,1984,093378.jpg,5,110,live
400,A2H6K1XIK4LY7O:3RXCAC0YITWJ9ODTXLDTB3K370P8GK,3198,035472.jpg,4,2,live
401,A2H6K1XIK4LY7O:3RXCAC0YITWJ9ODTXLDTB3K370P8GK,1619,127601.jpg,5,3,live
402,A2H6K1XIK4LY7O:3RXCAC0YITWJ9ODTXLDTB3K370P8GK,1852,088398.jpg,6,4,live
403,A2H6K1XIK4LY7O:3RXCAC0YITWJ9ODTXLDTB3K370P8GK,1833,076493.jpg,5,5,live
404,A2H6K1XIK4LY7O:3RXCAC0YITWJ9ODTXLDTB3K370P8GK,1491,176723.jpg,6,6,live
405,A2H6K1XIK4LY7O:3RXCAC0YITWJ9ODTXLDTB3K370P8GK,1295,186059.jpg,6,7,live
406,A2H6K1XIK4LY7O:3RXCAC0YITWJ9ODTXLDTB3K370P8GK,2417,034432.jpg,4,8,live
407,A2H6K1XIK4LY7O:3RXCAC0YITWJ9ODTXLDTB3K370P8GK,2079,024231.jpg,7,9,live
408,A2H6K1XIK4LY7O:3RXCAC0YITWJ9ODTXLDTB3K370P8GK,1789,076409.jpg,5,10,live
409,A2H6K1XIK4LY7O:3RXCAC0YITWJ9ODTXLDTB3K370P8GK,2067,049463.jpg,6,11,live
410,A2H6K1XIK4LY7O:3RXCAC0YITWJ9ODTXLDTB3K370P8GK,5747,024060.jpg,6,13,live
411,A2H6K1XIK4LY7O:3RXCAC0YITWJ9ODTXLDTB3K370P8GK,2000,028197.jpg,5,14,live
412,A2H6K1XIK4LY7O:3RXCAC0YITWJ9ODTXLDTB3K370P8GK,1938,124843.jpg,6,15,live
413,A2H6K1XIK4LY7O:3RXCAC0YITWJ9ODTXLDTB3K370P8GK,1112,144125.jpg,5,16,live
414,A2H6K1XIK4LY7O:3RXCAC0YITWJ9ODTXLDTB3K370P8GK,1461,065232.jpg,5,17,live
415,A2H6K1XIK4LY7O:3RXCAC0YITWJ9ODTXLDTB3K370P8GK,1357,068350.jpg,6,18,live
416,A2H6K1XIK4LY7O:3RXCAC0YITWJ9ODTXLDTB3K370P8GK,3324,091837.jpg,7,19,live
417,A2H6K1XIK4LY7O:3RXCAC0YITWJ9ODTXLDTB3K370P8GK,2522,124569.jpg,7,20,live
418,A2H6K1XIK4LY7O:3RXCAC0YITWJ9ODTXLDTB3K370P8GK,2319,088677.jpg,5,21,live
419,A2H6K1XIK4LY7O:3RXCAC0YITWJ9ODTXLDTB3K370P8GK,5683,129756.jpg,5,22,live
420,A2H6K1XIK4LY7O:3RXCAC0YITWJ9ODTXLDTB3K370P8GK,2684,054459.jpg,6,24,live
421,A2H6K1XIK4LY7O:3RXCAC0YITWJ9ODTXLDTB3K370P8GK,2524,032472.jpg,5,25,live
422,A2H6K1XIK4LY7O:3RXCAC0YITWJ9ODTXLDTB3K370P8GK,2752,078190.jpg,5,26,live
423,A2H6K1XIK4LY7O:3RXCAC0YITWJ9ODTXLDTB3K370P8GK,1368,086810.jpg,6,27,live
424,A2H6K1XIK4LY7O:3RXCAC0YITWJ9ODTXLDTB3K370P8GK,1586,031763.jpg,5,28,live
425,A2H6K1XIK4LY7O:3RXCAC0YITWJ9ODTXLDTB3K370P8GK,1480,117797.jpg,5,29,live
426,A2H6K1XIK4LY7O:3RXCAC0YITWJ9ODTXLDTB3K370P8GK,1626,083782.jpg,4,30,live
427,A2H6K1XIK4LY7O:3RXCAC0YITWJ9ODTXLDTB3K370P8GK,1758,025788.jpg,4,31,live
428,A2H6K1XIK4LY7O:3RXCAC0YITWJ9ODTXLDTB3K370P8GK,1295,113079.jpg,5,32,live
429,A2H6K1XIK4LY7O:3RXCAC0YITWJ9ODTXLDTB3K370P8GK,1065,093378.jpg,5,33,live
430,A2H6K1XIK4LY7O:3RXCAC0YITWJ9ODTXLDTB3K370P8GK,9689,038546.jpg,6,35,live
431,A2H6K1XIK4LY7O:3RXCAC0YITWJ9ODTXLDTB3K370P8GK,1792,064273.jpg,6,36,live
432,A2H6K1XIK4LY7O:3RXCAC0YITWJ9ODTXLDTB3K370P8GK,1712,056106.jpg,5,37,live
433,A2H6K1XIK4LY7O:3RXCAC0YITWJ9ODTXLDTB3K370P8GK,3048,042306.jpg,5,38,live
434,A2H6K1XIK4LY7O:3RXCAC0YITWJ9ODTXLDTB3K370P8GK,5922,124569.jpg,5,39,live
435,A2H6K1XIK4LY7O:3RXCAC0YITWJ9ODTXLDTB3K370P8GK,1396,142336.jpg,6,40,live
436,A2H6K1XIK4LY7O:3RXCAC0YITWJ9ODTXLDTB3K370P8GK,1364,129756.jpg,5,41,live
437,A2H6K1XIK4LY7O:3RXCAC0YITWJ9ODTXLDTB3K370P8GK,1210,042306.jpg,5,42,live
438,A2H6K1XIK4LY7O:3RXCAC0YITWJ9ODTXLDTB3K370P8GK,1207,078190.jpg,5,43,live
439,A2H6K1XIK4LY7O:3RXCAC0YITWJ9ODTXLDTB3K370P8GK,1609,113016.jpg,6,44,live
440,A2H6K1XIK4LY7O:3RXCAC0YITWJ9ODTXLDTB3K370P8GK,53001,165401.jpg,6,46,live
441,A2H6K1XIK4LY7O:3RXCAC0YITWJ9ODTXLDTB3K370P8GK,3768,050845.jpg,6,47,live
442,A2H6K1XIK4LY7O:3RXCAC0YITWJ9ODTXLDTB3K370P8GK,1429,174354.jpg,6,48,live
443,A2H6K1XIK4LY7O:3RXCAC0YITWJ9ODTXLDTB3K370P8GK,1520,101907.jpg,5,49,live
444,A2H6K1XIK4LY7O:3RXCAC0YITWJ9ODTXLDTB3K370P8GK,1247,098615.jpg,4,50,live
445,A2H6K1XIK4LY7O:3RXCAC0YITWJ9ODTXLDTB3K370P8GK,1704,054459.jpg,7,51,live
446,A2H6K1XIK4LY7O:3RXCAC0YITWJ9ODTXLDTB3K370P8GK,1821,144125.jpg,6,52,live
447,A2H6K1XIK4LY7O:3RXCAC0YITWJ9ODTXLDTB3K370P8GK,1488,124843.jpg,6,53,live
448,A2H6K1XIK4LY7O:3RXCAC0YITWJ9ODTXLDTB3K370P8GK,1789,053394.jpg,7,54,live
449,A2H6K1XIK4LY7O:3RXCAC0YITWJ9ODTXLDTB3K370P8GK,2244,091837.jpg,7,55,live
450,A2H6K1XIK4LY7O:3RXCAC0YITWJ9ODTXLDTB3K370P8GK,8944,153051.jpg,4,57,live
451,A2H6K1XIK4LY7O:3RXCAC0YITWJ9ODTXLDTB3K370P8GK,2205,087519.jpg,8,58,live
452,A2H6K1XIK4LY7O:3RXCAC0YITWJ9ODTXLDTB3K370P8GK,1644,202552.jpg,6,59,live
453,A2H6K1XIK4LY7O:3RXCAC0YITWJ9ODTXLDTB3K370P8GK,1493,077010.jpg,6,60,live
454,A2H6K1XIK4LY7O:3RXCAC0YITWJ9ODTXLDTB3K370P8GK,1653,066051.jpg,7,61,live
455,A2H6K1XIK4LY7O:3RXCAC0YITWJ9ODTXLDTB3K370P8GK,7058,053041.jpg,7,62,live
456,A2H6K1XIK4LY7O:3RXCAC0YITWJ9ODTXLDTB3K370P8GK,1455,054938.jpg,7,63,live
457,A2H6K1XIK4LY7O:3RXCAC0YITWJ9ODTXLDTB3K370P8GK,1665,143767.jpg,6,64,live
458,A2H6K1XIK4LY7O:3RXCAC0YITWJ9ODTXLDTB3K370P8GK,10362,043872.jpg,6,65,live
459,A2H6K1XIK4LY7O:3RXCAC0YITWJ9ODTXLDTB3K370P8GK,1807,012584.jpg,7,66,live
460,A2H6K1XIK4LY7O:3RXCAC0YITWJ9ODTXLDTB3K370P8GK,4914,015405.jpg,5,68,live
461,A2H6K1XIK4LY7O:3RXCAC0YITWJ9ODTXLDTB3K370P8GK,1598,106149.jpg,5,69,live
462,A2H6K1XIK4LY7O:3RXCAC0YITWJ9ODTXLDTB3K370P8GK,1379,077518.jpg,6,70,live
463,A2H6K1XIK4LY7O:3RXCAC0YITWJ9ODTXLDTB3K370P8GK,1072,110369.jpg,6,71,live
464,A2H6K1XIK4LY7O:3RXCAC0YITWJ9ODTXLDTB3K370P8GK,1469,049463.jpg,4,72,live
465,A2H6K1XIK4LY7O:3RXCAC0YITWJ9ODTXLDTB3K370P8GK,5783,142657.jpg,4,73,live
466,A2H6K1XIK4LY7O:3RXCAC0YITWJ9ODTXLDTB3K370P8GK,3733,015405.jpg,8,74,live
467,A2H6K1XIK4LY7O:3RXCAC0YITWJ9ODTXLDTB3K370P8GK,1465,084323.jpg,8,75,live
468,A2H6K1XIK4LY7O:3RXCAC0YITWJ9ODTXLDTB3K370P8GK,1196,185343.jpg,8,76,live
469,A2H6K1XIK4LY7O:3RXCAC0YITWJ9ODTXLDTB3K370P8GK,1108,077071.jpg,8,77,live
470,A2H6K1XIK4LY7O:3RXCAC0YITWJ9ODTXLDTB3K370P8GK,7896,023266.jpg,8,79,live
471,A2H6K1XIK4LY7O:3RXCAC0YITWJ9ODTXLDTB3K370P8GK,3729,140421.jpg,7,80,live
472,A2H6K1XIK4LY7O:3RXCAC0YITWJ9ODTXLDTB3K370P8GK,2550,176723.jpg,7,81,live
473,A2H6K1XIK4LY7O:3RXCAC0YITWJ9ODTXLDTB3K370P8GK,1302,081054.jpg,7,82,live
474,A2H6K1XIK4LY7O:3RXCAC0YITWJ9ODTXLDTB3K370P8GK,1107,052537.jpg,7,83,live
475,A2H6K1XIK4LY7O:3RXCAC0YITWJ9ODTXLDTB3K370P8GK,1626,052537.jpg,7,84,live
476,A2H6K1XIK4LY7O:3RXCAC0YITWJ9ODTXLDTB3K370P8GK,1113,154870.jpg,7,85,live
477,A2H6K1XIK4LY7O:3RXCAC0YITWJ9ODTXLDTB3K370P8GK,3758,077518.jpg,6,86,live
478,A2H6K1XIK4LY7O:3RXCAC0YITWJ9ODTXLDTB3K370P8GK,1417,173118.jpg,6,87,live
479,A2H6K1XIK4LY7O:3RXCAC0YITWJ9ODTXLDTB3K370P8GK,3807,032084.jpg,7,88,live
480,A2H6K1XIK4LY7O:3RXCAC0YITWJ9ODTXLDTB3K370P8GK,2673,100006.jpg,7,90,live
481,A2H6K1XIK4LY7O:3RXCAC0YITWJ9ODTXLDTB3K370P8GK,4838,020087.jpg,6,91,live
482,A2H6K1XIK4LY7O:3RXCAC0YITWJ9ODTXLDTB3K370P8GK,1380,071197.jpg,6,92,live
483,A2H6K1XIK4LY7O:3RXCAC0YITWJ9ODTXLDTB3K370P8GK,1302,077169.jpg,6,93,live
484,A2H6K1XIK4LY7O:3RXCAC0YITWJ9ODTXLDTB3K370P8GK,1150,086142.jpg,6,94,live
485,A2H6K1XIK4LY7O:3RXCAC0YITWJ9ODTXLDTB3K370P8GK,1196,127601.jpg,6,95,live
486,A2H6K1XIK4LY7O:3RXCAC0YITWJ9ODTXLDTB3K370P8GK,1196,077010.jpg,6,96,live
487,A2H6K1XIK4LY7O:3RXCAC0YITWJ9ODTXLDTB3K370P8GK,1151,106414.jpg,6,97,live
488,A2H6K1XIK4LY7O:3RXCAC0YITWJ9ODTXLDTB3K370P8GK,1405,087519.jpg,6,98,live
489,A2H6K1XIK4LY7O:3RXCAC0YITWJ9ODTXLDTB3K370P8GK,1124,143051.jpg,6,99,live
490,A2H6K1XIK4LY7O:3RXCAC0YITWJ9ODTXLDTB3K370P8GK,1753,100684.jpg,6,101,live
491,A2H6K1XIK4LY7O:3RXCAC0YITWJ9ODTXLDTB3K370P8GK,1273,143051.jpg,6,102,live
492,A2H6K1XIK4LY7O:3RXCAC0YITWJ9ODTXLDTB3K370P8GK,1160,142336.jpg,6,103,live
493,A2H6K1XIK4LY7O:3RXCAC0YITWJ9ODTXLDTB3K370P8GK,1136,100978.jpg,6,104,live
494,A2H6K1XIK4LY7O:3RXCAC0YITWJ9ODTXLDTB3K370P8GK,1034,038546.jpg,6,105,live
495,A2H6K1XIK4LY7O:3RXCAC0YITWJ9ODTXLDTB3K370P8GK,1117,016460.jpg,6,106,live
496,A2H6K1XIK4LY7O:3RXCAC0YITWJ9ODTXLDTB3K370P8GK,1314,150552.jpg,6,107,live
497,A2H6K1XIK4LY7O:3RXCAC0YITWJ9ODTXLDTB3K370P8GK,1166,151719.jpg,6,108,live
498,A2H6K1XIK4LY7O:3RXCAC0YITWJ9ODTXLDTB3K370P8GK,1346,056648.jpg,6,109,live
499,A2H6K1XIK4LY7O:3RXCAC0YITWJ9ODTXLDTB3K370P8GK,8156,093378.jpg,6,110,live
500,A3F51C49T9A34D:31T4R4OBOUN2SYS5LUP47C3TYOPC7P,8772,077071.jpg,3,2,live
501,A3F51C49T9A34D:31T4R4OBOUN2SYS5LUP47C3TYOPC7P,3243,042306.jpg,1,3,live
502,A3F51C49T9A34D:31T4R4OBOUN2SYS5LUP47C3TYOPC7P,3772,142336.jpg,8,4,live
503,A3F51C49T9A34D:31T4R4OBOUN2SYS5LUP47C3TYOPC7P,3996,100006.jpg,3,5,live
504,A3F51C49T9A34D:31T4R4OBOUN2SYS5LUP47C3TYOPC7P,2975,078190.jpg,3,6,live
505,A3F51C49T9A34D:31T4R4OBOUN2SYS5LUP47C3TYOPC7P,3202,150552.jpg,6,7,live
506,A3F51C49T9A34D:31T4R4OBOUN2SYS5LUP47C3TYOPC7P,3997,054459.jpg,7,8,live
507,A3F51C49T9A34D:31T4R4OBOUN2SYS5LUP47C3TYOPC7P,2685,015405.jpg,1,9,live
508,A3F51C49T9A34D:31T4R4OBOUN2SYS5LUP47C3TYOPC7P,3611,028197.jpg,5,10,live
509,A3F51C49T9A34D:31T4R4OBOUN2SYS5LUP47C3TYOPC7P,2828,186059.jpg,1,11,live
510,A3F51C49T9A34D:31T4R4OBOUN2SYS5LUP47C3TYOPC7P,5842,100684.jpg,1,13,live
511,A3F51C49T9A34D:31T4R4OBOUN2SYS5LUP47C3TYOPC7P,2822,129756.jpg,1,14,live
512,A3F51C49T9A34D:31T4R4OBOUN2SYS5LUP47C3TYOPC7P,4292,056106.jpg,9,15,live
513,A3F51C49T9A34D:31T4R4OBOUN2SYS5LUP47C3TYOPC7P,2508,106149.jpg,8,16,live
514,A3F51C49T9A34D:31T4R4OBOUN2SYS5LUP47C3TYOPC7P,3708,088398.jpg,8,17,live
515,A3F51C49T9A34D:31T4R4OBOUN2SYS5LUP47C3TYOPC7P,3140,077169.jpg,8,18,live
516,A3F51C49T9A34D:31T4R4OBOUN2SYS5LUP47C3TYOPC7P,3068,065232.jpg,9,19,live
517,A3F51C49T9A34D:31T4R4OBOUN2SYS5LUP47C3TYOPC7P,4276,077010.jpg,2,20,live
518,A3F51C49T9A34D:31T4R4OBOUN2SYS5LUP47C3TYOPC7P,3860,176723.jpg,6,21,live
519,A3F51C49T9A34D:31T4R4OBOUN2SYS5LUP47C3TYOPC7P,2700,113016.jpg,2,22,live
520,A3F51C49T9A34D:31T4R4OBOUN2SYS5LUP47C3TYOPC7P,5540,142657.jpg,1,24,live
521,A3F51C49T9A34D:31T4R4OBOUN2SYS5LUP47C3TYOPC7P,6012,202552.jpg,7,25,live
522,A3F51C49T9A34D:31T4R4OBOUN2SYS5LUP47C3TYOPC7P,2748,049463.jpg,1,26,live
523,A3F51C49T9A34D:31T4R4OBOUN2SYS5LUP47C3TYOPC7P,4685,038546.jpg,8,27,live
524,A3F51C49T9A34D:31T4R4OBOUN2SYS5LUP47C3TYOPC7P,2892,015405.jpg,1,28,live
525,A3F51C49T9A34D:31T4R4OBOUN2SYS5LUP47C3TYOPC7P,3484,038546.jpg,8,29,live
526,A3F51C49T9A34D:31T4R4OBOUN2SYS5LUP47C3TYOPC7P,3046,093378.jpg,8,30,live
527,A3F51C49T9A34D:31T4R4OBOUN2SYS5LUP47C3TYOPC7P,2602,053394.jpg,8,31,live
528,A3F51C49T9A34D:31T4R4OBOUN2SYS5LUP47C3TYOPC7P,4317,053041.jpg,1,32,live
529,A3F51C49T9A34D:31T4R4OBOUN2SYS5LUP47C3TYOPC7P,2964,035472.jpg,1,33,live
530,A3F51C49T9A34D:31T4R4OBOUN2SYS5LUP47C3TYOPC7P,6211,054459.jpg,8,35,live
531,A3F51C49T9A34D:31T4R4OBOUN2SYS5LUP47C3TYOPC7P,3852,083782.jpg,1,36,live
532,A3F51C49T9A34D:31T4R4OBOUN2SYS5LUP47C3TYOPC7P,3469,025788.jpg,7,37,live
533,A3F51C49T9A34D:31T4R4OBOUN2SYS5LUP47C3TYOPC7P,2683,071197.jpg,8,38,live
534,A3F51C49T9A34D:31T4R4OBOUN2SYS5LUP47C3TYOPC7P,2724,142336.jpg,8,39,live
535,A3F51C49T9A34D:31T4R4OBOUN2SYS5LUP47C3TYOPC7P,2742,143051.jpg,1,40,live
536,A3F51C49T9A34D:31T4R4OBOUN2SYS5LUP47C3TYOPC7P,2770,129756.jpg,1,41,live
537,A3F51C49T9A34D:31T4R4OBOUN2SYS5LUP47C3TYOPC7P,4332,127601.jpg,6,42,live
538,A3F51C49T9A34D:31T4R4OBOUN2SYS5LUP47C3TYOPC7P,2620,064273.jpg,7,43,live
539,A3F51C49T9A34D:31T4R4OBOUN2SYS5LUP47C3TYOPC7P,3972,124569.jpg,3,44,live
540,A3F51C49T9A34D:31T4R4OBOUN2SYS5LUP47C3TYOPC7P,2564,052537.jpg,1,46,live
541,A3F51C49T9A34D:31T4R4OBOUN2SYS5LUP47C3TYOPC7P,3303,087519.jpg,1,47,live
542,A3F51C49T9A34D:31T4R4OBOUN2SYS5LUP47C3TYOPC7P,2628,101907.jpg,1,48,live
543,A3F51C49T9A34D:31T4R4OBOUN2SYS5LUP47C3TYOPC7P,4188,185343.jpg,6,49,live
544,A3F51C49T9A34D:31T4R4OBOUN2SYS5LUP47C3TYOPC7P,2349,086142.jpg,1,50,live
545,A3F51C49T9A34D:31T4R4OBOUN2SYS5LUP47C3TYOPC7P,3540,076493.jpg,8,51,live
546,A3F51C49T9A34D:31T4R4OBOUN2SYS5LUP47C3TYOPC7P,3780,081054.jpg,3,52,live
547,A3F51C49T9A34D:31T4R4OBOUN2SYS5LUP47C3TYOPC7P,4292,012584.jpg,8,53,live
548,A3F51C49T9A34D:31T4R4OBOUN2SYS5LUP47C3TYOPC7P,2540,144125.jpg,8,54,live
549,A3F51C49T9A34D:31T4R4OBOUN2SYS5LUP47C3TYOPC7P,5044,066051.jpg,1,55,live
550,A3F51C49T9A34D:31T4R4OBOUN2SYS5LUP47C3TYOPC7P,3452,117797.jpg,5,57,live
551,A3F51C49T9A34D:31T4R4OBOUN2SYS5LUP47C3TYOPC7P,3260,153051.jpg,7,58,live
552,A3F51C49T9A34D:31T4R4OBOUN2SYS5LUP47C3TYOPC7P,2627,113079.jpg,8,59,live
553,A3F51C49T9A34D:31T4R4OBOUN2SYS5LUP47C3TYOPC7P,2821,024231.jpg,8,60,live
554,A3F51C49T9A34D:31T4R4OBOUN2SYS5LUP47C3TYOPC7P,2316,052537.jpg,1,61,live
555,A3F51C49T9A34D:31T4R4OBOUN2SYS5LUP47C3TYOPC7P,6476,176723.jpg,5,62,live
556,A3F51C49T9A34D:31T4R4OBOUN2SYS5LUP47C3TYOPC7P,2645,154870.jpg,1,63,live
557,A3F51C49T9A34D:31T4R4OBOUN2SYS5LUP47C3TYOPC7P,2629,031763.jpg,1,64,live
558,A3F51C49T9A34D:31T4R4OBOUN2SYS5LUP47C3TYOPC7P,2757,174354.jpg,9,65,live
559,A3F51C49T9A34D:31T4R4OBOUN2SYS5LUP47C3TYOPC7P,3716,056648.jpg,4,66,live
560,A3F51C49T9A34D:31T4R4OBOUN2SYS5LUP47C3TYOPC7P,2475,087519.jpg,1,68,live
561,A3F51C49T9A34D:31T4R4OBOUN2SYS5LUP47C3TYOPC7P,3382,034432.jpg,4,69,live
562,A3F51C49T9A34D:31T4R4OBOUN2SYS5LUP47C3TYOPC7P,2924,106414.jpg,2,70,live
563,A3F51C49T9A34D:31T4R4OBOUN2SYS5LUP47C3TYOPC7P,2389,143051.jpg,1,71,live
564,A3F51C49T9A34D:31T4R4OBOUN2SYS5LUP47C3TYOPC7P,5243,088677.jpg,3,72,live
565,A3F51C49T9A34D:31T4R4OBOUN2SYS5LUP47C3TYOPC7P,2844,076409.jpg,3,73,live
566,A3F51C49T9A34D:31T4R4OBOUN2SYS5LUP47C3TYOPC7P,3140,091837.jpg,2,74,live
567,A3F51C49T9A34D:31T4R4OBOUN2SYS5LUP47C3TYOPC7P,6037,091837.jpg,2,75,live
568,A3F51C49T9A34D:31T4R4OBOUN2SYS5LUP47C3TYOPC7P,3212,165401.jpg,7,76,live
569,A3F51C49T9A34D:31T4R4OBOUN2SYS5LUP47C3TYOPC7P,4006,078190.jpg,6,77,live
570,A3F51C49T9A34D:31T4R4OBOUN2SYS5LUP47C3TYOPC7P,3548,084323.jpg,3,79,live
571,A3F51C49T9A34D:31T4R4OBOUN2SYS5LUP47C3TYOPC7P,3069,124843.jpg,4,80,live
572,A3F51C49T9A34D:31T4R4OBOUN2SYS5LUP47C3TYOPC7P,3044,151719.jpg,1,81,live
573,A3F51C49T9A34D:31T4R4OBOUN2SYS5LUP47C3TYOPC7P,2892,024060.jpg,1,82,live
574,A3F51C49T9A34D:31T4R4OBOUN2SYS5LUP47C3TYOPC7P,3676,020087.jpg,8,83,live
575,A3F51C49T9A34D:31T4R4OBOUN2SYS5LUP47C3TYOPC7P,5366,140421.jpg,2,84,live
576,A3F51C49T9A34D:31T4R4OBOUN2SYS5LUP47C3TYOPC7P,4100,093378.jpg,8,85,live
577,A3F51C49T9A34D:31T4R4OBOUN2SYS5LUP47C3TYOPC7P,2501,077518.jpg,8,86,live
578,A3F51C49T9A34D:31T4R4OBOUN2SYS5LUP47C3TYOPC7P,5555,077518.jpg,8,87,live
579,A3F51C49T9A34D:31T4R4OBOUN2SYS5LUP47C3TYOPC7P,3333,054938.jpg,6,88,live
580,A3F51C49T9A34D:31T4R4OBOUN2SYS5LUP47C3TYOPC7P,2579,144125.jpg,8,90,live
581,A3F51C49T9A34D:31T4R4OBOUN2SYS5LUP47C3TYOPC7P,3109,043872.jpg,1,91,live
582,A3F51C49T9A34D:31T4R4OBOUN2SYS5LUP47C3TYOPC7P,2572,049463.jpg,1,92,live
583,A3F51C49T9A34D:31T4R4OBOUN2SYS5LUP47C3TYOPC7P,3293,077010.jpg,2,93,live
584,A3F51C49T9A34D:31T4R4OBOUN2SYS5LUP47C3TYOPC7P,3204,023266.jpg,7,94,live
585,A3F51C49T9A34D:31T4R4OBOUN2SYS5LUP47C3TYOPC7P,2565,050845.jpg,8,95,live
586,A3F51C49T9A34D:31T4R4OBOUN2SYS5LUP47C3TYOPC7P,2644,068350.jpg,1,96,live
587,A3F51C49T9A34D:31T4R4OBOUN2SYS5LUP47C3TYOPC7P,4132,100978.jpg,8,97,live
588,A3F51C49T9A34D:31T4R4OBOUN2SYS5LUP47C3TYOPC7P,3180,127601.jpg,7,98,live
589,A3F51C49T9A34D:31T4R4OBOUN2SYS5LUP47C3TYOPC7P,2797,110369.jpg,9,99,live
590,A3F51C49T9A34D:31T4R4OBOUN2SYS5LUP47C3TYOPC7P,3883,143767.jpg,1,101,live
591,A3F51C49T9A34D:31T4R4OBOUN2SYS5LUP47C3TYOPC7P,3436,042306.jpg,1,102,live
592,A3F51C49T9A34D:31T4R4OBOUN2SYS5LUP47C3TYOPC7P,4958,124569.jpg,2,103,live
593,A3F51C49T9A34D:31T4R4OBOUN2SYS5LUP47C3TYOPC7P,4468,086810.jpg,1,104,live
594,A3F51C49T9A34D:31T4R4OBOUN2SYS5LUP47C3TYOPC7P,2684,173118.jpg,1,105,live
595,A3F51C49T9A34D:31T4R4OBOUN2SYS5LUP47C3TYOPC7P,5924,016460.jpg,7,106,live
596,A3F51C49T9A34D:31T4R4OBOUN2SYS5LUP47C3TYOPC7P,3692,124843.jpg,6,107,live
597,A3F51C49T9A34D:31T4R4OBOUN2SYS5LUP47C3TYOPC7P,4436,032472.jpg,5,108,live
598,A3F51C49T9A34D:31T4R4OBOUN2SYS5LUP47C3TYOPC7P,3004,032084.jpg,1,109,live
599,A3F51C49T9A34D:31T4R4OBOUN2SYS5LUP47C3TYOPC7P,4563,098615.jpg,7,110,live
600,A3RS7UCO7CQ74R:34S9DKFK75W4YMLXXTOI00H21RFNYM,1924,202552.jpg,7,2,live
601,A3RS7UCO7CQ74R:34S9DKFK75W4YMLXXTOI00H21RFNYM,3111,015405.jpg,6,3,live
602,A3RS7UCO7CQ74R:34S9DKFK75W4YMLXXTOI00H21RFNYM,2584,081054.jpg,8,4,live
603,A3RS7UCO7CQ74R:34S9DKFK75W4YMLXXTOI00H21RFNYM,1798,054938.jpg,4,5,live
604,A3RS7UCO7CQ74R:34S9DKFK75W4YMLXXTOI00H21RFNYM,3850,071197.jpg,9,6,live
605,A3RS7UCO7CQ74R:34S9DKFK75W4YMLXXTOI00H21RFNYM,1686,024231.jpg,3,7,live
606,A3RS7UCO7CQ74R:34S9DKFK75W4YMLXXTOI00H21RFNYM,1767,015405.jpg,5,8,live
607,A3RS7UCO7CQ74R:34S9DKFK75W4YMLXXTOI00H21RFNYM,2359,174354.jpg,1,9,live
608,A3RS7UCO7CQ74R:34S9DKFK75W4YMLXXTOI00H21RFNYM,1463,043872.jpg,6,10,live
609,A3RS7UCO7CQ74R:34S9DKFK75W4YMLXXTOI00H21RFNYM,3648,106414.jpg,5,11,live
610,A3RS7UCO7CQ74R:34S9DKFK75W4YMLXXTOI00H21RFNYM,2653,150552.jpg,8,13,live
611,A3RS7UCO7CQ74R:34S9DKFK75W4YMLXXTOI00H21RFNYM,1870,049463.jpg,7,14,live
612,A3RS7UCO7CQ74R:34S9DKFK75W4YMLXXTOI00H21RFNYM,1767,084323.jpg,5,15,live
613,A3RS7UCO7CQ74R:34S9DKFK75W4YMLXXTOI00H21RFNYM,1960,056106.jpg,3,16,live
614,A3RS7UCO7CQ74R:34S9DKFK75W4YMLXXTOI00H21RFNYM,1687,077518.jpg,8,17,live
615,A3RS7UCO7CQ74R:34S9DKFK75W4YMLXXTOI00H21RFNYM,2015,077071.jpg,6,18,live
616,A3RS7UCO7CQ74R:34S9DKFK75W4YMLXXTOI00H21RFNYM,1672,143767.jpg,7,19,live
617,A3RS7UCO7CQ74R:34S9DKFK75W4YMLXXTOI00H21RFNYM,1583,032472.jpg,4,20,live
618,A3RS7UCO7CQ74R:34S9DKFK75W4YMLXXTOI00H21RFNYM,1463,077169.jpg,6,21,live
619,A3RS7UCO7CQ74R:34S9DKFK75W4YMLXXTOI00H21RFNYM,2183,144125.jpg,5,22,live
620,A3RS7UCO7CQ74R:34S9DKFK75W4YMLXXTOI00H21RFNYM,2325,042306.jpg,7,24,live
621,A3RS7UCO7CQ74R:34S9DKFK75W4YMLXXTOI00H21RFNYM,1679,064273.jpg,8,25,live
622,A3RS7UCO7CQ74R:34S9DKFK75W4YMLXXTOI00H21RFNYM,1415,129756.jpg,4,26,live
623,A3RS7UCO7CQ74R:34S9DKFK75W4YMLXXTOI00H21RFNYM,1518,056648.jpg,5,27,live
624,A3RS7UCO7CQ74R:34S9DKFK75W4YMLXXTOI00H21RFNYM,2591,038546.jpg,2,28,live
625,A3RS7UCO7CQ74R:34S9DKFK75W4YMLXXTOI00H21RFNYM,2055,176723.jpg,7,29,live
626,A3RS7UCO7CQ74R:34S9DKFK75W4YMLXXTOI00H21RFNYM,1445,077518.jpg,6,30,live
627,A3RS7UCO7CQ74R:34S9DKFK75W4YMLXXTOI00H21RFNYM,2927,106149.jpg,9,31,live
628,A3RS7UCO7CQ74R:34S9DKFK75W4YMLXXTOI00H21RFNYM,1567,151719.jpg,4,32,live
629,A3RS7UCO7CQ74R:34S9DKFK75W4YMLXXTOI00H21RFNYM,1360,034432.jpg,6,33,live
630,A3RS7UCO7CQ74R:34S9DKFK75W4YMLXXTOI00H21RFNYM,1689,012584.jpg,7,35,live
631,A3RS7UCO7CQ74R:34S9DKFK75W4YMLXXTOI00H21RFNYM,1567,052537.jpg,4,36,live
632,A3RS7UCO7CQ74R:34S9DKFK75W4YMLXXTOI00H21RFNYM,1839,086142.jpg,1,37,live
633,A3RS7UCO7CQ74R:34S9DKFK75W4YMLXXTOI00H21RFNYM,1415,078190.jpg,4,38,live
634,A3RS7UCO7CQ74R:34S9DKFK75W4YMLXXTOI00H21RFNYM,1688,113079.jpg,3,39,live
635,A3RS7UCO7CQ74R:34S9DKFK75W4YMLXXTOI00H21RFNYM,1632,176723.jpg,6,40,live
636,A3RS7UCO7CQ74R:34S9DKFK75W4YMLXXTOI00H21RFNYM,2790,100684.jpg,6,41,live
637,A3RS7UCO7CQ74R:34S9DKFK75W4YMLXXTOI00H21RFNYM,1686,076493.jpg,8,42,live
638,A3RS7UCO7CQ74R:34S9DKFK75W4YMLXXTOI00H21RFNYM,1759,165401.jpg,4,43,live
639,A3RS7UCO7CQ74R:34S9DKFK75W4YMLXXTOI00H21RFNYM,2014,098615.jpg,6,44,live
640,A3RS7UCO7CQ74R:34S9DKFK75W4YMLXXTOI00H21RFNYM,1942,129756.jpg,3,46,live
641,A3RS7UCO7CQ74R:34S9DKFK75W4YMLXXTOI00H21RFNYM,1382,066051.jpg,3,47,live
642,A3RS7UCO7CQ74R:34S9DKFK75W4YMLXXTOI00H21RFNYM,2088,113016.jpg,1,48,live
643,A3RS7UCO7CQ74R:34S9DKFK75W4YMLXXTOI00H21RFNYM,1663,087519.jpg,7,49,live
644,A3RS7UCO7CQ74R:34S9DKFK75W4YMLXXTOI00H21RFNYM,1559,140421.jpg,6,50,live
645,A3RS7UCO7CQ74R:34S9DKFK75W4YMLXXTOI00H21RFNYM,1550,076409.jpg,9,51,live
646,A3RS7UCO7CQ74R:34S9DKFK75W4YMLXXTOI00H21RFNYM,1615,042306.jpg,5,52,live
647,A3RS7UCO7CQ74R:34S9DKFK75W4YMLXXTOI00H21RFNYM,2528,031763.jpg,6,53,live
648,A3RS7UCO7CQ74R:34S9DKFK75W4YMLXXTOI00H21RFNYM,2175,032084.jpg,4,54,live
649,A3RS7UCO7CQ74R:34S9DKFK75W4YMLXXTOI00H21RFNYM,2663,153051.jpg,7,55,live
650,A3RS7UCO7CQ74R:34S9DKFK75W4YMLXXTOI00H21RFNYM,2335,054459.jpg,8,57,live
651,A3RS7UCO7CQ74R:34S9DKFK75W4YMLXXTOI00H21RFNYM,1559,117797.jpg,4,58,live
652,A3RS7UCO7CQ74R:34S9DKFK75W4YMLXXTOI00H21RFNYM,1551,143051.jpg,6,59,live
653,A3RS7UCO7CQ74R:34S9DKFK75W4YMLXXTOI00H21RFNYM,1495,068350.jpg,5,60,live
654,A3RS7UCO7CQ74R:34S9DKFK75W4YMLXXTOI00H21RFNYM,2399,083782.jpg,8,61,live
655,A3RS7UCO7CQ74R:34S9DKFK75W4YMLXXTOI00H21RFNYM,2384,093378.jpg,3,62,live
656,A3RS7UCO7CQ74R:34S9DKFK75W4YMLXXTOI00H21RFNYM,1486,088398.jpg,6,63,live
657,A3RS7UCO7CQ74R:34S9DKFK75W4YMLXXTOI00H21RFNYM,1399,154870.jpg,7,64,live
658,A3RS7UCO7CQ74R:34S9DKFK75W4YMLXXTOI00H21RFNYM,2479,100006.jpg,5,65,live
659,A3RS7UCO7CQ74R:34S9DKFK75W4YMLXXTOI00H21RFNYM,2358,016460.jpg,2,66,live
660,A3RS7UCO7CQ74R:34S9DKFK75W4YMLXXTOI00H21RFNYM,1894,049463.jpg,7,68,live
661,A3RS7UCO7CQ74R:34S9DKFK75W4YMLXXTOI00H21RFNYM,1438,124843.jpg,5,69,live
662,A3RS7UCO7CQ74R:34S9DKFK75W4YMLXXTOI00H21RFNYM,1935,127601.jpg,9,70,live
663,A3RS7UCO7CQ74R:34S9DKFK75W4YMLXXTOI00H21RFNYM,1518,173118.jpg,6,71,live
664,A3RS7UCO7CQ74R:34S9DKFK75W4YMLXXTOI00H21RFNYM,1503,078190.jpg,4,72,live
665,A3RS7UCO7CQ74R:34S9DKFK75W4YMLXXTOI00H21RFNYM,1415,023266.jpg,5,73,live
666,A3RS7UCO7CQ74R:34S9DKFK75W4YMLXXTOI00H21RFNYM,1766,100978.jpg,5,74,live
667,A3RS7UCO7CQ74R:34S9DKFK75W4YMLXXTOI00H21RFNYM,3487,054459.jpg,1,75,live
668,A3RS7UCO7CQ74R:34S9DKFK75W4YMLXXTOI00H21RFNYM,1695,093378.jpg,8,76,live
669,A3RS7UCO7CQ74R:34S9DKFK75W4YMLXXTOI00H21RFNYM,1382,077010.jpg,6,77,live
670,A3RS7UCO7CQ74R:34S9DKFK75W4YMLXXTOI00H21RFNYM,1538,086810.jpg,8,79,live
671,A3RS7UCO7CQ74R:34S9DKFK75W4YMLXXTOI00H21RFNYM,2055,028197.jpg,4,80,live
672,A3RS7UCO7CQ74R:34S9DKFK75W4YMLXXTOI00H21RFNYM,2335,101907.jpg,7,81,live
673,A3RS7UCO7CQ74R:34S9DKFK75W4YMLXXTOI00H21RFNYM,1703,124843.jpg,8,82,live
674,A3RS7UCO7CQ74R:34S9DKFK75W4YMLXXTOI00H21RFNYM,1608,124569.jpg,7,83,live
675,A3RS7UCO7CQ74R:34S9DKFK75W4YMLXXTOI00H21RFNYM,1935,025788.jpg,9,84,live
676,A3RS7UCO7CQ74R:34S9DKFK75W4YMLXXTOI00H21RFNYM,1694,077010.jpg,4,85,live
677,A3RS7UCO7CQ74R:34S9DKFK75W4YMLXXTOI00H21RFNYM,1383,088677.jpg,5,86,live
678,A3RS7UCO7CQ74R:34S9DKFK75W4YMLXXTOI00H21RFNYM,2550,127601.jpg,6,87,live
679,A3RS7UCO7CQ74R:34S9DKFK75W4YMLXXTOI00H21RFNYM,1912,038546.jpg,2,88,live
680,A3RS7UCO7CQ74R:34S9DKFK75W4YMLXXTOI00H21RFNYM,2998,035472.jpg,4,90,live
681,A3RS7UCO7CQ74R:34S9DKFK75W4YMLXXTOI00H21RFNYM,1847,110369.jpg,6,91,live
682,A3RS7UCO7CQ74R:34S9DKFK75W4YMLXXTOI00H21RFNYM,1752,091837.jpg,5,92,live
683,A3RS7UCO7CQ74R:34S9DKFK75W4YMLXXTOI00H21RFNYM,1687,053394.jpg,8,93,live
684,A3RS7UCO7CQ74R:34S9DKFK75W4YMLXXTOI00H21RFNYM,1631,050845.jpg,3,94,live
685,A3RS7UCO7CQ74R:34S9DKFK75W4YMLXXTOI00H21RFNYM,2382,065232.jpg,4,95,live
686,A3RS7UCO7CQ74R:34S9DKFK75W4YMLXXTOI00H21RFNYM,1391,142657.jpg,5,96,live
687,A3RS7UCO7CQ74R:34S9DKFK75W4YMLXXTOI00H21RFNYM,1750,024060.jpg,2,97,live
688,A3RS7UCO7CQ74R:34S9DKFK75W4YMLXXTOI00H21RFNYM,1982,053041.jpg,7,98,live
689,A3RS7UCO7CQ74R:34S9DKFK75W4YMLXXTOI00H21RFNYM,2447,087519.jpg,7,99,live
690,A3RS7UCO7CQ74R:34S9DKFK75W4YMLXXTOI00H21RFNYM,1735,185343.jpg,2,101,live
691,A3RS7UCO7CQ74R:34S9DKFK75W4YMLXXTOI00H21RFNYM,1398,143051.jpg,5,102,live
692,A3RS7UCO7CQ74R:34S9DKFK75W4YMLXXTOI00H21RFNYM,1502,052537.jpg,5,103,live
693,A3RS7UCO7CQ74R:34S9DKFK75W4YMLXXTOI00H21RFNYM,1494,020087.jpg,6,104,live
694,A3RS7UCO7CQ74R:34S9DKFK75W4YMLXXTOI00H21RFNYM,2055,186059.jpg,2,105,live
695,A3RS7UCO7CQ74R:34S9DKFK75W4YMLXXTOI00H21RFNYM,2616,124569.jpg,8,106,live
696,A3RS7UCO7CQ74R:34S9DKFK75W4YMLXXTOI00H21RFNYM,1734,144125.jpg,9,107,live
697,A3RS7UCO7CQ74R:34S9DKFK75W4YMLXXTOI00H21RFNYM,2575,142336.jpg,1,108,live
698,A3RS7UCO7CQ74R:34S9DKFK75W4YMLXXTOI00H21RFNYM,1719,091837.jpg,4,109,live
699,A3RS7UCO7CQ74R:34S9DKFK75W4YMLXXTOI00H21RFNYM,2535,142336.jpg,7,110,live
700,A96CZ20YAZKZ8:3QJOXOW4XLY0AZJ6LRXOGI0MEP2EM0,6830,143051.jpg,1,2,live
701,A96CZ20YAZKZ8:3QJOXOW4XLY0AZJ6LRXOGI0MEP2EM0,9341,129756.jpg,2,3,live
702,A96CZ20YAZKZ8:3QJOXOW4XLY0AZJ6LRXOGI0MEP2EM0,3769,091837.jpg,1,4,live
703,A96CZ20YAZKZ8:3QJOXOW4XLY0AZJ6LRXOGI0MEP2EM0,5211,042306.jpg,6,5,live
704,A96CZ20YAZKZ8:3QJOXOW4XLY0AZJ6LRXOGI0MEP2EM0,4628,034432.jpg,6,6,live
705,A96CZ20YAZKZ8:3QJOXOW4XLY0AZJ6LRXOGI0MEP2EM0,6559,024060.jpg,3,7,live
706,A96CZ20YAZKZ8:3QJOXOW4XLY0AZJ6LRXOGI0MEP2EM0,3147,086142.jpg,1,8,live
707,A96CZ20YAZKZ8:3QJOXOW4XLY0AZJ6LRXOGI0MEP2EM0,5490,077518.jpg,7,9,live
708,A96CZ20YAZKZ8:3QJOXOW4XLY0AZJ6LRXOGI0MEP2EM0,4087,077010.jpg,2,10,live
709,A96CZ20YAZKZ8:3QJOXOW4XLY0AZJ6LRXOGI0MEP2EM0,4668,049463.jpg,1,11,live
710,A96CZ20YAZKZ8:3QJOXOW4XLY0AZJ6LRXOGI0MEP2EM0,12819,124843.jpg,6,13,live
711,A96CZ20YAZKZ8:3QJOXOW4XLY0AZJ6LRXOGI0MEP2EM0,4990,032084.jpg,2,14,live
712,A96CZ20YAZKZ8:3QJOXOW4XLY0AZJ6LRXOGI0MEP2EM0,5723,020087.jpg,7,15,live
713,A96CZ20YAZKZ8:3QJOXOW4XLY0AZJ6LRXOGI0MEP2EM0,5027,053041.jpg,2,16,live
714,A96CZ20YAZKZ8:3QJOXOW4XLY0AZJ6LRXOGI0MEP2EM0,3211,143767.jpg,4,17,live
715,A96CZ20YAZKZ8:3QJOXOW4XLY0AZJ6LRXOGI0MEP2EM0,5391,056106.jpg,9,18,live
716,A96CZ20YAZKZ8:3QJOXOW4XLY0AZJ6LRXOGI0MEP2EM0,3967,113079.jpg,6,19,live
717,A96CZ20YAZKZ8:3QJOXOW4XLY0AZJ6LRXOGI0MEP2EM0,2831,100006.jpg,5,20,live
718,A96CZ20YAZKZ8:3QJOXOW4XLY0AZJ6LRXOGI0MEP2EM0,3582,024231.jpg,6,21,live
719,A96CZ20YAZKZ8:3QJOXOW4XLY0AZJ6LRXOGI0MEP2EM0,4262,077518.jpg,7,22,live
720,A96CZ20YAZKZ8:3QJOXOW4XLY0AZJ6LRXOGI0MEP2EM0,7504,054459.jpg,4,24,live
721,A96CZ20YAZKZ8:3QJOXOW4XLY0AZJ6LRXOGI0MEP2EM0,5434,093378.jpg,6,25,live
722,A96CZ20YAZKZ8:3QJOXOW4XLY0AZJ6LRXOGI0MEP2EM0,3848,023266.jpg,6,26,live
723,A96CZ20YAZKZ8:3QJOXOW4XLY0AZJ6LRXOGI0MEP2EM0,3504,110369.jpg,8,27,live
724,A96CZ20YAZKZ8:3QJOXOW4XLY0AZJ6LRXOGI0MEP2EM0,5879,053394.jpg,7,28,live
725,A96CZ20YAZKZ8:3QJOXOW4XLY0AZJ6LRXOGI0MEP2EM0,2896,124569.jpg,6,29,live
726,A96CZ20YAZKZ8:3QJOXOW4XLY0AZJ6LRXOGI0MEP2EM0,3267,091837.jpg,1,30,live
727,A96CZ20YAZKZ8:3QJOXOW4XLY0AZJ6LRXOGI0MEP2EM0,3201,031763.jpg,2,31,live
728,A96CZ20YAZKZ8:3QJOXOW4XLY0AZJ6LRXOGI0MEP2EM0,4006,093378.jpg,6,32,live
729,A96CZ20YAZKZ8:3QJOXOW4XLY0AZJ6LRXOGI0MEP2EM0,7197,054459.jpg,4,33,live
730,A96CZ20YAZKZ8:3QJOXOW4XLY0AZJ6LRXOGI0MEP2EM0,6251,150552.jpg,4,35,live
731,A96CZ20YAZKZ8:3QJOXOW4XLY0AZJ6LRXOGI0MEP2EM0,4135,144125.jpg,6,36,live
732,A96CZ20YAZKZ8:3QJOXOW4XLY0AZJ6LRXOGI0MEP2EM0,4285,015405.jpg,1,37,live
733,A96CZ20YAZKZ8:3QJOXOW4XLY0AZJ6LRXOGI0MEP2EM0,3496,151719.jpg,2,38,live
734,A96CZ20YAZKZ8:3QJOXOW4XLY0AZJ6LRXOGI0MEP2EM0,4207,084323.jpg,3,39,live
735,A96CZ20YAZKZ8:3QJOXOW4XLY0AZJ6LRXOGI0MEP2EM0,4369,185343.jpg,6,40,live
736,A96CZ20YAZKZ8:3QJOXOW4XLY0AZJ6LRXOGI0MEP2EM0,2874,016460.jpg,6,41,live
737,A96CZ20YAZKZ8:3QJOXOW4XLY0AZJ6LRXOGI0MEP2EM0,4099,050845.jpg,7,42,live
738,A96CZ20YAZKZ8:3QJOXOW4XLY0AZJ6LRXOGI0MEP2EM0,3646,088398.jpg,8,43,live
739,A96CZ20YAZKZ8:3QJOXOW4XLY0AZJ6LRXOGI0MEP2EM0,4107,173118.jpg,1,44,live
740,A96CZ20YAZKZ8:3QJOXOW4XLY0AZJ6LRXOGI0MEP2EM0,3462,076409.jpg,2,46,live
741,A96CZ20YAZKZ8:3QJOXOW4XLY0AZJ6LRXOGI0MEP2EM0,3310,028197.jpg,6,47,live
742,A96CZ20YAZKZ8:3QJOXOW4XLY0AZJ6LRXOGI0MEP2EM0,3959,077071.jpg,4,48,live
743,A96CZ20YAZKZ8:3QJOXOW4XLY0AZJ6LRXOGI0MEP2EM0,4700,153051.jpg,5,49,live
744,A96CZ20YAZKZ8:3QJOXOW4XLY0AZJ6LRXOGI0MEP2EM0,3682,077010.jpg,2,50,live
745,A96CZ20YAZKZ8:3QJOXOW4XLY0AZJ6LRXOGI0MEP2EM0,3513,142657.jpg,2,51,live
746,A96CZ20YAZKZ8:3QJOXOW4XLY0AZJ6LRXOGI0MEP2EM0,4645,035472.jpg,1,52,live
747,A96CZ20YAZKZ8:3QJOXOW4XLY0AZJ6LRXOGI0MEP2EM0,2763,071197.jpg,5,53,live
748,A96CZ20YAZKZ8:3QJOXOW4XLY0AZJ6LRXOGI0MEP2EM0,2645,012584.jpg,6,54,live
749,A96CZ20YAZKZ8:3QJOXOW4XLY0AZJ6LRXOGI0MEP2EM0,2621,076493.jpg,6,55,live
750,A96CZ20YAZKZ8:3QJOXOW4XLY0AZJ6LRXOGI0MEP2EM0,3566,129756.jpg,2,57,live
751,A96CZ20YAZKZ8:3QJOXOW4XLY0AZJ6LRXOGI0MEP2EM0,4691,106414.jpg,2,58,live
752,A96CZ20YAZKZ8:3QJOXOW4XLY0AZJ6LRXOGI0MEP2EM0,3592,127601.jpg,6,59,live
753,A96CZ20YAZKZ8:3QJOXOW4XLY0AZJ6LRXOGI0MEP2EM0,4015,176723.jpg,5,60,live
754,A96CZ20YAZKZ8:3QJOXOW4XLY0AZJ6LRXOGI0MEP2EM0,3465,087519.jpg,1,61,live
755,A96CZ20YAZKZ8:3QJOXOW4XLY0AZJ6LRXOGI0MEP2EM0,4034,056648.jpg,5,62,live
756,A96CZ20YAZKZ8:3QJOXOW4XLY0AZJ6LRXOGI0MEP2EM0,4988,154870.jpg,5,63,live
757,A96CZ20YAZKZ8:3QJOXOW4XLY0AZJ6LRXOGI0MEP2EM0,3332,174354.jpg,8,64,live
758,A96CZ20YAZKZ8:3QJOXOW4XLY0AZJ6LRXOGI0MEP2EM0,3661,083782.jpg,1,65,live
759,A96CZ20YAZKZ8:3QJOXOW4XLY0AZJ6LRXOGI0MEP2EM0,4799,113016.jpg,2,66,live
760,A96CZ20YAZKZ8:3QJOXOW4XLY0AZJ6LRXOGI0MEP2EM0,2749,176723.jpg,5,68,live
761,A96CZ20YAZKZ8:3QJOXOW4XLY0AZJ6LRXOGI0MEP2EM0,3835,081054.jpg,4,69,live
762,A96CZ20YAZKZ8:3QJOXOW4XLY0AZJ6LRXOGI0MEP2EM0,4408,052537.jpg,4,70,live
763,A96CZ20YAZKZ8:3QJOXOW4XLY0AZJ6LRXOGI0MEP2EM0,2798,038546.jpg,6,71,live
764,A96CZ20YAZKZ8:3QJOXOW4XLY0AZJ6LRXOGI0MEP2EM0,2826,032472.jpg,5,72,live
765,A96CZ20YAZKZ8:3QJOXOW4XLY0AZJ6LRXOGI0MEP2EM0,3935,101907.jpg,2,73,live
766,A96CZ20YAZKZ8:3QJOXOW4XLY0AZJ6LRXOGI0MEP2EM0,4809,068350.jpg,2,74,live
767,A96CZ20YAZKZ8:3QJOXOW4XLY0AZJ6LRXOGI0MEP2EM0,3763,078190.jpg,5,75,live
768,A96CZ20YAZKZ8:3QJOXOW4XLY0AZJ6LRXOGI0MEP2EM0,4865,142336.jpg,5,76,live
769,A96CZ20YAZKZ8:3QJOXOW4XLY0AZJ6LRXOGI0MEP2EM0,2777,124569.jpg,5,77,live
770,A96CZ20YAZKZ8:3QJOXOW4XLY0AZJ6LRXOGI0MEP2EM0,4494,124843.jpg,6,79,live
771,A96CZ20YAZKZ8:3QJOXOW4XLY0AZJ6LRXOGI0MEP2EM0,2898,087519.jpg,1,80,live
772,A96CZ20YAZKZ8:3QJOXOW4XLY0AZJ6LRXOGI0MEP2EM0,4734,100978.jpg,4,81,live
773,A96CZ20YAZKZ8:3QJOXOW4XLY0AZJ6LRXOGI0MEP2EM0,3865,077169.jpg,6,82,live
774,A96CZ20YAZKZ8:3QJOXOW4XLY0AZJ6LRXOGI0MEP2EM0,2685,140421.jpg,4,83,live
775,A96CZ20YAZKZ8:3QJOXOW4XLY0AZJ6LRXOGI0MEP2EM0,2863,127601.jpg,5,84,live
776,A96CZ20YAZKZ8:3QJOXOW4XLY0AZJ6LRXOGI0MEP2EM0,7176,049463.jpg,1,85,live
777,A96CZ20YAZKZ8:3QJOXOW4XLY0AZJ6LRXOGI0MEP2EM0,3301,086810.jpg,1,86,live
778,A96CZ20YAZKZ8:3QJOXOW4XLY0AZJ6LRXOGI0MEP2EM0,3029,088677.jpg,4,87,live
779,A96CZ20YAZKZ8:3QJOXOW4XLY0AZJ6LRXOGI0MEP2EM0,3643,066051.jpg,3,88,live
780,A96CZ20YAZKZ8:3QJOXOW4XLY0AZJ6LRXOGI0MEP2EM0,2903,106149.jpg,5,90,live
781,A96CZ20YAZKZ8:3QJOXOW4XLY0AZJ6LRXOGI0MEP2EM0,3472,065232.jpg,6,91,live
782,A96CZ20YAZKZ8:3QJOXOW4XLY0AZJ6LRXOGI0MEP2EM0,5253,078190.jpg,5,92,live
783,A96CZ20YAZKZ8:3QJOXOW4XLY0AZJ6LRXOGI0MEP2EM0,3074,054938.jpg,6,93,live
784,A96CZ20YAZKZ8:3QJOXOW4XLY0AZJ6LRXOGI0MEP2EM0,4364,042306.jpg,5,94,live
785,A96CZ20YAZKZ8:3QJOXOW4XLY0AZJ6LRXOGI0MEP2EM0,2412,142336.jpg,5,95,live
786,A96CZ20YAZKZ8:3QJOXOW4XLY0AZJ6LRXOGI0MEP2EM0,6083,100684.jpg,5,96,live
787,A96CZ20YAZKZ8:3QJOXOW4XLY0AZJ6LRXOGI0MEP2EM0,4308,043872.jpg,4,97,live
788,A96CZ20YAZKZ8:3QJOXOW4XLY0AZJ6LRXOGI0MEP2EM0,4825,038546.jpg,5,98,live
789,A96CZ20YAZKZ8:3QJOXOW4XLY0AZJ6LRXOGI0MEP2EM0,3309,064273.jpg,5,99,live
790,A96CZ20YAZKZ8:3QJOXOW4XLY0AZJ6LRXOGI0MEP2EM0,3520,143051.jpg,1,101,live
791,A96CZ20YAZKZ8:3QJOXOW4XLY0AZJ6LRXOGI0MEP2EM0,3925,186059.jpg,1,102,live
792,A96CZ20YAZKZ8:3QJOXOW4XLY0AZJ6LRXOGI0MEP2EM0,5747,202552.jpg,5,103,live
793,A96CZ20YAZKZ8:3QJOXOW4XLY0AZJ6LRXOGI0MEP2EM0,4247,165401.jpg,5,104,live
794,A96CZ20YAZKZ8:3QJOXOW4XLY0AZJ6LRXOGI0MEP2EM0,3285,025788.jpg,6,105,live
795,A96CZ20YAZKZ8:3QJOXOW4XLY0AZJ6LRXOGI0MEP2EM0,2575,144125.jpg,5,106,live
796,A96CZ20YAZKZ8:3QJOXOW4XLY0AZJ6LRXOGI0MEP2EM0,4037,098615.jpg,5,107,live
797,A96CZ20YAZKZ8:3QJOXOW4XLY0AZJ6LRXOGI0MEP2EM0,2956,052537.jpg,4,108,live
798,A96CZ20YAZKZ8:3QJOXOW4XLY0AZJ6LRXOGI0MEP2EM0,2981,015405.jpg,1,109,live
799,A96CZ20YAZKZ8:3QJOXOW4XLY0AZJ6LRXOGI0MEP2EM0,3741,117797.jpg,5,110,live
800,A1X84T4EFW04GZ:3QY5DC2MXTRBTLOBP48GPA2G3CKFUB,3452,086810.jpg,2,2,live
801,A1X84T4EFW04GZ:3QY5DC2MXTRBTLOBP48GPA2G3CKFUB,38185,077518.jpg,8,3,live
802,A1X84T4EFW04GZ:3QY5DC2MXTRBTLOBP48GPA2G3CKFUB,1529,031763.jpg,6,4,live
803,A1X84T4EFW04GZ:3QY5DC2MXTRBTLOBP48GPA2G3CKFUB,3461,023266.jpg,7,5,live
804,A1X84T4EFW04GZ:3QY5DC2MXTRBTLOBP48GPA2G3CKFUB,2704,176723.jpg,8,6,live
805,A1X84T4EFW04GZ:3QY5DC2MXTRBTLOBP48GPA2G3CKFUB,1917,038546.jpg,5,7,live
806,A1X84T4EFW04GZ:3QY5DC2MXTRBTLOBP48GPA2G3CKFUB,3302,129756.jpg,2,8,live
807,A1X84T4EFW04GZ:3QY5DC2MXTRBTLOBP48GPA2G3CKFUB,2295,174354.jpg,9,9,live
808,A1X84T4EFW04GZ:3QY5DC2MXTRBTLOBP48GPA2G3CKFUB,2161,087519.jpg,6,10,live
809,A1X84T4EFW04GZ:3QY5DC2MXTRBTLOBP48GPA2G3CKFUB,2847,064273.jpg,5,11,live
810,A1X84T4EFW04GZ:3QY5DC2MXTRBTLOBP48GPA2G3CKFUB,3209,143051.jpg,2,13,live
811,A1X84T4EFW04GZ:3QY5DC2MXTRBTLOBP48GPA2G3CKFUB,2872,032472.jpg,6,14,live
812,A1X84T4EFW04GZ:3QY5DC2MXTRBTLOBP48GPA2G3CKFUB,49189,124843.jpg,8,15,live
813,A1X84T4EFW04GZ:3QY5DC2MXTRBTLOBP48GPA2G3CKFUB,2452,077010.jpg,3,16,live
814,A1X84T4EFW04GZ:3QY5DC2MXTRBTLOBP48GPA2G3CKFUB,2039,016460.jpg,7,17,live
815,A1X84T4EFW04GZ:3QY5DC2MXTRBTLOBP48GPA2G3CKFUB,2496,078190.jpg,8,18,live
816,A1X84T4EFW04GZ:3QY5DC2MXTRBTLOBP48GPA2G3CKFUB,2712,042306.jpg,6,19,live
817,A1X84T4EFW04GZ:3QY5DC2MXTRBTLOBP48GPA2G3CKFUB,3479,068350.jpg,4,20,live
818,A1X84T4EFW04GZ:3QY5DC2MXTRBTLOBP48GPA2G3CKFUB,2630,077071.jpg,5,21,live
819,A1X84T4EFW04GZ:3QY5DC2MXTRBTLOBP48GPA2G3CKFUB,2198,142657.jpg,6,22,live
820,A1X84T4EFW04GZ:3QY5DC2MXTRBTLOBP48GPA2G3CKFUB,2691,052537.jpg,3,24,live
821,A1X84T4EFW04GZ:3QY5DC2MXTRBTLOBP48GPA2G3CKFUB,3716,028197.jpg,5,25,live
822,A1X84T4EFW04GZ:3QY5DC2MXTRBTLOBP48GPA2G3CKFUB,2462,088677.jpg,6,26,live
823,A1X84T4EFW04GZ:3QY5DC2MXTRBTLOBP48GPA2G3CKFUB,2650,129756.jpg,7,27,live
824,A1X84T4EFW04GZ:3QY5DC2MXTRBTLOBP48GPA2G3CKFUB,3760,154870.jpg,8,28,live
825,A1X84T4EFW04GZ:3QY5DC2MXTRBTLOBP48GPA2G3CKFUB,2678,165401.jpg,6,29,live
826,A1X84T4EFW04GZ:3QY5DC2MXTRBTLOBP48GPA2G3CKFUB,1923,127601.jpg,6,30,live
827,A1X84T4EFW04GZ:3QY5DC2MXTRBTLOBP48GPA2G3CKFUB,4019,086142.jpg,1,31,live
828,A1X84T4EFW04GZ:3QY5DC2MXTRBTLOBP48GPA2G3CKFUB,3340,106414.jpg,2,32,live
829,A1X84T4EFW04GZ:3QY5DC2MXTRBTLOBP48GPA2G3CKFUB,2740,015405.jpg,6,33,live
830,A1X84T4EFW04GZ:3QY5DC2MXTRBTLOBP48GPA2G3CKFUB,2802,052537.jpg,3,35,live
831,A1X84T4EFW04GZ:3QY5DC2MXTRBTLOBP48GPA2G3CKFUB,26212,143051.jpg,7,36,live
832,A1X84T4EFW04GZ:3QY5DC2MXTRBTLOBP48GPA2G3CKFUB,2812,173118.jpg,3,37,live
833,A1X84T4EFW04GZ:3QY5DC2MXTRBTLOBP48GPA2G3CKFUB,2995,049463.jpg,3,38,live
834,A1X84T4EFW04GZ:3QY5DC2MXTRBTLOBP48GPA2G3CKFUB,2676,024060.jpg,5,39,live
835,A1X84T4EFW04GZ:3QY5DC2MXTRBTLOBP48GPA2G3CKFUB,2251,117797.jpg,6,40,live
836,A1X84T4EFW04GZ:3QY5DC2MXTRBTLOBP48GPA2G3CKFUB,6624,106149.jpg,6,41,live
837,A1X84T4EFW04GZ:3QY5DC2MXTRBTLOBP48GPA2G3CKFUB,3302,035472.jpg,4,42,live
838,A1X84T4EFW04GZ:3QY5DC2MXTRBTLOBP48GPA2G3CKFUB,3106,093378.jpg,8,43,live
839,A1X84T4EFW04GZ:3QY5DC2MXTRBTLOBP48GPA2G3CKFUB,2078,142336.jpg,6,44,live
840,A1X84T4EFW04GZ:3QY5DC2MXTRBTLOBP48GPA2G3CKFUB,3032,140421.jpg,6,46,live
841,A1X84T4EFW04GZ:3QY5DC2MXTRBTLOBP48GPA2G3CKFUB,2244,100978.jpg,5,47,live
842,A1X84T4EFW04GZ:3QY5DC2MXTRBTLOBP48GPA2G3CKFUB,2690,124843.jpg,8,48,live
843,A1X84T4EFW04GZ:3QY5DC2MXTRBTLOBP48GPA2G3CKFUB,2204,025788.jpg,6,49,live
844,A1X84T4EFW04GZ:3QY5DC2MXTRBTLOBP48GPA2G3CKFUB,4019,054459.jpg,3,50,live
845,A1X84T4EFW04GZ:3QY5DC2MXTRBTLOBP48GPA2G3CKFUB,2599,124569.jpg,7,51,live
846,A1X84T4EFW04GZ:3QY5DC2MXTRBTLOBP48GPA2G3CKFUB,3762,091837.jpg,8,52,live
847,A1X84T4EFW04GZ:3QY5DC2MXTRBTLOBP48GPA2G3CKFUB,2206,153051.jpg,6,53,live
848,A1X84T4EFW04GZ:3QY5DC2MXTRBTLOBP48GPA2G3CKFUB,3583,087519.jpg,3,54,live
849,A1X84T4EFW04GZ:3QY5DC2MXTRBTLOBP48GPA2G3CKFUB,3066,056648.jpg,9,55,live
850,A1X84T4EFW04GZ:3QY5DC2MXTRBTLOBP48GPA2G3CKFUB,2662,076493.jpg,6,57,live
851,A1X84T4EFW04GZ:3QY5DC2MXTRBTLOBP48GPA2G3CKFUB,2246,081054.jpg,8,58,live
852,A1X84T4EFW04GZ:3QY5DC2MXTRBTLOBP48GPA2G3CKFUB,2986,056106.jpg,9,59,live
853,A1X84T4EFW04GZ:3QY5DC2MXTRBTLOBP48GPA2G3CKFUB,4209,071197.jpg,2,60,live
854,A1X84T4EFW04GZ:3QY5DC2MXTRBTLOBP48GPA2G3CKFUB,1855,053041.jpg,5,61,live
855,A1X84T4EFW04GZ:3QY5DC2MXTRBTLOBP48GPA2G3CKFUB,2603,093378.jpg,7,62,live
856,A1X84T4EFW04GZ:3QY5DC2MXTRBTLOBP48GPA2G3CKFUB,2753,144125.jpg,3,63,live
857,A1X84T4EFW04GZ:3QY5DC2MXTRBTLOBP48GPA2G3CKFUB,2982,101907.jpg,1,64,live
858,A1X84T4EFW04GZ:3QY5DC2MXTRBTLOBP48GPA2G3CKFUB,4132,054938.jpg,3,65,live
859,A1X84T4EFW04GZ:3QY5DC2MXTRBTLOBP48GPA2G3CKFUB,3150,150552.jpg,5,66,live
860,A1X84T4EFW04GZ:3QY5DC2MXTRBTLOBP48GPA2G3CKFUB,3425,176723.jpg,6,68,live
861,A1X84T4EFW04GZ:3QY5DC2MXTRBTLOBP48GPA2G3CKFUB,2214,012584.jpg,7,69,live
862,A1X84T4EFW04GZ:3QY5DC2MXTRBTLOBP48GPA2G3CKFUB,2126,032084.jpg,6,70,live
863,A1X84T4EFW04GZ:3QY5DC2MXTRBTLOBP48GPA2G3CKFUB,2241,127601.jpg,5,71,live
864,A1X84T4EFW04GZ:3QY5DC2MXTRBTLOBP48GPA2G3CKFUB,2210,076409.jpg,6,72,live
865,A1X84T4EFW04GZ:3QY5DC2MXTRBTLOBP48GPA2G3CKFUB,2360,020087.jpg,8,73,live
866,A1X84T4EFW04GZ:3QY5DC2MXTRBTLOBP48GPA2G3CKFUB,2141,078190.jpg,7,74,live
867,A1X84T4EFW04GZ:3QY5DC2MXTRBTLOBP48GPA2G3CKFUB,2222,110369.jpg,7,75,live
868,A1X84T4EFW04GZ:3QY5DC2MXTRBTLOBP48GPA2G3CKFUB,2921,024231.jpg,7,76,live
869,A1X84T4EFW04GZ:3QY5DC2MXTRBTLOBP48GPA2G3CKFUB,2633,053394.jpg,6,77,live
870,A1X84T4EFW04GZ:3QY5DC2MXTRBTLOBP48GPA2G3CKFUB,2845,124569.jpg,6,79,live
871,A1X84T4EFW04GZ:3QY5DC2MXTRBTLOBP48GPA2G3CKFUB,2679,091837.jpg,6,80,live
872,A1X84T4EFW04GZ:3QY5DC2MXTRBTLOBP48GPA2G3CKFUB,4110,143767.jpg,7,81,live
873,A1X84T4EFW04GZ:3QY5DC2MXTRBTLOBP48GPA2G3CKFUB,2799,034432.jpg,8,82,live
874,A1X84T4EFW04GZ:3QY5DC2MXTRBTLOBP48GPA2G3CKFUB,3374,043872.jpg,4,83,live
875,A1X84T4EFW04GZ:3QY5DC2MXTRBTLOBP48GPA2G3CKFUB,2231,144125.jpg,6,84,live
876,A1X84T4EFW04GZ:3QY5DC2MXTRBTLOBP48GPA2G3CKFUB,2245,054459.jpg,7,85,live
877,A1X84T4EFW04GZ:3QY5DC2MXTRBTLOBP48GPA2G3CKFUB,3442,083782.jpg,6,86,live
878,A1X84T4EFW04GZ:3QY5DC2MXTRBTLOBP48GPA2G3CKFUB,2908,077169.jpg,7,87,live
879,A1X84T4EFW04GZ:3QY5DC2MXTRBTLOBP48GPA2G3CKFUB,2880,065232.jpg,8,88,live
880,A1X84T4EFW04GZ:3QY5DC2MXTRBTLOBP48GPA2G3CKFUB,3840,098615.jpg,5,90,live
881,A1X84T4EFW04GZ:3QY5DC2MXTRBTLOBP48GPA2G3CKFUB,2853,142336.jpg,7,91,live
882,A1X84T4EFW04GZ:3QY5DC2MXTRBTLOBP48GPA2G3CKFUB,2386,151719.jpg,4,92,live
883,A1X84T4EFW04GZ:3QY5DC2MXTRBTLOBP48GPA2G3CKFUB,2289,113079.jpg,6,93,live
884,A1X84T4EFW04GZ:3QY5DC2MXTRBTLOBP48GPA2G3CKFUB,2577,049463.jpg,3,94,live
885,A1X84T4EFW04GZ:3QY5DC2MXTRBTLOBP48GPA2G3CKFUB,3387,100006.jpg,5,95,live
886,A1X84T4EFW04GZ:3QY5DC2MXTRBTLOBP48GPA2G3CKFUB,4757,042306.jpg,7,96,live
887,A1X84T4EFW04GZ:3QY5DC2MXTRBTLOBP48GPA2G3CKFUB,2590,077010.jpg,3,97,live
888,A1X84T4EFW04GZ:3QY5DC2MXTRBTLOBP48GPA2G3CKFUB,3041,050845.jpg,8,98,live
889,A1X84T4EFW04GZ:3QY5DC2MXTRBTLOBP48GPA2G3CKFUB,2642,100684.jpg,3,99,live
890,A1X84T4EFW04GZ:3QY5DC2MXTRBTLOBP48GPA2G3CKFUB,2168,113016.jpg,7,101,live
891,A1X84T4EFW04GZ:3QY5DC2MXTRBTLOBP48GPA2G3CKFUB,2989,066051.jpg,3,102,live
892,A1X84T4EFW04GZ:3QY5DC2MXTRBTLOBP48GPA2G3CKFUB,3064,084323.jpg,2,103,live
893,A1X84T4EFW04GZ:3QY5DC2MXTRBTLOBP48GPA2G3CKFUB,3079,186059.jpg,3,104,live
894,A1X84T4EFW04GZ:3QY5DC2MXTRBTLOBP48GPA2G3CKFUB,3650,088398.jpg,8,105,live
895,A1X84T4EFW04GZ:3QY5DC2MXTRBTLOBP48GPA2G3CKFUB,1738,185343.jpg,6,106,live
896,A1X84T4EFW04GZ:3QY5DC2MXTRBTLOBP48GPA2G3CKFUB,2234,077518.jpg,7,107,live
897,A1X84T4EFW04GZ:3QY5DC2MXTRBTLOBP48GPA2G3CKFUB,3854,015405.jpg,3,108,live
898,A1X84T4EFW04GZ:3QY5DC2MXTRBTLOBP48GPA2G3CKFUB,4027,038546.jpg,6,109,live
899,A1X84T4EFW04GZ:3QY5DC2MXTRBTLOBP48GPA2G3CKFUB,2346,202552.jpg,7,110,live
900,A1089SKYYGN46O:3TOK3KHVJVP31NP8BZYV2CXAN2FO75,5141,110369.jpg,6,2,live
901,A1089SKYYGN46O:3TOK3KHVJVP31NP8BZYV2CXAN2FO75,5213,043872.jpg,4,3,live
902,A1089SKYYGN46O:3TOK3KHVJVP31NP8BZYV2CXAN2FO75,3118,064273.jpg,3,4,live
903,A1089SKYYGN46O:3TOK3KHVJVP31NP8BZYV2CXAN2FO75,2750,024231.jpg,3,5,live
904,A1089SKYYGN46O:3TOK3KHVJVP31NP8BZYV2CXAN2FO75,2526,154870.jpg,2,6,live
905,A1089SKYYGN46O:3TOK3KHVJVP31NP8BZYV2CXAN2FO75,2431,202552.jpg,3,7,live
906,A1089SKYYGN46O:3TOK3KHVJVP31NP8BZYV2CXAN2FO75,3798,143051.jpg,2,8,live
907,A1089SKYYGN46O:3TOK3KHVJVP31NP8BZYV2CXAN2FO75,3126,142657.jpg,3,9,live
908,A1089SKYYGN46O:3TOK3KHVJVP31NP8BZYV2CXAN2FO75,2438,113079.jpg,4,10,live
909,A1089SKYYGN46O:3TOK3KHVJVP31NP8BZYV2CXAN2FO75,3054,101907.jpg,2,11,live
910,A1089SKYYGN46O:3TOK3KHVJVP31NP8BZYV2CXAN2FO75,4669,052537.jpg,4,13,live
911,A1089SKYYGN46O:3TOK3KHVJVP31NP8BZYV2CXAN2FO75,2734,015405.jpg,2,14,live
912,A1089SKYYGN46O:3TOK3KHVJVP31NP8BZYV2CXAN2FO75,4558,083782.jpg,1,15,live
913,A1089SKYYGN46O:3TOK3KHVJVP31NP8BZYV2CXAN2FO75,4077,077010.jpg,2,16,live
914,A1089SKYYGN46O:3TOK3KHVJVP31NP8BZYV2CXAN2FO75,3390,077518.jpg,3,17,live
915,A1089SKYYGN46O:3TOK3KHVJVP31NP8BZYV2CXAN2FO75,1959,176723.jpg,2,18,live
916,A1089SKYYGN46O:3TOK3KHVJVP31NP8BZYV2CXAN2FO75,2238,049463.jpg,3,19,live
917,A1089SKYYGN46O:3TOK3KHVJVP31NP8BZYV2CXAN2FO75,1862,113016.jpg,2,20,live
918,A1089SKYYGN46O:3TOK3KHVJVP31NP8BZYV2CXAN2FO75,2174,142336.jpg,3,21,live
919,A1089SKYYGN46O:3TOK3KHVJVP31NP8BZYV2CXAN2FO75,3133,054938.jpg,2,22,live
920,A1089SKYYGN46O:3TOK3KHVJVP31NP8BZYV2CXAN2FO75,2745,100978.jpg,3,24,live
921,A1089SKYYGN46O:3TOK3KHVJVP31NP8BZYV2CXAN2FO75,195037,054459.jpg,2,25,live
922,A1089SKYYGN46O:3TOK3KHVJVP31NP8BZYV2CXAN2FO75,5493,151719.jpg,2,26,live
923,A1089SKYYGN46O:3TOK3KHVJVP31NP8BZYV2CXAN2FO75,3998,049463.jpg,3,27,live
924,A1089SKYYGN46O:3TOK3KHVJVP31NP8BZYV2CXAN2FO75,2782,091837.jpg,3,28,live
925,A1089SKYYGN46O:3TOK3KHVJVP31NP8BZYV2CXAN2FO75,1790,093378.jpg,2,29,live
926,A1089SKYYGN46O:3TOK3KHVJVP31NP8BZYV2CXAN2FO75,2462,020087.jpg,2,30,live
927,A1089SKYYGN46O:3TOK3KHVJVP31NP8BZYV2CXAN2FO75,4535,065232.jpg,3,31,live
928,A1089SKYYGN46O:3TOK3KHVJVP31NP8BZYV2CXAN2FO75,5174,088398.jpg,2,32,live
929,A1089SKYYGN46O:3TOK3KHVJVP31NP8BZYV2CXAN2FO75,3070,093378.jpg,3,33,live
930,A1089SKYYGN46O:3TOK3KHVJVP31NP8BZYV2CXAN2FO75,3789,100006.jpg,3,35,live
931,A1089SKYYGN46O:3TOK3KHVJVP31NP8BZYV2CXAN2FO75,3705,084323.jpg,2,36,live
932,A1089SKYYGN46O:3TOK3KHVJVP31NP8BZYV2CXAN2FO75,3531,143767.jpg,3,37,live
933,A1089SKYYGN46O:3TOK3KHVJVP31NP8BZYV2CXAN2FO75,2078,153051.jpg,2,38,live
934,A1089SKYYGN46O:3TOK3KHVJVP31NP8BZYV2CXAN2FO75,3070,077518.jpg,2,39,live
935,A1089SKYYGN46O:3TOK3KHVJVP31NP8BZYV2CXAN2FO75,3669,016460.jpg,1,40,live
936,A1089SKYYGN46O:3TOK3KHVJVP31NP8BZYV2CXAN2FO75,2038,117797.jpg,2,41,live
937,A1089SKYYGN46O:3TOK3KHVJVP31NP8BZYV2CXAN2FO75,2431,042306.jpg,2,42,live
938,A1089SKYYGN46O:3TOK3KHVJVP31NP8BZYV2CXAN2FO75,2310,144125.jpg,3,43,live
939,A1089SKYYGN46O:3TOK3KHVJVP31NP8BZYV2CXAN2FO75,1925,035472.jpg,1,44,live
940,A1089SKYYGN46O:3TOK3KHVJVP31NP8BZYV2CXAN2FO75,2198,078190.jpg,3,46,live
941,A1089SKYYGN46O:3TOK3KHVJVP31NP8BZYV2CXAN2FO75,2558,088677.jpg,2,47,live
942,A1089SKYYGN46O:3TOK3KHVJVP31NP8BZYV2CXAN2FO75,2206,071197.jpg,1,48,live
943,A1089SKYYGN46O:3TOK3KHVJVP31NP8BZYV2CXAN2FO75,2432,050845.jpg,2,49,live
944,A1089SKYYGN46O:3TOK3KHVJVP31NP8BZYV2CXAN2FO75,2965,077010.jpg,3,50,live
945,A1089SKYYGN46O:3TOK3KHVJVP31NP8BZYV2CXAN2FO75,3518,066051.jpg,2,51,live
946,A1089SKYYGN46O:3TOK3KHVJVP31NP8BZYV2CXAN2FO75,73966,185343.jpg,2,52,live
947,A1089SKYYGN46O:3TOK3KHVJVP31NP8BZYV2CXAN2FO75,4269,086142.jpg,2,53,live
948,A1089SKYYGN46O:3TOK3KHVJVP31NP8BZYV2CXAN2FO75,4583,081054.jpg,1,54,live
949,A1089SKYYGN46O:3TOK3KHVJVP31NP8BZYV2CXAN2FO75,1838,034432.jpg,2,55,live
950,A1089SKYYGN46O:3TOK3KHVJVP31NP8BZYV2CXAN2FO75,2574,186059.jpg,2,57,live
951,A1089SKYYGN46O:3TOK3KHVJVP31NP8BZYV2CXAN2FO75,2382,106149.jpg,2,58,live
952,A1089SKYYGN46O:3TOK3KHVJVP31NP8BZYV2CXAN2FO75,1525,053041.jpg,1,59,live
953,A1089SKYYGN46O:3TOK3KHVJVP31NP8BZYV2CXAN2FO75,2646,124569.jpg,3,60,live
954,A1089SKYYGN46O:3TOK3KHVJVP31NP8BZYV2CXAN2FO75,1854,127601.jpg,2,61,live
955,A1089SKYYGN46O:3TOK3KHVJVP31NP8BZYV2CXAN2FO75,2692,124843.jpg,3,62,live
956,A1089SKYYGN46O:3TOK3KHVJVP31NP8BZYV2CXAN2FO75,2024,028197.jpg,2,63,live
957,A1089SKYYGN46O:3TOK3KHVJVP31NP8BZYV2CXAN2FO75,2310,100684.jpg,2,64,live
958,A1089SKYYGN46O:3TOK3KHVJVP31NP8BZYV2CXAN2FO75,2198,086810.jpg,3,65,live
959,A1089SKYYGN46O:3TOK3KHVJVP31NP8BZYV2CXAN2FO75,1981,032084.jpg,2,66,live
960,A1089SKYYGN46O:3TOK3KHVJVP31NP8BZYV2CXAN2FO75,2482,054459.jpg,2,68,live
961,A1089SKYYGN46O:3TOK3KHVJVP31NP8BZYV2CXAN2FO75,3039,127601.jpg,3,69,live
962,A1089SKYYGN46O:3TOK3KHVJVP31NP8BZYV2CXAN2FO75,2239,087519.jpg,2,70,live
963,A1089SKYYGN46O:3TOK3KHVJVP31NP8BZYV2CXAN2FO75,2813,165401.jpg,1,71,live
964,A1089SKYYGN46O:3TOK3KHVJVP31NP8BZYV2CXAN2FO75,2710,144125.jpg,2,72,live
965,A1089SKYYGN46O:3TOK3KHVJVP31NP8BZYV2CXAN2FO75,1942,124843.jpg,2,73,live
966,A1089SKYYGN46O:3TOK3KHVJVP31NP8BZYV2CXAN2FO75,3926,053394.jpg,1,74,live
967,A1089SKYYGN46O:3TOK3KHVJVP31NP8BZYV2CXAN2FO75,2781,143051.jpg,2,75,live
968,A1089SKYYGN46O:3TOK3KHVJVP31NP8BZYV2CXAN2FO75,2269,038546.jpg,3,76,live
969,A1089SKYYGN46O:3TOK3KHVJVP31NP8BZYV2CXAN2FO75,2263,140421.jpg,2,77,live
970,A1089SKYYGN46O:3TOK3KHVJVP31NP8BZYV2CXAN2FO75,3553,129756.jpg,2,79,live
971,A1089SKYYGN46O:3TOK3KHVJVP31NP8BZYV2CXAN2FO75,1821,068350.jpg,3,80,live
972,A1089SKYYGN46O:3TOK3KHVJVP31NP8BZYV2CXAN2FO75,1918,012584.jpg,2,81,live
973,A1089SKYYGN46O:3TOK3KHVJVP31NP8BZYV2CXAN2FO75,1805,087519.jpg,1,82,live
974,A1089SKYYGN46O:3TOK3KHVJVP31NP8BZYV2CXAN2FO75,1734,031763.jpg,3,83,live
975,A1089SKYYGN46O:3TOK3KHVJVP31NP8BZYV2CXAN2FO75,2366,052537.jpg,2,84,live
976,A1089SKYYGN46O:3TOK3KHVJVP31NP8BZYV2CXAN2FO75,4191,032472.jpg,3,85,live
977,A1089SKYYGN46O:3TOK3KHVJVP31NP8BZYV2CXAN2FO75,2310,150552.jpg,2,86,live
978,A1089SKYYGN46O:3TOK3KHVJVP31NP8BZYV2CXAN2FO75,2262,023266.jpg,2,87,live
979,A1089SKYYGN46O:3TOK3KHVJVP31NP8BZYV2CXAN2FO75,2094,077071.jpg,3,88,live
980,A1089SKYYGN46O:3TOK3KHVJVP31NP8BZYV2CXAN2FO75,3197,024060.jpg,3,90,live
981,A1089SKYYGN46O:3TOK3KHVJVP31NP8BZYV2CXAN2FO75,2247,015405.jpg,2,91,live
982,A1089SKYYGN46O:3TOK3KHVJVP31NP8BZYV2CXAN2FO75,1973,025788.jpg,1,92,live
983,A1089SKYYGN46O:3TOK3KHVJVP31NP8BZYV2CXAN2FO75,1813,056648.jpg,2,93,live
984,A1089SKYYGN46O:3TOK3KHVJVP31NP8BZYV2CXAN2FO75,1782,174354.jpg,3,94,live
985,A1089SKYYGN46O:3TOK3KHVJVP31NP8BZYV2CXAN2FO75,1936,106414.jpg,2,95,live
986,A1089SKYYGN46O:3TOK3KHVJVP31NP8BZYV2CXAN2FO75,1484,173118.jpg,3,96,live
987,A1089SKYYGN46O:3TOK3KHVJVP31NP8BZYV2CXAN2FO75,1918,098615.jpg,2,97,live
988,A1089SKYYGN46O:3TOK3KHVJVP31NP8BZYV2CXAN2FO75,2830,091837.jpg,3,98,live
989,A1089SKYYGN46O:3TOK3KHVJVP31NP8BZYV2CXAN2FO75,2718,142336.jpg,2,99,live
990,A1089SKYYGN46O:3TOK3KHVJVP31NP8BZYV2CXAN2FO75,2936,078190.jpg,2,101,live
991,A1089SKYYGN46O:3TOK3KHVJVP31NP8BZYV2CXAN2FO75,1571,056106.jpg,3,102,live
992,A1089SKYYGN46O:3TOK3KHVJVP31NP8BZYV2CXAN2FO75,2646,176723.jpg,2,103,live
993,A1089SKYYGN46O:3TOK3KHVJVP31NP8BZYV2CXAN2FO75,2278,038546.jpg,3,104,live
994,A1089SKYYGN46O:3TOK3KHVJVP31NP8BZYV2CXAN2FO75,3197,076493.jpg,2,105,live
995,A1089SKYYGN46O:3TOK3KHVJVP31NP8BZYV2CXAN2FO75,1549,124569.jpg,3,106,live
996,A1089SKYYGN46O:3TOK3KHVJVP31NP8BZYV2CXAN2FO75,1919,076409.jpg,1,107,live
997,A1089SKYYGN46O:3TOK3KHVJVP31NP8BZYV2CXAN2FO75,2126,129756.jpg,2,108,live
998,A1089SKYYGN46O:3TOK3KHVJVP31NP8BZYV2CXAN2FO75,1534,077169.jpg,3,109,live
999,A1089SKYYGN46O:3TOK3KHVJVP31NP8BZYV2CXAN2FO75,2430,042306.jpg,2,110,live
1000,AOJOJXMFTB22L:3FTF2T8WLTPFKFM3HINPX212LUY9WA,3027,093378.jpg,7,2,live
1001,AOJOJXMFTB22L:3FTF2T8WLTPFKFM3HINPX212LUY9WA,2069,144125.jpg,8,3,live
1002,AOJOJXMFTB22L:3FTF2T8WLTPFKFM3HINPX212LUY9WA,2111,077518.jpg,8,4,live
1003,AOJOJXMFTB22L:3FTF2T8WLTPFKFM3HINPX212LUY9WA,3843,038546.jpg,8,5,live
1004,AOJOJXMFTB22L:3FTF2T8WLTPFKFM3HINPX212LUY9WA,6511,032084.jpg,3,6,live
1005,AOJOJXMFTB22L:3FTF2T8WLTPFKFM3HINPX212LUY9WA,1806,174354.jpg,5,7,live
1006,AOJOJXMFTB22L:3FTF2T8WLTPFKFM3HINPX212LUY9WA,2902,088677.jpg,6,8,live
1007,AOJOJXMFTB22L:3FTF2T8WLTPFKFM3HINPX212LUY9WA,1774,077010.jpg,4,9,live
1008,AOJOJXMFTB22L:3FTF2T8WLTPFKFM3HINPX212LUY9WA,1646,098615.jpg,3,10,live
1009,AOJOJXMFTB22L:3FTF2T8WLTPFKFM3HINPX212LUY9WA,2006,142336.jpg,5,11,live
1010,AOJOJXMFTB22L:3FTF2T8WLTPFKFM3HINPX212LUY9WA,3167,042306.jpg,7,13,live
1011,AOJOJXMFTB22L:3FTF2T8WLTPFKFM3HINPX212LUY9WA,2894,078190.jpg,4,14,live
1012,AOJOJXMFTB22L:3FTF2T8WLTPFKFM3HINPX212LUY9WA,1926,032472.jpg,5,15,live
1013,AOJOJXMFTB22L:3FTF2T8WLTPFKFM3HINPX212LUY9WA,2454,127601.jpg,6,16,live
1014,AOJOJXMFTB22L:3FTF2T8WLTPFKFM3HINPX212LUY9WA,1662,101907.jpg,5,17,live
1015,AOJOJXMFTB22L:3FTF2T8WLTPFKFM3HINPX212LUY9WA,2413,083782.jpg,4,18,live
1016,AOJOJXMFTB22L:3FTF2T8WLTPFKFM3HINPX212LUY9WA,1741,173118.jpg,5,19,live
1017,AOJOJXMFTB22L:3FTF2T8WLTPFKFM3HINPX212LUY9WA,1781,012584.jpg,6,20,live
1018,AOJOJXMFTB22L:3FTF2T8WLTPFKFM3HINPX212LUY9WA,2270,124843.jpg,7,21,live
1019,AOJOJXMFTB22L:3FTF2T8WLTPFKFM3HINPX212LUY9WA,2942,124569.jpg,5,22,live
1020,AOJOJXMFTB22L:3FTF2T8WLTPFKFM3HINPX212LUY9WA,2900,093378.jpg,8,24,live
1021,AOJOJXMFTB22L:3FTF2T8WLTPFKFM3HINPX212LUY9WA,2062,202552.jpg,7,25,live
1022,AOJOJXMFTB22L:3FTF2T8WLTPFKFM3HINPX212LUY9WA,3758,129756.jpg,4,26,live
1023,AOJOJXMFTB22L:3FTF2T8WLTPFKFM3HINPX212LUY9WA,3311,024060.jpg,7,27,live
1024,AOJOJXMFTB22L:3FTF2T8WLTPFKFM3HINPX212LUY9WA,2094,049463.jpg,8,28,live
1025,AOJOJXMFTB22L:3FTF2T8WLTPFKFM3HINPX212LUY9WA,1830,140421.jpg,6,29,live
1026,AOJOJXMFTB22L:3FTF2T8WLTPFKFM3HINPX212LUY9WA,1773,106149.jpg,5,30,live
1027,AOJOJXMFTB22L:3FTF2T8WLTPFKFM3HINPX212LUY9WA,1831,186059.jpg,6,31,live
1028,AOJOJXMFTB22L:3FTF2T8WLTPFKFM3HINPX212LUY9WA,1936,143051.jpg,7,32,live
1029,AOJOJXMFTB22L:3FTF2T8WLTPFKFM3HINPX212LUY9WA,1789,066051.jpg,5,33,live
1030,AOJOJXMFTB22L:3FTF2T8WLTPFKFM3HINPX212LUY9WA,2230,077169.jpg,7,35,live
1031,AOJOJXMFTB22L:3FTF2T8WLTPFKFM3HINPX212LUY9WA,2334,056106.jpg,8,36,live
1032,AOJOJXMFTB22L:3FTF2T8WLTPFKFM3HINPX212LUY9WA,3558,038546.jpg,7,37,live
1033,AOJOJXMFTB22L:3FTF2T8WLTPFKFM3HINPX212LUY9WA,2230,076493.jpg,4,38,live
1034,AOJOJXMFTB22L:3FTF2T8WLTPFKFM3HINPX212LUY9WA,2229,042306.jpg,5,39,live
1035,AOJOJXMFTB22L:3FTF2T8WLTPFKFM3HINPX212LUY9WA,1783,087519.jpg,4,40,live
1036,AOJOJXMFTB22L:3FTF2T8WLTPFKFM3HINPX212LUY9WA,2325,054459.jpg,3,41,live
1037,AOJOJXMFTB22L:3FTF2T8WLTPFKFM3HINPX212LUY9WA,2631,176723.jpg,2,42,live
1038,AOJOJXMFTB22L:3FTF2T8WLTPFKFM3HINPX212LUY9WA,2173,053041.jpg,6,43,live
1039,AOJOJXMFTB22L:3FTF2T8WLTPFKFM3HINPX212LUY9WA,1981,077518.jpg,7,44,live
1040,AOJOJXMFTB22L:3FTF2T8WLTPFKFM3HINPX212LUY9WA,3381,078190.jpg,6,46,live
1041,AOJOJXMFTB22L:3FTF2T8WLTPFKFM3HINPX212LUY9WA,1822,143051.jpg,7,47,live
1042,AOJOJXMFTB22L:3FTF2T8WLTPFKFM3HINPX212LUY9WA,2118,015405.jpg,8,48,live
1043,AOJOJXMFTB22L:3FTF2T8WLTPFKFM3HINPX212LUY9WA,2182,076409.jpg,7,49,live
1044,AOJOJXMFTB22L:3FTF2T8WLTPFKFM3HINPX212LUY9WA,1614,023266.jpg,6,50,live
1045,AOJOJXMFTB22L:3FTF2T8WLTPFKFM3HINPX212LUY9WA,1686,086810.jpg,8,51,live
1046,AOJOJXMFTB22L:3FTF2T8WLTPFKFM3HINPX212LUY9WA,2406,091837.jpg,5,52,live
1047,AOJOJXMFTB22L:3FTF2T8WLTPFKFM3HINPX212LUY9WA,1902,054459.jpg,6,53,live
1048,AOJOJXMFTB22L:3FTF2T8WLTPFKFM3HINPX212LUY9WA,1830,143767.jpg,7,54,live
1049,AOJOJXMFTB22L:3FTF2T8WLTPFKFM3HINPX212LUY9WA,1470,077010.jpg,5,55,live
1050,AOJOJXMFTB22L:3FTF2T8WLTPFKFM3HINPX212LUY9WA,2233,068350.jpg,6,57,live
1051,AOJOJXMFTB22L:3FTF2T8WLTPFKFM3HINPX212LUY9WA,1726,117797.jpg,5,58,live
1052,AOJOJXMFTB22L:3FTF2T8WLTPFKFM3HINPX212LUY9WA,2854,144125.jpg,4,59,live
1053,AOJOJXMFTB22L:3FTF2T8WLTPFKFM3HINPX212LUY9WA,1406,020087.jpg,6,60,live
1054,AOJOJXMFTB22L:3FTF2T8WLTPFKFM3HINPX212LUY9WA,1806,154870.jpg,5,61,live
1055,AOJOJXMFTB22L:3FTF2T8WLTPFKFM3HINPX212LUY9WA,1511,065232.jpg,4,62,live
1056,AOJOJXMFTB22L:3FTF2T8WLTPFKFM3HINPX212LUY9WA,1589,056648.jpg,3,63,live
1057,AOJOJXMFTB22L:3FTF2T8WLTPFKFM3HINPX212LUY9WA,1903,077071.jpg,4,64,live
1058,AOJOJXMFTB22L:3FTF2T8WLTPFKFM3HINPX212LUY9WA,1606,142336.jpg,5,65,live
1059,AOJOJXMFTB22L:3FTF2T8WLTPFKFM3HINPX212LUY9WA,1598,024231.jpg,6,66,live
1060,AOJOJXMFTB22L:3FTF2T8WLTPFKFM3HINPX212LUY9WA,2404,064273.jpg,7,68,live
1061,AOJOJXMFTB22L:3FTF2T8WLTPFKFM3HINPX212LUY9WA,1580,127601.jpg,5,69,live
1062,AOJOJXMFTB22L:3FTF2T8WLTPFKFM3HINPX212LUY9WA,1550,176723.jpg,4,70,live
1063,AOJOJXMFTB22L:3FTF2T8WLTPFKFM3HINPX212LUY9WA,1478,035472.jpg,5,71,live
1064,AOJOJXMFTB22L:3FTF2T8WLTPFKFM3HINPX212LUY9WA,1654,087519.jpg,6,72,live
1065,AOJOJXMFTB22L:3FTF2T8WLTPFKFM3HINPX212LUY9WA,2566,053394.jpg,5,73,live
1066,AOJOJXMFTB22L:3FTF2T8WLTPFKFM3HINPX212LUY9WA,1502,025788.jpg,4,74,live
1067,AOJOJXMFTB22L:3FTF2T8WLTPFKFM3HINPX212LUY9WA,1550,113016.jpg,5,75,live
1068,AOJOJXMFTB22L:3FTF2T8WLTPFKFM3HINPX212LUY9WA,1894,129756.jpg,6,76,live
1069,AOJOJXMFTB22L:3FTF2T8WLTPFKFM3HINPX212LUY9WA,2176,052537.jpg,5,77,live
1070,AOJOJXMFTB22L:3FTF2T8WLTPFKFM3HINPX212LUY9WA,2065,084323.jpg,6,79,live
1071,AOJOJXMFTB22L:3FTF2T8WLTPFKFM3HINPX212LUY9WA,1958,100006.jpg,4,80,live
1072,AOJOJXMFTB22L:3FTF2T8WLTPFKFM3HINPX212LUY9WA,1501,049463.jpg,5,81,live
1073,AOJOJXMFTB22L:3FTF2T8WLTPFKFM3HINPX212LUY9WA,1847,150552.jpg,6,82,live
1074,AOJOJXMFTB22L:3FTF2T8WLTPFKFM3HINPX212LUY9WA,1622,081054.jpg,4,83,live
1075,AOJOJXMFTB22L:3FTF2T8WLTPFKFM3HINPX212LUY9WA,1678,016460.jpg,5,84,live
1076,AOJOJXMFTB22L:3FTF2T8WLTPFKFM3HINPX212LUY9WA,1630,165401.jpg,4,85,live
1077,AOJOJXMFTB22L:3FTF2T8WLTPFKFM3HINPX212LUY9WA,3158,034432.jpg,5,86,live
1078,AOJOJXMFTB22L:3FTF2T8WLTPFKFM3HINPX212LUY9WA,2189,153051.jpg,5,87,live
1079,AOJOJXMFTB22L:3FTF2T8WLTPFKFM3HINPX212LUY9WA,1502,124569.jpg,4,88,live
1080,AOJOJXMFTB22L:3FTF2T8WLTPFKFM3HINPX212LUY9WA,2404,028197.jpg,4,90,live
1081,AOJOJXMFTB22L:3FTF2T8WLTPFKFM3HINPX212LUY9WA,1766,054938.jpg,5,91,live
1082,AOJOJXMFTB22L:3FTF2T8WLTPFKFM3HINPX212LUY9WA,2775,151719.jpg,6,92,live
1083,AOJOJXMFTB22L:3FTF2T8WLTPFKFM3HINPX212LUY9WA,1878,088398.jpg,5,93,live
1084,AOJOJXMFTB22L:3FTF2T8WLTPFKFM3HINPX212LUY9WA,1791,113079.jpg,4,94,live
1085,AOJOJXMFTB22L:3FTF2T8WLTPFKFM3HINPX212LUY9WA,1877,091837.jpg,5,95,live
1086,AOJOJXMFTB22L:3FTF2T8WLTPFKFM3HINPX212LUY9WA,1806,052537.jpg,6,96,live
1087,AOJOJXMFTB22L:3FTF2T8WLTPFKFM3HINPX212LUY9WA,1422,086142.jpg,5,97,live
1088,AOJOJXMFTB22L:3FTF2T8WLTPFKFM3HINPX212LUY9WA,1543,043872.jpg,4,98,live
1089,AOJOJXMFTB22L:3FTF2T8WLTPFKFM3HINPX212LUY9WA,1374,124843.jpg,5,99,live
1090,AOJOJXMFTB22L:3FTF2T8WLTPFKFM3HINPX212LUY9WA,4364,100978.jpg,6,101,live
1091,AOJOJXMFTB22L:3FTF2T8WLTPFKFM3HINPX212LUY9WA,1926,015405.jpg,5,102,live
1092,AOJOJXMFTB22L:3FTF2T8WLTPFKFM3HINPX212LUY9WA,2127,031763.jpg,4,103,live
1093,AOJOJXMFTB22L:3FTF2T8WLTPFKFM3HINPX212LUY9WA,5878,110369.jpg,4,104,live
1094,AOJOJXMFTB22L:3FTF2T8WLTPFKFM3HINPX212LUY9WA,2150,050845.jpg,5,105,live
1095,AOJOJXMFTB22L:3FTF2T8WLTPFKFM3HINPX212LUY9WA,1790,071197.jpg,6,106,live
1096,AOJOJXMFTB22L:3FTF2T8WLTPFKFM3HINPX212LUY9WA,2350,106414.jpg,4,107,live
1097,AOJOJXMFTB22L:3FTF2T8WLTPFKFM3HINPX212LUY9WA,1894,142657.jpg,5,108,live
1098,AOJOJXMFTB22L:3FTF2T8WLTPFKFM3HINPX212LUY9WA,1814,100684.jpg,6,109,live
1099,AOJOJXMFTB22L:3FTF2T8WLTPFKFM3HINPX212LUY9WA,2838,185343.jpg,5,110,live
1100,A25H8NTVN9PI9B:3M0NZ3JDP350DNPWPFUFKQQIG0R5ZD,2208,185343.jpg,8,2,live
1101,A25H8NTVN9PI9B:3M0NZ3JDP350DNPWPFUFKQQIG0R5ZD,1641,124569.jpg,7,3,live
1102,A25H8NTVN9PI9B:3M0NZ3JDP350DNPWPFUFKQQIG0R5ZD,1460,065232.jpg,6,4,live
1103,A25H8NTVN9PI9B:3M0NZ3JDP350DNPWPFUFKQQIG0R5ZD,1555,053041.jpg,8,5,live
1104,A25H8NTVN9PI9B:3M0NZ3JDP350DNPWPFUFKQQIG0R5ZD,1555,143767.jpg,7,6,live
1105,A25H8NTVN9PI9B:3M0NZ3JDP350DNPWPFUFKQQIG0R5ZD,1971,086810.jpg,6,7,live
1106,A25H8NTVN9PI9B:3M0NZ3JDP350DNPWPFUFKQQIG0R5ZD,1908,174354.jpg,9,8,live
1107,A25H8NTVN9PI9B:3M0NZ3JDP350DNPWPFUFKQQIG0R5ZD,1948,093378.jpg,8,9,live
1108,A25H8NTVN9PI9B:3M0NZ3JDP350DNPWPFUFKQQIG0R5ZD,1564,129756.jpg,7,10,live
1109,A25H8NTVN9PI9B:3M0NZ3JDP350DNPWPFUFKQQIG0R5ZD,2637,081054.jpg,8,11,live
1110,A25H8NTVN9PI9B:3M0NZ3JDP350DNPWPFUFKQQIG0R5ZD,2002,015405.jpg,7,13,live
1111,A25H8NTVN9PI9B:3M0NZ3JDP350DNPWPFUFKQQIG0R5ZD,1803,127601.jpg,8,14,live
1112,A25H8NTVN9PI9B:3M0NZ3JDP350DNPWPFUFKQQIG0R5ZD,2001,153051.jpg,6,15,live
1113,A25H8NTVN9PI9B:3M0NZ3JDP350DNPWPFUFKQQIG0R5ZD,1923,025788.jpg,9,16,live
1114,A25H8NTVN9PI9B:3M0NZ3JDP350DNPWPFUFKQQIG0R5ZD,1643,124843.jpg,7,17,live
1115,A25H8NTVN9PI9B:3M0NZ3JDP350DNPWPFUFKQQIG0R5ZD,1346,086142.jpg,6,18,live
1116,A25H8NTVN9PI9B:3M0NZ3JDP350DNPWPFUFKQQIG0R5ZD,3526,050845.jpg,8,19,live
1117,A25H8NTVN9PI9B:3M0NZ3JDP350DNPWPFUFKQQIG0R5ZD,2201,091837.jpg,7,20,live
1118,A25H8NTVN9PI9B:3M0NZ3JDP350DNPWPFUFKQQIG0R5ZD,6811,077169.jpg,9,21,live
1119,A25H8NTVN9PI9B:3M0NZ3JDP350DNPWPFUFKQQIG0R5ZD,2234,176723.jpg,7,22,live
1120,A25H8NTVN9PI9B:3M0NZ3JDP350DNPWPFUFKQQIG0R5ZD,3339,088398.jpg,6,24,live
1121,A25H8NTVN9PI9B:3M0NZ3JDP350DNPWPFUFKQQIG0R5ZD,1533,106414.jpg,7,25,live
1122,A25H8NTVN9PI9B:3M0NZ3JDP350DNPWPFUFKQQIG0R5ZD,1628,106149.jpg,8,26,live
1123,A25H8NTVN9PI9B:3M0NZ3JDP350DNPWPFUFKQQIG0R5ZD,1356,144125.jpg,6,27,live
1124,A25H8NTVN9PI9B:3M0NZ3JDP350DNPWPFUFKQQIG0R5ZD,1728,078190.jpg,9,28,live
1125,A25H8NTVN9PI9B:3M0NZ3JDP350DNPWPFUFKQQIG0R5ZD,1322,076409.jpg,8,29,live
1126,A25H8NTVN9PI9B:3M0NZ3JDP350DNPWPFUFKQQIG0R5ZD,1380,052537.jpg,5,30,live
1127,A25H8NTVN9PI9B:3M0NZ3JDP350DNPWPFUFKQQIG0R5ZD,1451,049463.jpg,6,31,live
1128,A25H8NTVN9PI9B:3M0NZ3JDP350DNPWPFUFKQQIG0R5ZD,1667,124569.jpg,7,32,live
1129,A25H8NTVN9PI9B:3M0NZ3JDP350DNPWPFUFKQQIG0R5ZD,1691,084323.jpg,8,33,live
1130,A25H8NTVN9PI9B:3M0NZ3JDP350DNPWPFUFKQQIG0R5ZD,2512,093378.jpg,8,35,live
1131,A25H8NTVN9PI9B:3M0NZ3JDP350DNPWPFUFKQQIG0R5ZD,1421,186059.jpg,6,36,live
1132,A25H8NTVN9PI9B:3M0NZ3JDP350DNPWPFUFKQQIG0R5ZD,3258,032472.jpg,7,37,live
1133,A25H8NTVN9PI9B:3M0NZ3JDP350DNPWPFUFKQQIG0R5ZD,1999,077518.jpg,9,38,live
1134,A25H8NTVN9PI9B:3M0NZ3JDP350DNPWPFUFKQQIG0R5ZD,2396,140421.jpg,5,39,live
1135,A25H8NTVN9PI9B:3M0NZ3JDP350DNPWPFUFKQQIG0R5ZD,1957,038546.jpg,7,40,live
1136,A25H8NTVN9PI9B:3M0NZ3JDP350DNPWPFUFKQQIG0R5ZD,1448,113079.jpg,6,41,live
1137,A25H8NTVN9PI9B:3M0NZ3JDP350DNPWPFUFKQQIG0R5ZD,1939,054459.jpg,8,42,live
1138,A25H8NTVN9PI9B:3M0NZ3JDP350DNPWPFUFKQQIG0R5ZD,2044,042306.jpg,9,43,live
1139,A25H8NTVN9PI9B:3M0NZ3JDP350DNPWPFUFKQQIG0R5ZD,4828,042306.jpg,6,44,live
1140,A25H8NTVN9PI9B:3M0NZ3JDP350DNPWPFUFKQQIG0R5ZD,2165,154870.jpg,7,46,live
1141,A25H8NTVN9PI9B:3M0NZ3JDP350DNPWPFUFKQQIG0R5ZD,2451,056106.jpg,9,47,live
1142,A25H8NTVN9PI9B:3M0NZ3JDP350DNPWPFUFKQQIG0R5ZD,1515,032084.jpg,7,48,live
1143,A25H8NTVN9PI9B:3M0NZ3JDP350DNPWPFUFKQQIG0R5ZD,2371,100006.jpg,6,49,live
1144,A25H8NTVN9PI9B:3M0NZ3JDP350DNPWPFUFKQQIG0R5ZD,2380,117797.jpg,8,50,live
1145,A25H8NTVN9PI9B:3M0NZ3JDP350DNPWPFUFKQQIG0R5ZD,3548,165401.jpg,6,51,live
1146,A25H8NTVN9PI9B:3M0NZ3JDP350DNPWPFUFKQQIG0R5ZD,3394,151719.jpg,7,52,live
1147,A25H8NTVN9PI9B:3M0NZ3JDP350DNPWPFUFKQQIG0R5ZD,2263,129756.jpg,9,53,live
1148,A25H8NTVN9PI9B:3M0NZ3JDP350DNPWPFUFKQQIG0R5ZD,2506,031763.jpg,5,54,live
1149,A25H8NTVN9PI9B:3M0NZ3JDP350DNPWPFUFKQQIG0R5ZD,1643,142336.jpg,7,55,live
1150,A25H8NTVN9PI9B:3M0NZ3JDP350DNPWPFUFKQQIG0R5ZD,20487,100978.jpg,7,57,live
1151,A25H8NTVN9PI9B:3M0NZ3JDP350DNPWPFUFKQQIG0R5ZD,10551,127601.jpg,8,58,live
1152,A25H8NTVN9PI9B:3M0NZ3JDP350DNPWPFUFKQQIG0R5ZD,1802,015405.jpg,6,59,live
1153,A25H8NTVN9PI9B:3M0NZ3JDP350DNPWPFUFKQQIG0R5ZD,1678,049463.jpg,7,60,live
1154,A25H8NTVN9PI9B:3M0NZ3JDP350DNPWPFUFKQQIG0R5ZD,2038,038546.jpg,9,61,live
1155,A25H8NTVN9PI9B:3M0NZ3JDP350DNPWPFUFKQQIG0R5ZD,3056,077010.jpg,5,62,live
1156,A25H8NTVN9PI9B:3M0NZ3JDP350DNPWPFUFKQQIG0R5ZD,1864,142336.jpg,7,63,live
1157,A25H8NTVN9PI9B:3M0NZ3JDP350DNPWPFUFKQQIG0R5ZD,1509,068350.jpg,6,64,live
1158,A25H8NTVN9PI9B:3M0NZ3JDP350DNPWPFUFKQQIG0R5ZD,1846,091837.jpg,9,65,live
1159,A25H8NTVN9PI9B:3M0NZ3JDP350DNPWPFUFKQQIG0R5ZD,1622,054938.jpg,7,66,live
1160,A25H8NTVN9PI9B:3M0NZ3JDP350DNPWPFUFKQQIG0R5ZD,1941,012584.jpg,8,68,live
1161,A25H8NTVN9PI9B:3M0NZ3JDP350DNPWPFUFKQQIG0R5ZD,2924,056648.jpg,6,69,live
1162,A25H8NTVN9PI9B:3M0NZ3JDP350DNPWPFUFKQQIG0R5ZD,1929,078190.jpg,7,70,live
1163,A25H8NTVN9PI9B:3M0NZ3JDP350DNPWPFUFKQQIG0R5ZD,1869,053394.jpg,6,71,live
1164,A25H8NTVN9PI9B:3M0NZ3JDP350DNPWPFUFKQQIG0R5ZD,2920,077071.jpg,9,72,live
1165,A25H8NTVN9PI9B:3M0NZ3JDP350DNPWPFUFKQQIG0R5ZD,2818,076493.jpg,5,73,live
1166,A25H8NTVN9PI9B:3M0NZ3JDP350DNPWPFUFKQQIG0R5ZD,1916,124843.jpg,7,74,live
1167,A25H8NTVN9PI9B:3M0NZ3JDP350DNPWPFUFKQQIG0R5ZD,1871,150552.jpg,6,75,live
1168,A25H8NTVN9PI9B:3M0NZ3JDP350DNPWPFUFKQQIG0R5ZD,2698,143051.jpg,8,76,live
1169,A25H8NTVN9PI9B:3M0NZ3JDP350DNPWPFUFKQQIG0R5ZD,1854,016460.jpg,7,77,live
1170,A25H8NTVN9PI9B:3M0NZ3JDP350DNPWPFUFKQQIG0R5ZD,2500,054459.jpg,6,79,live
1171,A25H8NTVN9PI9B:3M0NZ3JDP350DNPWPFUFKQQIG0R5ZD,1414,142657.jpg,5,80,live
1172,A25H8NTVN9PI9B:3M0NZ3JDP350DNPWPFUFKQQIG0R5ZD,1816,023266.jpg,7,81,live
1173,A25H8NTVN9PI9B:3M0NZ3JDP350DNPWPFUFKQQIG0R5ZD,1451,173118.jpg,8,82,live
1174,A25H8NTVN9PI9B:3M0NZ3JDP350DNPWPFUFKQQIG0R5ZD,1694,066051.jpg,7,83,live
1175,A25H8NTVN9PI9B:3M0NZ3JDP350DNPWPFUFKQQIG0R5ZD,2422,113016.jpg,6,84,live
1176,A25H8NTVN9PI9B:3M0NZ3JDP350DNPWPFUFKQQIG0R5ZD,1958,035472.jpg,9,85,live
1177,A25H8NTVN9PI9B:3M0NZ3JDP350DNPWPFUFKQQIG0R5ZD,1347,043872.jpg,6,86,live
1178,A25H8NTVN9PI9B:3M0NZ3JDP350DNPWPFUFKQQIG0R5ZD,1582,071197.jpg,7,87,live
1179,A25H8NTVN9PI9B:3M0NZ3JDP350DNPWPFUFKQQIG0R5ZD,2954,101907.jpg,5,88,live
1180,A25H8NTVN9PI9B:3M0NZ3JDP350DNPWPFUFKQQIG0R5ZD,2667,087519.jpg,7,90,live
1181,A25H8NTVN9PI9B:3M0NZ3JDP350DNPWPFUFKQQIG0R5ZD,2022,020087.jpg,6,91,live
1182,A25H8NTVN9PI9B:3M0NZ3JDP350DNPWPFUFKQQIG0R5ZD,1617,098615.jpg,8,92,live
1183,A25H8NTVN9PI9B:3M0NZ3JDP350DNPWPFUFKQQIG0R5ZD,1586,087519.jpg,6,93,live
1184,A25H8NTVN9PI9B:3M0NZ3JDP350DNPWPFUFKQQIG0R5ZD,2005,052537.jpg,7,94,live
1185,A25H8NTVN9PI9B:3M0NZ3JDP350DNPWPFUFKQQIG0R5ZD,1965,144125.jpg,9,95,live
1186,A25H8NTVN9PI9B:3M0NZ3JDP350DNPWPFUFKQQIG0R5ZD,1890,100684.jpg,6,96,live
1187,A25H8NTVN9PI9B:3M0NZ3JDP350DNPWPFUFKQQIG0R5ZD,2427,028197.jpg,7,97,live
1188,A25H8NTVN9PI9B:3M0NZ3JDP350DNPWPFUFKQQIG0R5ZD,1771,088677.jpg,6,98,live
1189,A25H8NTVN9PI9B:3M0NZ3JDP350DNPWPFUFKQQIG0R5ZD,2502,024231.jpg,8,99,live
1190,A25H8NTVN9PI9B:3M0NZ3JDP350DNPWPFUFKQQIG0R5ZD,1498,083782.jpg,6,101,live
1191,A25H8NTVN9PI9B:3M0NZ3JDP350DNPWPFUFKQQIG0R5ZD,1678,024060.jpg,7,102,live
1192,A25H8NTVN9PI9B:3M0NZ3JDP350DNPWPFUFKQQIG0R5ZD,2046,077010.jpg,6,103,live
1193,A25H8NTVN9PI9B:3M0NZ3JDP350DNPWPFUFKQQIG0R5ZD,1942,176723.jpg,8,104,live
1194,A25H8NTVN9PI9B:3M0NZ3JDP350DNPWPFUFKQQIG0R5ZD,1662,143051.jpg,5,105,live
1195,A25H8NTVN9PI9B:3M0NZ3JDP350DNPWPFUFKQQIG0R5ZD,2157,110369.jpg,7,106,live
1196,A25H8NTVN9PI9B:3M0NZ3JDP350DNPWPFUFKQQIG0R5ZD,1823,064273.jpg,9,107,live
1197,A25H8NTVN9PI9B:3M0NZ3JDP350DNPWPFUFKQQIG0R5ZD,1589,202552.jpg,7,108,live
1198,A25H8NTVN9PI9B:3M0NZ3JDP350DNPWPFUFKQQIG0R5ZD,1526,034432.jpg,6,109,live
1199,A25H8NTVN9PI9B:3M0NZ3JDP350DNPWPFUFKQQIG0R5ZD,1557,077518.jpg,8,110,live
1200,A1ZOLH6MN0ZH9R:3MYYFCXHJ5EIQNQRLINGUR4Y5E3G4V,3051,091837.jpg,7,2,live
1201,A1ZOLH6MN0ZH9R:3MYYFCXHJ5EIQNQRLINGUR4Y5E3G4V,2010,165401.jpg,6,3,live
1202,A1ZOLH6MN0ZH9R:3MYYFCXHJ5EIQNQRLINGUR4Y5E3G4V,2014,151719.jpg,7,4,live
1203,A1ZOLH6MN0ZH9R:3MYYFCXHJ5EIQNQRLINGUR4Y5E3G4V,8271,098615.jpg,6,5,live
1204,A1ZOLH6MN0ZH9R:3MYYFCXHJ5EIQNQRLINGUR4Y5E3G4V,1746,087519.jpg,7,6,live
1205,A1ZOLH6MN0ZH9R:3MYYFCXHJ5EIQNQRLINGUR4Y5E3G4V,1694,052537.jpg,6,7,live
1206,A1ZOLH6MN0ZH9R:3MYYFCXHJ5EIQNQRLINGUR4Y5E3G4V,1641,031763.jpg,7,8,live
1207,A1ZOLH6MN0ZH9R:3MYYFCXHJ5EIQNQRLINGUR4Y5E3G4V,1830,038546.jpg,5,9,live
1208,A1ZOLH6MN0ZH9R:3MYYFCXHJ5EIQNQRLINGUR4Y5E3G4V,2317,100006.jpg,7,10,live
1209,A1ZOLH6MN0ZH9R:3MYYFCXHJ5EIQNQRLINGUR4Y5E3G4V,4099,020087.jpg,5,11,live
1210,A1ZOLH6MN0ZH9R:3MYYFCXHJ5EIQNQRLINGUR4Y5E3G4V,2465,068350.jpg,8,13,live
1211,A1ZOLH6MN0ZH9R:3MYYFCXHJ5EIQNQRLINGUR4Y5E3G4V,2422,028197.jpg,5,14,live
1212,A1ZOLH6MN0ZH9R:3MYYFCXHJ5EIQNQRLINGUR4Y5E3G4V,2645,084323.jpg,6,15,live
1213,A1ZOLH6MN0ZH9R:3MYYFCXHJ5EIQNQRLINGUR4Y5E3G4V,4264,093378.jpg,4,16,live
1214,A1ZOLH6MN0ZH9R:3MYYFCXHJ5EIQNQRLINGUR4Y5E3G4V,3870,124843.jpg,5,17,live
1215,A1ZOLH6MN0ZH9R:3MYYFCXHJ5EIQNQRLINGUR4Y5E3G4V,2480,176723.jpg,5,18,live
1216,A1ZOLH6MN0ZH9R:3MYYFCXHJ5EIQNQRLINGUR4Y5E3G4V,2541,093378.jpg,4,19,live
1217,A1ZOLH6MN0ZH9R:3MYYFCXHJ5EIQNQRLINGUR4Y5E3G4V,2965,086810.jpg,8,20,live
1218,A1ZOLH6MN0ZH9R:3MYYFCXHJ5EIQNQRLINGUR4Y5E3G4V,2551,015405.jpg,6,21,live
1219,A1ZOLH6MN0ZH9R:3MYYFCXHJ5EIQNQRLINGUR4Y5E3G4V,7558,110369.jpg,6,22,live
1220,A1ZOLH6MN0ZH9R:3MYYFCXHJ5EIQNQRLINGUR4Y5E3G4V,3126,071197.jpg,6,24,live
1221,A1ZOLH6MN0ZH9R:3MYYFCXHJ5EIQNQRLINGUR4Y5E3G4V,3139,113079.jpg,6,25,live
1222,A1ZOLH6MN0ZH9R:3MYYFCXHJ5EIQNQRLINGUR4Y5E3G4V,2766,032472.jpg,6,26,live
1223,A1ZOLH6MN0ZH9R:3MYYFCXHJ5EIQNQRLINGUR4Y5E3G4V,2687,078190.jpg,7,27,live
1224,A1ZOLH6MN0ZH9R:3MYYFCXHJ5EIQNQRLINGUR4Y5E3G4V,3597,054938.jpg,7,28,live
1225,A1ZOLH6MN0ZH9R:3MYYFCXHJ5EIQNQRLINGUR4Y5E3G4V,2439,124843.jpg,7,29,live
1226,A1ZOLH6MN0ZH9R:3MYYFCXHJ5EIQNQRLINGUR4Y5E3G4V,2861,176723.jpg,6,30,live
1227,A1ZOLH6MN0ZH9R:3MYYFCXHJ5EIQNQRLINGUR4Y5E3G4V,4182,077010.jpg,8,31,live
1228,A1ZOLH6MN0ZH9R:3MYYFCXHJ5EIQNQRLINGUR4Y5E3G4V,3102,056648.jpg,7,32,live
1229,A1ZOLH6MN0ZH9R:3MYYFCXHJ5EIQNQRLINGUR4Y5E3G4V,2021,124569.jpg,6,33,live
1230,A1ZOLH6MN0ZH9R:3MYYFCXHJ5EIQNQRLINGUR4Y5E3G4V,2507,023266.jpg,7,35,live
1231,A1ZOLH6MN0ZH9R:3MYYFCXHJ5EIQNQRLINGUR4Y5E3G4V,2101,077518.jpg,6,36,live
1232,A1ZOLH6MN0ZH9R:3MYYFCXHJ5EIQNQRLINGUR4Y5E3G4V,6519,054459.jpg,7,37,live
1233,A1ZOLH6MN0ZH9R:3MYYFCXHJ5EIQNQRLINGUR4Y5E3G4V,3231,086142.jpg,7,38,live
1234,A1ZOLH6MN0ZH9R:3MYYFCXHJ5EIQNQRLINGUR4Y5E3G4V,5245,043872.jpg,8,39,live
1235,A1ZOLH6MN0ZH9R:3MYYFCXHJ5EIQNQRLINGUR4Y5E3G4V,3764,083782.jpg,7,40,live
1236,A1ZOLH6MN0ZH9R:3MYYFCXHJ5EIQNQRLINGUR4Y5E3G4V,3488,042306.jpg,8,41,live
1237,A1ZOLH6MN0ZH9R:3MYYFCXHJ5EIQNQRLINGUR4Y5E3G4V,3434,056106.jpg,7,42,live
1238,A1ZOLH6MN0ZH9R:3MYYFCXHJ5EIQNQRLINGUR4Y5E3G4V,5727,127601.jpg,6,43,live
1239,A1ZOLH6MN0ZH9R:3MYYFCXHJ5EIQNQRLINGUR4Y5E3G4V,4017,150552.jpg,6,44,live
1240,A1ZOLH6MN0ZH9R:3MYYFCXHJ5EIQNQRLINGUR4Y5E3G4V,4711,117797.jpg,7,46,live
1241,A1ZOLH6MN0ZH9R:3MYYFCXHJ5EIQNQRLINGUR4Y5E3G4V,3029,173118.jpg,8,47,live
1242,A1ZOLH6MN0ZH9R:3MYYFCXHJ5EIQNQRLINGUR4Y5E3G4V,4765,113016.jpg,7,48,live
1243,A1ZOLH6MN0ZH9R:3MYYFCXHJ5EIQNQRLINGUR4Y5E3G4V,1894,077010.jpg,6,49,live
1244,A1ZOLH6MN0ZH9R:3MYYFCXHJ5EIQNQRLINGUR4Y5E3G4V,1952,185343.jpg,7,50,live
1245,A1ZOLH6MN0ZH9R:3MYYFCXHJ5EIQNQRLINGUR4Y5E3G4V,2098,154870.jpg,8,51,live
1246,A1ZOLH6MN0ZH9R:3MYYFCXHJ5EIQNQRLINGUR4Y5E3G4V,1565,034432.jpg,6,52,live
1247,A1ZOLH6MN0ZH9R:3MYYFCXHJ5EIQNQRLINGUR4Y5E3G4V,1493,144125.jpg,7,53,live
1248,A1ZOLH6MN0ZH9R:3MYYFCXHJ5EIQNQRLINGUR4Y5E3G4V,10879,038546.jpg,6,54,live
1249,A1ZOLH6MN0ZH9R:3MYYFCXHJ5EIQNQRLINGUR4Y5E3G4V,2550,091837.jpg,7,55,live
1250,A1ZOLH6MN0ZH9R:3MYYFCXHJ5EIQNQRLINGUR4Y5E3G4V,2708,065232.jpg,6,57,live
1251,A1ZOLH6MN0ZH9R:3MYYFCXHJ5EIQNQRLINGUR4Y5E3G4V,3054,174354.jpg,6,58,live
1252,A1ZOLH6MN0ZH9R:3MYYFCXHJ5EIQNQRLINGUR4Y5E3G4V,2043,143767.jpg,7,59,live
1253,A1ZOLH6MN0ZH9R:3MYYFCXHJ5EIQNQRLINGUR4Y5E3G4V,2735,101907.jpg,8,60,live
1254,A1ZOLH6MN0ZH9R:3MYYFCXHJ5EIQNQRLINGUR4Y5E3G4V,3822,142336.jpg,6,61,live
1255,A1ZOLH6MN0ZH9R:3MYYFCXHJ5EIQNQRLINGUR4Y5E3G4V,2252,054459.jpg,6,62,live
1256,A1ZOLH6MN0ZH9R:3MYYFCXHJ5EIQNQRLINGUR4Y5E3G4V,5224,186059.jpg,8,63,live
1257,A1ZOLH6MN0ZH9R:3MYYFCXHJ5EIQNQRLINGUR4Y5E3G4V,2321,142336.jpg,7,64,live
1258,A1ZOLH6MN0ZH9R:3MYYFCXHJ5EIQNQRLINGUR4Y5E3G4V,2729,088677.jpg,6,65,live
1259,A1ZOLH6MN0ZH9R:3MYYFCXHJ5EIQNQRLINGUR4Y5E3G4V,2648,081054.jpg,8,66,live
1260,A1ZOLH6MN0ZH9R:3MYYFCXHJ5EIQNQRLINGUR4Y5E3G4V,4965,052537.jpg,8,68,live
1261,A1ZOLH6MN0ZH9R:3MYYFCXHJ5EIQNQRLINGUR4Y5E3G4V,1754,078190.jpg,6,69,live
1262,A1ZOLH6MN0ZH9R:3MYYFCXHJ5EIQNQRLINGUR4Y5E3G4V,1879,100684.jpg,7,70,live
1263,A1ZOLH6MN0ZH9R:3MYYFCXHJ5EIQNQRLINGUR4Y5E3G4V,1740,077169.jpg,6,71,live
1264,A1ZOLH6MN0ZH9R:3MYYFCXHJ5EIQNQRLINGUR4Y5E3G4V,1652,087519.jpg,7,72,live
1265,A1ZOLH6MN0ZH9R:3MYYFCXHJ5EIQNQRLINGUR4Y5E3G4V,10533,140421.jpg,6,73,live
1266,A1ZOLH6MN0ZH9R:3MYYFCXHJ5EIQNQRLINGUR4Y5E3G4V,2013,012584.jpg,7,74,live
1267,A1ZOLH6MN0ZH9R:3MYYFCXHJ5EIQNQRLINGUR4Y5E3G4V,1470,064273.jpg,6,75,live
1268,A1ZOLH6MN0ZH9R:3MYYFCXHJ5EIQNQRLINGUR4Y5E3G4V,2062,024060.jpg,7,76,live
1269,A1ZOLH6MN0ZH9R:3MYYFCXHJ5EIQNQRLINGUR4Y5E3G4V,2004,100978.jpg,6,77,live
1270,A1ZOLH6MN0ZH9R:3MYYFCXHJ5EIQNQRLINGUR4Y5E3G4V,3283,035472.jpg,7,79,live
1271,A1ZOLH6MN0ZH9R:3MYYFCXHJ5EIQNQRLINGUR4Y5E3G4V,4648,077518.jpg,7,80,live
1272,A1ZOLH6MN0ZH9R:3MYYFCXHJ5EIQNQRLINGUR4Y5E3G4V,1763,076409.jpg,6,81,live
1273,A1ZOLH6MN0ZH9R:3MYYFCXHJ5EIQNQRLINGUR4Y5E3G4V,1632,049463.jpg,7,82,live
1274,A1ZOLH6MN0ZH9R:3MYYFCXHJ5EIQNQRLINGUR4Y5E3G4V,1980,049463.jpg,6,83,live
1275,A1ZOLH6MN0ZH9R:3MYYFCXHJ5EIQNQRLINGUR4Y5E3G4V,4203,106149.jpg,7,84,live
1276,A1ZOLH6MN0ZH9R:3MYYFCXHJ5EIQNQRLINGUR4Y5E3G4V,1700,032084.jpg,6,85,live
1277,A1ZOLH6MN0ZH9R:3MYYFCXHJ5EIQNQRLINGUR4Y5E3G4V,1951,077071.jpg,8,86,live
1278,A1ZOLH6MN0ZH9R:3MYYFCXHJ5EIQNQRLINGUR4Y5E3G4V,2054,076493.jpg,7,87,live
1279,A1ZOLH6MN0ZH9R:3MYYFCXHJ5EIQNQRLINGUR4Y5E3G4V,1711,142657.jpg,6,88,live
1280,A1ZOLH6MN0ZH9R:3MYYFCXHJ5EIQNQRLINGUR4Y5E3G4V,1960,124569.jpg,7,90,live
1281,A1ZOLH6MN0ZH9R:3MYYFCXHJ5EIQNQRLINGUR4Y5E3G4V,3877,129756.jpg,8,91,live
1282,A1ZOLH6MN0ZH9R:3MYYFCXHJ5EIQNQRLINGUR4Y5E3G4V,1813,016460.jpg,7,92,live
1283,A1ZOLH6MN0ZH9R:3MYYFCXHJ5EIQNQRLINGUR4Y5E3G4V,1781,053394.jpg,6,93,live
1284,A1ZOLH6MN0ZH9R:3MYYFCXHJ5EIQNQRLINGUR4Y5E3G4V,2026,153051.jpg,7,94,live
1285,A1ZOLH6MN0ZH9R:3MYYFCXHJ5EIQNQRLINGUR4Y5E3G4V,1520,025788.jpg,6,95,live
1286,A1ZOLH6MN0ZH9R:3MYYFCXHJ5EIQNQRLINGUR4Y5E3G4V,1939,050845.jpg,7,96,live
1287,A1ZOLH6MN0ZH9R:3MYYFCXHJ5EIQNQRLINGUR4Y5E3G4V,2100,144125.jpg,8,97,live
1288,A1ZOLH6MN0ZH9R:3MYYFCXHJ5EIQNQRLINGUR4Y5E3G4V,3611,088398.jpg,7,98,live
1289,A1ZOLH6MN0ZH9R:3MYYFCXHJ5EIQNQRLINGUR4Y5E3G4V,2144,015405.jpg,6,99,live
1290,A1ZOLH6MN0ZH9R:3MYYFCXHJ5EIQNQRLINGUR4Y5E3G4V,3020,143051.jpg,7,101,live
1291,A1ZOLH6MN0ZH9R:3MYYFCXHJ5EIQNQRLINGUR4Y5E3G4V,1715,143051.jpg,6,102,live
1292,A1ZOLH6MN0ZH9R:3MYYFCXHJ5EIQNQRLINGUR4Y5E3G4V,2999,106414.jpg,8,103,live
1293,A1ZOLH6MN0ZH9R:3MYYFCXHJ5EIQNQRLINGUR4Y5E3G4V,5341,129756.jpg,6,104,live
1294,A1ZOLH6MN0ZH9R:3MYYFCXHJ5EIQNQRLINGUR4Y5E3G4V,3308,202552.jpg,7,105,live
1295,A1ZOLH6MN0ZH9R:3MYYFCXHJ5EIQNQRLINGUR4Y5E3G4V,2026,042306.jpg,8,106,live
1296,A1ZOLH6MN0ZH9R:3MYYFCXHJ5EIQNQRLINGUR4Y5E3G4V,1806,066051.jpg,6,107,live
1297,A1ZOLH6MN0ZH9R:3MYYFCXHJ5EIQNQRLINGUR4Y5E3G4V,2319,127601.jpg,7,108,live
1298,A1ZOLH6MN0ZH9R:3MYYFCXHJ5EIQNQRLINGUR4Y5E3G4V,1677,053041.jpg,6,109,live
1299,A1ZOLH6MN0ZH9R:3MYYFCXHJ5EIQNQRLINGUR4Y5E3G4V,1980,024231.jpg,7,110,live
1300,A2OD1KB2YCZ2SE:3YDTZAI2WZNLM80O3Z2DN40S3PI14E,6146,077071.jpg,9,2,live
1301,A2OD1KB2YCZ2SE:3YDTZAI2WZNLM80O3Z2DN40S3PI14E,3070,153051.jpg,8,3,live
1302,A2OD1KB2YCZ2SE:3YDTZAI2WZNLM80O3Z2DN40S3PI14E,4328,054459.jpg,9,4,live
1303,A2OD1KB2YCZ2SE:3YDTZAI2WZNLM80O3Z2DN40S3PI14E,3619,091837.jpg,8,5,live
1304,A2OD1KB2YCZ2SE:3YDTZAI2WZNLM80O3Z2DN40S3PI14E,4003,091837.jpg,9,6,live
1305,A2OD1KB2YCZ2SE:3YDTZAI2WZNLM80O3Z2DN40S3PI14E,3026,086810.jpg,8,7,live
1306,A2OD1KB2YCZ2SE:3YDTZAI2WZNLM80O3Z2DN40S3PI14E,3648,077518.jpg,9,8,live
1307,A2OD1KB2YCZ2SE:3YDTZAI2WZNLM80O3Z2DN40S3PI14E,3146,143051.jpg,8,9,live
1308,A2OD1KB2YCZ2SE:3YDTZAI2WZNLM80O3Z2DN40S3PI14E,2585,124569.jpg,9,10,live
1309,A2OD1KB2YCZ2SE:3YDTZAI2WZNLM80O3Z2DN40S3PI14E,3911,124569.jpg,8,11,live
1310,A2OD1KB2YCZ2SE:3YDTZAI2WZNLM80O3Z2DN40S3PI14E,3069,025788.jpg,9,13,live
1311,A2OD1KB2YCZ2SE:3YDTZAI2WZNLM80O3Z2DN40S3PI14E,2522,038546.jpg,8,14,live
1312,A2OD1KB2YCZ2SE:3YDTZAI2WZNLM80O3Z2DN40S3PI14E,3176,140421.jpg,9,15,live
1313,A2OD1KB2YCZ2SE:3YDTZAI2WZNLM80O3Z2DN40S3PI14E,3482,065232.jpg,9,16,live
1314,A2OD1KB2YCZ2SE:3YDTZAI2WZNLM80O3Z2DN40S3PI14E,15546,053394.jpg,9,17,live
