A2FLZP3C6U67JY:3JZQSN0I3SHSO3NG5ZJZLV1OI47GF0,0,1543385214178,"{""rt"": 8250, ""trial_type"": ""instructions"", ""view_history"": ""[{\""page_index\"":0,\""viewing_time\"":2977},{\""page_index\"":1,\""viewing_time\"":1184},{\""page_index\"":2,\""viewing_time\"":1464},{\""page_index\"":3,\""viewing_time\"":2624}]"", ""task_type"": ""instruction"", ""task_payment"": 1, ""task_version"": 1, ""internal_node_id"": ""0.0-0.0"", ""time_elapsed"": 8255, ""debug_mode"": ""live"", ""task_name"": ""attractive"", ""task_unique_trial"": 50, ""trial_index"": 0}"
A2FLZP3C6U67JY:3JZQSN0I3SHSO3NG5ZJZLV1OI47GF0,1,1543385230730,"{""rt"": 16535, ""trial_type"": ""survey-multi-choice"", ""task_type"": ""demographic-multichoice"", ""responses"": ""{\""Q0\"":\""26-35\"",\""Q1\"":\""Male\"",\""Q2\"":\""No\"",\""Q3\"":\""3\"",\""Q4\"":\""White\"",\""Q5\"":\""Associate degree (e.g. AA, AS)\"",\""Q6\"":\""$20,000 - $34,999\""}"", ""task_payment"": 1, ""task_version"": 1, ""time_elapsed"": 24808, ""sanity_check_1_continue"": true, ""random_num"": 3, ""debug_mode"": ""live"", ""questions"": ""[{\""prompt\"":\""What is your age?\"",\""options\"":[\""Under 18\"",\""18-25\"",\""26-35\"",\""36-45\"",\""46-55\"",\""56+\""],\""required\"":true},{\""prompt\"":\""What is your gender?\"",\""options\"":[\""Male\"",\""Female\"",\""Other/Prefer not to say\""],\""required\"":true},{\""prompt\"":\""Are you of Hispanic, Latino, or Spanish origin?\"",\""options\"":[\""Yes\"",\""No\""],\""required\"":true},{\""prompt\"":\""Please choose the option that match the number here: 3\"",\""options\"":[\""1\"",\""2\"",\""3\"",\""4\""],\""required\"":true},{\""prompt\"":\""How would you describe yourself?\"",\""options\"":[\""American Indian or Alaskan Native\"",\""Asian\"",\""Black or African-American\"",\""Native Hawaiian or Other Pacific Islander\"",\""White\""],\""required\"":true},{\""prompt\"":\""What is the highest degree or level of school you have completed? (If you&#8217;re currently enrolled in school, please indicate the highest degree you have received)\"",\""options\"":[\""Less than a high school diploma\"",\""High school degree or equivalent (e.g. GED)\"",\""Some college, no degree\"",\""Associate degree (e.g. AA, AS)\"",\""Bachelor&#8217;s degree (e.g. BA, BS)\"",\""Professional or post-baccalauriate degree\""],\""required\"":true},{\""prompt\"":\""What is the total income of all members of your household?\"",\""options\"":[\""Less than $20,000\"",\""$20,000 - $34,999\"",\""$35,000 - $49,999\"",\""$50,000 - $74,999\"",\""$75,000 - $99,999\"",\""Over $100,000\""],\""required\"":true}]"", ""internal_node_id"": ""0.0-1.0-0.0"", ""task_unique_trial"": 50, ""task_name"": ""attractive"", ""trial_index"": 1}"
A2FLZP3C6U67JY:3JZQSN0I3SHSO3NG5ZJZLV1OI47GF0,2,1543385236345,"{""rt"": 5610, ""trial_type"": ""survey-text-req"", ""task_type"": ""demographics_location"", ""responses"": ""{\""Q0\"":\""OH\"",\""Q1\"":\""Toledo\"",\""Q2\"":\""43614\""}"", ""task_payment"": 1, ""task_version"": 1, ""internal_node_id"": ""0.0-2.0"", ""time_elapsed"": 30423, ""debug_mode"": ""live"", ""task_name"": ""attractive"", ""task_unique_trial"": 50, ""trial_index"": 2}"
A2FLZP3C6U67JY:3JZQSN0I3SHSO3NG5ZJZLV1OI47GF0,3,1543385244168,"{""rt"": 7821, ""trial_type"": ""survey-text-req"", ""task_type"": ""question comprehension"", ""responses"": ""{\""Q0\"":\""How attractive does this person look to you?\""}"", ""task_payment"": 1, ""task_version"": 1, ""internal_node_id"": ""0.0-3.0-0.0"", ""comprehension_check_continue"": true, ""time_elapsed"": 38246, ""debug_mode"": ""live"", ""task_name"": ""attractive"", ""task_unique_trial"": 50, ""trial_index"": 3}"
A2FLZP3C6U67JY:3JZQSN0I3SHSO3NG5ZJZLV1OI47GF0,4,1543385745073,"{""rt"": 500902, ""trial_type"": ""face-likert-amanda"", ""debug_mode"": ""live"", ""task_type"": ""empty face"", ""responses"": ""{\""Q0\"":4}"", ""task_payment"": 1, ""task_version"": 1, ""internal_node_id"": ""0.0-4.0"", ""time_elapsed"": 539151, ""imgName"": ""/static/images/faces/empty-image-1.jpg"", ""questions"": ""[{\""prompt\"":\""<p>How attractive does this person look to you? Rate from 1-9</p>\"",\""labels\"":[\""1 <br/>Not attractive at all\"",\""2\"",\""3\"",\""4\"",\""5\"",\""6\"",\""7\"",\""8\"",\""9  <br/>Extremely attractive\""],\""required\"":true}]"", ""task_unique_trial"": 50, ""task_name"": ""attractive"", ""trial_index"": 4, ""isRepeat"": 0}"
A2FLZP3C6U67JY:3JZQSN0I3SHSO3NG5ZJZLV1OI47GF0,5,1543385749416,"{""rt"": 4343, ""trial_type"": ""instructions"", ""view_history"": ""[{\""page_index\"":0,\""viewing_time\"":4343}]"", ""task_unique_trial"": 50, ""task_payment"": 1, ""task_version"": 1, ""internal_node_id"": ""0.0-5.0"", ""time_elapsed"": 543494, ""debug_mode"": ""live"", ""task_name"": ""attractive"", ""trial_index"": 5}"
A2FLZP3C6U67JY:3JZQSN0I3SHSO3NG5ZJZLV1OI47GF0,6,1543385754176,"{""rt"": 4758, ""trial_type"": ""face-likert-amanda"", ""debug_mode"": ""live"", ""task_type"": ""face trials"", ""responses"": ""{\""Q0\"":4}"", ""task_payment"": 1, ""task_version"": 1, ""internal_node_id"": ""0.0-6.0-0.0-0.0"", ""time_elapsed"": 548254, ""imgName"": ""/static/images/2kfaces/Google_1_Valerie Noble_9_oval.jpg"", ""questions"": ""[{\""prompt\"":\""<p>How attractive does this person look to you? Rate from 1-9</p>\"",\""labels\"":[\""1 <br/>Not attractive at all\"",\""2\"",\""3\"",\""4\"",\""5\"",\""6\"",\""7\"",\""8\"",\""9  <br/>Extremely attractive\""],\""required\"":true}]"", ""task_unique_trial"": 50, ""task_name"": ""attractive"", ""trial_index"": 6, ""isRepeat"": 0}"
A2FLZP3C6U67JY:3JZQSN0I3SHSO3NG5ZJZLV1OI47GF0,7,1543385757288,"{""rt"": 3110, ""trial_type"": ""face-likert-amanda"", ""debug_mode"": ""live"", ""task_type"": ""face trials"", ""responses"": ""{\""Q0\"":2}"", ""task_payment"": 1, ""task_version"": 1, ""internal_node_id"": ""0.0-6.0-0.0-1.0"", ""time_elapsed"": 551366, ""imgName"": ""/static/images/2kfaces/Bryan_Shanklin_9_oval.jpg"", ""questions"": ""[{\""prompt\"":\""<p>How attractive does this person look to you? Rate from 1-9</p>\"",\""labels\"":[\""1 <br/>Not attractive at all\"",\""2\"",\""3\"",\""4\"",\""5\"",\""6\"",\""7\"",\""8\"",\""9  <br/>Extremely attractive\""],\""required\"":true}]"", ""task_unique_trial"": 50, ""task_name"": ""attractive"", ""trial_index"": 7, ""isRepeat"": 0}"
A2FLZP3C6U67JY:3JZQSN0I3SHSO3NG5ZJZLV1OI47GF0,8,1543385761776,"{""rt"": 4487, ""trial_type"": ""face-likert-amanda"", ""debug_mode"": ""live"", ""task_type"": ""face trials"", ""responses"": ""{\""Q0\"":6}"", ""task_payment"": 1, ""task_version"": 1, ""internal_node_id"": ""0.0-6.0-0.0-2.0"", ""time_elapsed"": 555854, ""imgName"": ""/static/images/2kfaces/Google_1_Russell Gillam_17_oval.jpg"", ""questions"": ""[{\""prompt\"":\""<p>How attractive does this person look to you? Rate from 1-9</p>\"",\""labels\"":[\""1 <br/>Not attractive at all\"",\""2\"",\""3\"",\""4\"",\""5\"",\""6\"",\""7\"",\""8\"",\""9  <br/>Extremely attractive\""],\""required\"":true}]"", ""task_unique_trial"": 50, ""task_name"": ""attractive"", ""trial_index"": 8, ""isRepeat"": 0}"
A2FLZP3C6U67JY:3JZQSN0I3SHSO3NG5ZJZLV1OI47GF0,9,1543385765425,"{""rt"": 3646, ""trial_type"": ""face-likert-amanda"", ""debug_mode"": ""live"", ""task_type"": ""face trials"", ""responses"": ""{\""Q0\"":1}"", ""task_payment"": 1, ""task_version"": 1, ""internal_node_id"": ""0.0-6.0-0.0-3.0"", ""time_elapsed"": 559502, ""imgName"": ""/static/images/2kfaces/Google_1_Samuel Goff_1_oval.jpg"", ""questions"": ""[{\""prompt\"":\""<p>How attractive does this person look to you? Rate from 1-9</p>\"",\""labels\"":[\""1 <br/>Not attractive at all\"",\""2\"",\""3\"",\""4\"",\""5\"",\""6\"",\""7\"",\""8\"",\""9  <br/>Extremely attractive\""],\""required\"":true}]"", ""task_unique_trial"": 50, ""task_name"": ""attractive"", ""trial_index"": 9, ""isRepeat"": 0}"
A2FLZP3C6U67JY:3JZQSN0I3SHSO3NG5ZJZLV1OI47GF0,10,1543385769336,"{""rt"": 3910, ""trial_type"": ""face-likert-amanda"", ""debug_mode"": ""live"", ""task_type"": ""face trials"", ""responses"": ""{\""Q0\"":6}"", ""task_payment"": 1, ""task_version"": 1, ""internal_node_id"": ""0.0-6.0-0.0-4.0"", ""time_elapsed"": 563414, ""imgName"": ""/static/images/2kfaces/Alice_Mckellar_11_oval.jpg"", ""questions"": ""[{\""prompt\"":\""<p>How attractive does this person look to you? Rate from 1-9</p>\"",\""labels\"":[\""1 <br/>Not attractive at all\"",\""2\"",\""3\"",\""4\"",\""5\"",\""6\"",\""7\"",\""8\"",\""9  <br/>Extremely attractive\""],\""required\"":true}]"", ""task_unique_trial"": 50, ""task_name"": ""attractive"", ""trial_index"": 10, ""isRepeat"": 0}"
A2FLZP3C6U67JY:3JZQSN0I3SHSO3NG5ZJZLV1OI47GF0,11,1543385773120,"{""rt"": 3782, ""trial_type"": ""face-likert-amanda"", ""debug_mode"": ""live"", ""task_type"": ""face trials"", ""responses"": ""{\""Q0\"":5}"", ""task_payment"": 1, ""task_version"": 1, ""internal_node_id"": ""0.0-6.0-0.0-5.0"", ""time_elapsed"": 567198, ""imgName"": ""/static/images/2kfaces/Google_1_Ronald Driver_19_oval.jpg"", ""questions"": ""[{\""prompt\"":\""<p>How attractive does this person look to you? Rate from 1-9</p>\"",\""labels\"":[\""1 <br/>Not attractive at all\"",\""2\"",\""3\"",\""4\"",\""5\"",\""6\"",\""7\"",\""8\"",\""9  <br/>Extremely attractive\""],\""required\"":true}]"", ""task_unique_trial"": 50, ""task_name"": ""attractive"", ""trial_index"": 11, ""isRepeat"": 0}"
A2FLZP3C6U67JY:3JZQSN0I3SHSO3NG5ZJZLV1OI47GF0,12,1543385775600,"{""rt"": 2477, ""trial_type"": ""face-likert-amanda"", ""debug_mode"": ""live"", ""task_type"": ""face trials"", ""responses"": ""{\""Q0\"":2}"", ""task_payment"": 1, ""task_version"": 1, ""internal_node_id"": ""0.0-6.0-0.0-6.0"", ""time_elapsed"": 569678, ""imgName"": ""/static/images/2kfaces/Google_1_Frank Luke_9_oval.jpg"", ""questions"": ""[{\""prompt\"":\""<p>How attractive does this person look to you? Rate from 1-9</p>\"",\""labels\"":[\""1 <br/>Not attractive at all\"",\""2\"",\""3\"",\""4\"",\""5\"",\""6\"",\""7\"",\""8\"",\""9  <br/>Extremely attractive\""],\""required\"":true}]"", ""task_unique_trial"": 50, ""task_name"": ""attractive"", ""trial_index"": 12, ""isRepeat"": 0}"
A2FLZP3C6U67JY:3JZQSN0I3SHSO3NG5ZJZLV1OI47GF0,13,1543385778280,"{""rt"": 2678, ""trial_type"": ""face-likert-amanda"", ""debug_mode"": ""live"", ""task_type"": ""face trials"", ""responses"": ""{\""Q0\"":5}"", ""task_payment"": 1, ""task_version"": 1, ""internal_node_id"": ""0.0-6.0-0.0-7.0"", ""time_elapsed"": 572358, ""imgName"": ""/static/images/2kfaces/Google_1_Gary Nance_3_oval.jpg"", ""questions"": ""[{\""prompt\"":\""<p>How attractive does this person look to you? Rate from 1-9</p>\"",\""labels\"":[\""1 <br/>Not attractive at all\"",\""2\"",\""3\"",\""4\"",\""5\"",\""6\"",\""7\"",\""8\"",\""9  <br/>Extremely attractive\""],\""required\"":true}]"", ""task_unique_trial"": 50, ""task_name"": ""attractive"", ""trial_index"": 13, ""isRepeat"": 0}"
A2FLZP3C6U67JY:3JZQSN0I3SHSO3NG5ZJZLV1OI47GF0,14,1543385781248,"{""rt"": 2967, ""trial_type"": ""face-likert-amanda"", ""debug_mode"": ""live"", ""task_type"": ""face trials"", ""responses"": ""{\""Q0\"":4}"", ""task_payment"": 1, ""task_version"": 1, ""internal_node_id"": ""0.0-6.0-0.0-8.0"", ""time_elapsed"": 575326, ""imgName"": ""/static/images/2kfaces/Google_1_Shelley Lund_5_oval.jpg"", ""questions"": ""[{\""prompt\"":\""<p>How attractive does this person look to you? Rate from 1-9</p>\"",\""labels\"":[\""1 <br/>Not attractive at all\"",\""2\"",\""3\"",\""4\"",\""5\"",\""6\"",\""7\"",\""8\"",\""9  <br/>Extremely attractive\""],\""required\"":true}]"", ""task_unique_trial"": 50, ""task_name"": ""attractive"", ""trial_index"": 14, ""isRepeat"": 0}"
A2FLZP3C6U67JY:3JZQSN0I3SHSO3NG5ZJZLV1OI47GF0,15,1543385784337,"{""rt"": 3087, ""trial_type"": ""face-likert-amanda"", ""debug_mode"": ""live"", ""task_type"": ""face trials"", ""responses"": ""{\""Q0\"":7}"", ""task_payment"": 1, ""task_version"": 1, ""internal_node_id"": ""0.0-6.0-0.0-9.0"", ""time_elapsed"": 578415, ""imgName"": ""/static/images/2kfaces/Google_1_Alma Poor_7_oval.jpg"", ""questions"": ""[{\""prompt\"":\""<p>How attractive does this person look to you? Rate from 1-9</p>\"",\""labels\"":[\""1 <br/>Not attractive at all\"",\""2\"",\""3\"",\""4\"",\""5\"",\""6\"",\""7\"",\""8\"",\""9  <br/>Extremely attractive\""],\""required\"":true}]"", ""task_unique_trial"": 50, ""task_name"": ""attractive"", ""trial_index"": 15, ""isRepeat"": 0}"
A2FLZP3C6U67JY:3JZQSN0I3SHSO3NG5ZJZLV1OI47GF0,16,1543385786340,"{""rt"": null, ""trial_type"": ""html-keyboard-response"", ""task_unique_trial"": 50, ""stimulus"": ""<p>Good job!</p>"", ""task_version"": 1, ""internal_node_id"": ""0.0-6.0-1.0"", ""task_payment"": 1, ""time_elapsed"": 580418, ""debug_mode"": ""live"", ""key_press"": null, ""task_name"": ""attractive"", ""trial_index"": 16}"
A2FLZP3C6U67JY:3JZQSN0I3SHSO3NG5ZJZLV1OI47GF0,17,1543385791185,"{""rt"": 4842, ""trial_type"": ""face-likert-amanda"", ""debug_mode"": ""live"", ""task_type"": ""face trials"", ""responses"": ""{\""Q0\"":6}"", ""task_payment"": 1, ""task_version"": 1, ""internal_node_id"": ""0.0-7.0-0.0-0.0"", ""time_elapsed"": 585263, ""imgName"": ""/static/images/2kfaces/Google_1_Henry Gumm_19_oval.jpg"", ""questions"": ""[{\""prompt\"":\""<p>How attractive does this person look to you? Rate from 1-9</p>\"",\""labels\"":[\""1 <br/>Not attractive at all\"",\""2\"",\""3\"",\""4\"",\""5\"",\""6\"",\""7\"",\""8\"",\""9  <br/>Extremely attractive\""],\""required\"":true}]"", ""task_unique_trial"": 50, ""task_name"": ""attractive"", ""trial_index"": 17, ""isRepeat"": 0}"
A2FLZP3C6U67JY:3JZQSN0I3SHSO3NG5ZJZLV1OI47GF0,18,1543385796848,"{""rt"": 5661, ""trial_type"": ""face-likert-amanda"", ""debug_mode"": ""live"", ""task_type"": ""face trials"", ""responses"": ""{\""Q0\"":7}"", ""task_payment"": 1, ""task_version"": 1, ""internal_node_id"": ""0.0-7.0-0.0-1.0"", ""time_elapsed"": 590926, ""imgName"": ""/static/images/2kfaces/Google_1_Ryan Marvel_15_oval.jpg"", ""questions"": ""[{\""prompt\"":\""<p>How attractive does this person look to you? Rate from 1-9</p>\"",\""labels\"":[\""1 <br/>Not attractive at all\"",\""2\"",\""3\"",\""4\"",\""5\"",\""6\"",\""7\"",\""8\"",\""9  <br/>Extremely attractive\""],\""required\"":true}]"", ""task_unique_trial"": 50, ""task_name"": ""attractive"", ""trial_index"": 18, ""isRepeat"": 0}"
A2FLZP3C6U67JY:3JZQSN0I3SHSO3NG5ZJZLV1OI47GF0,19,1543385800713,"{""rt"": 3861, ""trial_type"": ""face-likert-amanda"", ""debug_mode"": ""live"", ""task_type"": ""face trials"", ""responses"": ""{\""Q0\"":2}"", ""task_payment"": 1, ""task_version"": 1, ""internal_node_id"": ""0.0-7.0-0.0-2.0"", ""time_elapsed"": 594791, ""imgName"": ""/static/images/2kfaces/Google_1_Florence Melton_1_oval.jpg"", ""questions"": ""[{\""prompt\"":\""<p>How attractive does this person look to you? Rate from 1-9</p>\"",\""labels\"":[\""1 <br/>Not attractive at all\"",\""2\"",\""3\"",\""4\"",\""5\"",\""6\"",\""7\"",\""8\"",\""9  <br/>Extremely attractive\""],\""required\"":true}]"", ""task_unique_trial"": 50, ""task_name"": ""attractive"", ""trial_index"": 19, ""isRepeat"": 0}"
A2FLZP3C6U67JY:3JZQSN0I3SHSO3NG5ZJZLV1OI47GF0,20,1543385803528,"{""rt"": 2813, ""trial_type"": ""face-likert-amanda"", ""debug_mode"": ""live"", ""task_type"": ""face trials"", ""responses"": ""{\""Q0\"":1}"", ""task_payment"": 1, ""task_version"": 1, ""internal_node_id"": ""0.0-7.0-0.0-3.0"", ""time_elapsed"": 597606, ""imgName"": ""/static/images/2kfaces/Google_1_Gertrude Bayne_11_oval.jpg"", ""questions"": ""[{\""prompt\"":\""<p>How attractive does this person look to you? Rate from 1-9</p>\"",\""labels\"":[\""1 <br/>Not attractive at all\"",\""2\"",\""3\"",\""4\"",\""5\"",\""6\"",\""7\"",\""8\"",\""9  <br/>Extremely attractive\""],\""required\"":true}]"", ""task_unique_trial"": 50, ""task_name"": ""attractive"", ""trial_index"": 20, ""isRepeat"": 0}"
A2FLZP3C6U67JY:3JZQSN0I3SHSO3NG5ZJZLV1OI47GF0,21,1543385806456,"{""rt"": 2926, ""trial_type"": ""face-likert-amanda"", ""debug_mode"": ""live"", ""task_type"": ""face trials"", ""responses"": ""{\""Q0\"":2}"", ""task_payment"": 1, ""task_version"": 1, ""internal_node_id"": ""0.0-7.0-0.0-4.0"", ""time_elapsed"": 600534, ""imgName"": ""/static/images/2kfaces/Google_1_Norman Westfall_5_oval.jpg"", ""questions"": ""[{\""prompt\"":\""<p>How attractive does this person look to you? Rate from 1-9</p>\"",\""labels\"":[\""1 <br/>Not attractive at all\"",\""2\"",\""3\"",\""4\"",\""5\"",\""6\"",\""7\"",\""8\"",\""9  <br/>Extremely attractive\""],\""required\"":true}]"", ""task_unique_trial"": 50, ""task_name"": ""attractive"", ""trial_index"": 21, ""isRepeat"": 0}"
A2FLZP3C6U67JY:3JZQSN0I3SHSO3NG5ZJZLV1OI47GF0,22,1543385808681,"{""rt"": 2223, ""trial_type"": ""face-likert-amanda"", ""debug_mode"": ""live"", ""task_type"": ""face trials"", ""responses"": ""{\""Q0\"":4}"", ""task_payment"": 1, ""task_version"": 1, ""internal_node_id"": ""0.0-7.0-0.0-5.0"", ""time_elapsed"": 602759, ""imgName"": ""/static/images/2kfaces/Google_1_Paul Horst_15_oval.jpg"", ""questions"": ""[{\""prompt\"":\""<p>How attractive does this person look to you? Rate from 1-9</p>\"",\""labels\"":[\""1 <br/>Not attractive at all\"",\""2\"",\""3\"",\""4\"",\""5\"",\""6\"",\""7\"",\""8\"",\""9  <br/>Extremely attractive\""],\""required\"":true}]"", ""task_unique_trial"": 50, ""task_name"": ""attractive"", ""trial_index"": 22, ""isRepeat"": 0}"
A2FLZP3C6U67JY:3JZQSN0I3SHSO3NG5ZJZLV1OI47GF0,23,1543385819985,"{""rt"": 11302, ""trial_type"": ""face-likert-amanda"", ""debug_mode"": ""live"", ""task_type"": ""face trials"", ""responses"": ""{\""Q0\"":5}"", ""task_payment"": 1, ""task_version"": 1, ""internal_node_id"": ""0.0-7.0-0.0-6.0"", ""time_elapsed"": 614063, ""imgName"": ""/static/images/2kfaces/Google_1_Sherry Mcmichael_11_oval.jpg"", ""questions"": ""[{\""prompt\"":\""<p>How attractive does this person look to you? Rate from 1-9</p>\"",\""labels\"":[\""1 <br/>Not attractive at all\"",\""2\"",\""3\"",\""4\"",\""5\"",\""6\"",\""7\"",\""8\"",\""9  <br/>Extremely attractive\""],\""required\"":true}]"", ""task_unique_trial"": 50, ""task_name"": ""attractive"", ""trial_index"": 23, ""isRepeat"": 0}"
A2FLZP3C6U67JY:3JZQSN0I3SHSO3NG5ZJZLV1OI47GF0,24,1543385822184,"{""rt"": 2196, ""trial_type"": ""face-likert-amanda"", ""debug_mode"": ""live"", ""task_type"": ""face trials"", ""responses"": ""{\""Q0\"":3}"", ""task_payment"": 1, ""task_version"": 1, ""internal_node_id"": ""0.0-7.0-0.0-7.0"", ""time_elapsed"": 616262, ""imgName"": ""/static/images/2kfaces/Google_1_Gregory Arriola_3_oval.jpg"", ""questions"": ""[{\""prompt\"":\""<p>How attractive does this person look to you? Rate from 1-9</p>\"",\""labels\"":[\""1 <br/>Not attractive at all\"",\""2\"",\""3\"",\""4\"",\""5\"",\""6\"",\""7\"",\""8\"",\""9  <br/>Extremely attractive\""],\""required\"":true}]"", ""task_unique_trial"": 50, ""task_name"": ""attractive"", ""trial_index"": 24, ""isRepeat"": 0}"
A2FLZP3C6U67JY:3JZQSN0I3SHSO3NG5ZJZLV1OI47GF0,25,1543385825240,"{""rt"": 3055, ""trial_type"": ""face-likert-amanda"", ""debug_mode"": ""live"", ""task_type"": ""face trials"", ""responses"": ""{\""Q0\"":4}"", ""task_payment"": 1, ""task_version"": 1, ""internal_node_id"": ""0.0-7.0-0.0-8.0"", ""time_elapsed"": 619318, ""imgName"": ""/static/images/2kfaces/Google_1_Sarah Woodcock_3_oval.jpg"", ""questions"": ""[{\""prompt\"":\""<p>How attractive does this person look to you? Rate from 1-9</p>\"",\""labels\"":[\""1 <br/>Not attractive at all\"",\""2\"",\""3\"",\""4\"",\""5\"",\""6\"",\""7\"",\""8\"",\""9  <br/>Extremely attractive\""],\""required\"":true}]"", ""task_unique_trial"": 50, ""task_name"": ""attractive"", ""trial_index"": 25, ""isRepeat"": 0}"
A2FLZP3C6U67JY:3JZQSN0I3SHSO3NG5ZJZLV1OI47GF0,26,1543385828360,"{""rt"": 3118, ""trial_type"": ""face-likert-amanda"", ""debug_mode"": ""live"", ""task_type"": ""face trials"", ""responses"": ""{\""Q0\"":4}"", ""task_payment"": 1, ""task_version"": 1, ""internal_node_id"": ""0.0-7.0-0.0-9.0"", ""time_elapsed"": 622438, ""imgName"": ""/static/images/2kfaces/Google_1_Jonathan Marek_5_oval.jpg"", ""questions"": ""[{\""prompt\"":\""<p>How attractive does this person look to you? Rate from 1-9</p>\"",\""labels\"":[\""1 <br/>Not attractive at all\"",\""2\"",\""3\"",\""4\"",\""5\"",\""6\"",\""7\"",\""8\"",\""9  <br/>Extremely attractive\""],\""required\"":true}]"", ""task_unique_trial"": 50, ""task_name"": ""attractive"", ""trial_index"": 26, ""isRepeat"": 0}"
A2FLZP3C6U67JY:3JZQSN0I3SHSO3NG5ZJZLV1OI47GF0,27,1543385830364,"{""rt"": null, ""trial_type"": ""html-keyboard-response"", ""task_unique_trial"": 50, ""stimulus"": ""<p>Good job!</p>"", ""task_version"": 1, ""internal_node_id"": ""0.0-7.0-1.0"", ""task_payment"": 1, ""time_elapsed"": 624442, ""debug_mode"": ""live"", ""key_press"": null, ""task_name"": ""attractive"", ""trial_index"": 27}"
A2FLZP3C6U67JY:3JZQSN0I3SHSO3NG5ZJZLV1OI47GF0,28,1543385833065,"{""rt"": 2698, ""trial_type"": ""face-likert-amanda"", ""debug_mode"": ""live"", ""task_type"": ""face trials"", ""responses"": ""{\""Q0\"":2}"", ""task_payment"": 1, ""task_version"": 1, ""internal_node_id"": ""0.0-8.0-0.0-0.0"", ""time_elapsed"": 627143, ""imgName"": ""/static/images/2kfaces/Google_1_Kenneth Rigsby_15_oval.jpg"", ""questions"": ""[{\""prompt\"":\""<p>How attractive does this person look to you? Rate from 1-9</p>\"",\""labels\"":[\""1 <br/>Not attractive at all\"",\""2\"",\""3\"",\""4\"",\""5\"",\""6\"",\""7\"",\""8\"",\""9  <br/>Extremely attractive\""],\""required\"":true}]"", ""task_unique_trial"": 50, ""task_name"": ""attractive"", ""trial_index"": 28, ""isRepeat"": 0}"
A2FLZP3C6U67JY:3JZQSN0I3SHSO3NG5ZJZLV1OI47GF0,29,1543385839648,"{""rt"": 6583, ""trial_type"": ""face-likert-amanda"", ""debug_mode"": ""live"", ""task_type"": ""face trials"", ""responses"": ""{\""Q0\"":4}"", ""task_payment"": 1, ""task_version"": 1, ""internal_node_id"": ""0.0-8.0-0.0-1.0"", ""time_elapsed"": 633726, ""imgName"": ""/static/images/2kfaces/Google_1_Marjorie Rule_3_oval.jpg"", ""questions"": ""[{\""prompt\"":\""<p>How attractive does this person look to you? Rate from 1-9</p>\"",\""labels\"":[\""1 <br/>Not attractive at all\"",\""2\"",\""3\"",\""4\"",\""5\"",\""6\"",\""7\"",\""8\"",\""9  <br/>Extremely attractive\""],\""required\"":true}]"", ""task_unique_trial"": 50, ""task_name"": ""attractive"", ""trial_index"": 29, ""isRepeat"": 0}"
A2FLZP3C6U67JY:3JZQSN0I3SHSO3NG5ZJZLV1OI47GF0,30,1543385843184,"{""rt"": 3534, ""trial_type"": ""face-likert-amanda"", ""debug_mode"": ""live"", ""task_type"": ""face trials"", ""responses"": ""{\""Q0\"":6}"", ""task_payment"": 1, ""task_version"": 1, ""internal_node_id"": ""0.0-8.0-0.0-2.0"", ""time_elapsed"": 637262, ""imgName"": ""/static/images/2kfaces/Google_1_Steve Stamm_1_oval.jpg"", ""questions"": ""[{\""prompt\"":\""<p>How attractive does this person look to you? Rate from 1-9</p>\"",\""labels\"":[\""1 <br/>Not attractive at all\"",\""2\"",\""3\"",\""4\"",\""5\"",\""6\"",\""7\"",\""8\"",\""9  <br/>Extremely attractive\""],\""required\"":true}]"", ""task_unique_trial"": 50, ""task_name"": ""attractive"", ""trial_index"": 30, ""isRepeat"": 0}"
A2FLZP3C6U67JY:3JZQSN0I3SHSO3NG5ZJZLV1OI47GF0,31,1543385847544,"{""rt"": 4358, ""trial_type"": ""face-likert-amanda"", ""debug_mode"": ""live"", ""task_type"": ""face trials"", ""responses"": ""{\""Q0\"":3}"", ""task_payment"": 1, ""task_version"": 1, ""internal_node_id"": ""0.0-8.0-0.0-3.0"", ""time_elapsed"": 641622, ""imgName"": ""/static/images/2kfaces/Google_1_Vera Becker_5_oval.jpg"", ""questions"": ""[{\""prompt\"":\""<p>How attractive does this person look to you? Rate from 1-9</p>\"",\""labels\"":[\""1 <br/>Not attractive at all\"",\""2\"",\""3\"",\""4\"",\""5\"",\""6\"",\""7\"",\""8\"",\""9  <br/>Extremely attractive\""],\""required\"":true}]"", ""task_unique_trial"": 50, ""task_name"": ""attractive"", ""trial_index"": 31, ""isRepeat"": 0}"
A2FLZP3C6U67JY:3JZQSN0I3SHSO3NG5ZJZLV1OI47GF0,32,1543385850000,"{""rt"": 2454, ""trial_type"": ""face-likert-amanda"", ""debug_mode"": ""live"", ""task_type"": ""face trials"", ""responses"": ""{\""Q0\"":4}"", ""task_payment"": 1, ""task_version"": 1, ""internal_node_id"": ""0.0-8.0-0.0-4.0"", ""time_elapsed"": 644078, ""imgName"": ""/static/images/2kfaces/Google_1_Mark Houser_17_oval.jpg"", ""questions"": ""[{\""prompt\"":\""<p>How attractive does this person look to you? Rate from 1-9</p>\"",\""labels\"":[\""1 <br/>Not attractive at all\"",\""2\"",\""3\"",\""4\"",\""5\"",\""6\"",\""7\"",\""8\"",\""9  <br/>Extremely attractive\""],\""required\"":true}]"", ""task_unique_trial"": 50, ""task_name"": ""attractive"", ""trial_index"": 32, ""isRepeat"": 0}"
A2FLZP3C6U67JY:3JZQSN0I3SHSO3NG5ZJZLV1OI47GF0,33,1543385857216,"{""rt"": 7214, ""trial_type"": ""face-likert-amanda"", ""debug_mode"": ""live"", ""task_type"": ""face trials"", ""responses"": ""{\""Q0\"":6}"", ""task_payment"": 1, ""task_version"": 1, ""internal_node_id"": ""0.0-8.0-0.0-5.0"", ""time_elapsed"": 651294, ""imgName"": ""/static/images/2kfaces/Google_1_Carole Bentley_7_oval.jpg"", ""questions"": ""[{\""prompt\"":\""<p>How attractive does this person look to you? Rate from 1-9</p>\"",\""labels\"":[\""1 <br/>Not attractive at all\"",\""2\"",\""3\"",\""4\"",\""5\"",\""6\"",\""7\"",\""8\"",\""9  <br/>Extremely attractive\""],\""required\"":true}]"", ""task_unique_trial"": 50, ""task_name"": ""attractive"", ""trial_index"": 33, ""isRepeat"": 0}"
A2FLZP3C6U67JY:3JZQSN0I3SHSO3NG5ZJZLV1OI47GF0,34,1543385859880,"{""rt"": 2662, ""trial_type"": ""face-likert-amanda"", ""debug_mode"": ""live"", ""task_type"": ""face trials"", ""responses"": ""{\""Q0\"":4}"", ""task_payment"": 1, ""task_version"": 1, ""internal_node_id"": ""0.0-8.0-0.0-6.0"", ""time_elapsed"": 653958, ""imgName"": ""/static/images/2kfaces/Google_1_Sara Guajardo_1_oval.jpg"", ""questions"": ""[{\""prompt\"":\""<p>How attractive does this person look to you? Rate from 1-9</p>\"",\""labels\"":[\""1 <br/>Not attractive at all\"",\""2\"",\""3\"",\""4\"",\""5\"",\""6\"",\""7\"",\""8\"",\""9  <br/>Extremely attractive\""],\""required\"":true}]"", ""task_unique_trial"": 50, ""task_name"": ""attractive"", ""trial_index"": 34, ""isRepeat"": 0}"
A2FLZP3C6U67JY:3JZQSN0I3SHSO3NG5ZJZLV1OI47GF0,35,1543385864448,"{""rt"": 4566, ""trial_type"": ""face-likert-amanda"", ""debug_mode"": ""live"", ""task_type"": ""face trials"", ""responses"": ""{\""Q0\"":4}"", ""task_payment"": 1, ""task_version"": 1, ""internal_node_id"": ""0.0-8.0-0.0-7.0"", ""time_elapsed"": 658526, ""imgName"": ""/static/images/2kfaces/Google_1_Antonio Benn_12_oval.jpg"", ""questions"": ""[{\""prompt\"":\""<p>How attractive does this person look to you? Rate from 1-9</p>\"",\""labels\"":[\""1 <br/>Not attractive at all\"",\""2\"",\""3\"",\""4\"",\""5\"",\""6\"",\""7\"",\""8\"",\""9  <br/>Extremely attractive\""],\""required\"":true}]"", ""task_unique_trial"": 50, ""task_name"": ""attractive"", ""trial_index"": 35, ""isRepeat"": 0}"
A2FLZP3C6U67JY:3JZQSN0I3SHSO3NG5ZJZLV1OI47GF0,36,1543385867690,"{""rt"": 3238, ""trial_type"": ""face-likert-amanda"", ""debug_mode"": ""live"", ""task_type"": ""face trials"", ""responses"": ""{\""Q0\"":1}"", ""task_payment"": 1, ""task_version"": 1, ""internal_node_id"": ""0.0-8.0-0.0-8.0"", ""time_elapsed"": 661768, ""imgName"": ""/static/images/2kfaces/Google_1_Claudia Rohrer_13_oval.jpg"", ""questions"": ""[{\""prompt\"":\""<p>How attractive does this person look to you? Rate from 1-9</p>\"",\""labels\"":[\""1 <br/>Not attractive at all\"",\""2\"",\""3\"",\""4\"",\""5\"",\""6\"",\""7\"",\""8\"",\""9  <br/>Extremely attractive\""],\""required\"":true}]"", ""task_unique_trial"": 50, ""task_name"": ""attractive"", ""trial_index"": 36, ""isRepeat"": 0}"
A2FLZP3C6U67JY:3JZQSN0I3SHSO3NG5ZJZLV1OI47GF0,37,1543385870513,"{""rt"": 2821, ""trial_type"": ""face-likert-amanda"", ""debug_mode"": ""live"", ""task_type"": ""face trials"", ""responses"": ""{\""Q0\"":4}"", ""task_payment"": 1, ""task_version"": 1, ""internal_node_id"": ""0.0-8.0-0.0-9.0"", ""time_elapsed"": 664591, ""imgName"": ""/static/images/2kfaces/Google_1_Eric Osuna_3_oval.jpg"", ""questions"": ""[{\""prompt\"":\""<p>How attractive does this person look to you? Rate from 1-9</p>\"",\""labels\"":[\""1 <br/>Not attractive at all\"",\""2\"",\""3\"",\""4\"",\""5\"",\""6\"",\""7\"",\""8\"",\""9  <br/>Extremely attractive\""],\""required\"":true}]"", ""task_unique_trial"": 50, ""task_name"": ""attractive"", ""trial_index"": 37, ""isRepeat"": 0}"
A2FLZP3C6U67JY:3JZQSN0I3SHSO3NG5ZJZLV1OI47GF0,38,1543385871515,"{""rt"": null, ""trial_type"": ""html-keyboard-response"", ""task_unique_trial"": 50, ""stimulus"": ""<p>Good job!</p>"", ""task_version"": 1, ""internal_node_id"": ""0.0-8.0-1.0"", ""task_payment"": 1, ""time_elapsed"": 665593, ""debug_mode"": ""live"", ""key_press"": null, ""task_name"": ""attractive"", ""trial_index"": 38}"
A2FLZP3C6U67JY:3JZQSN0I3SHSO3NG5ZJZLV1OI47GF0,39,1543385873901,"{""rt"": 2384, ""trial_type"": ""face-likert-amanda"", ""debug_mode"": ""live"", ""task_type"": ""face trials"", ""responses"": ""{\""Q0\"":3}"", ""task_payment"": 1, ""task_version"": 1, ""internal_node_id"": ""0.0-9.0-0.0-0.0"", ""time_elapsed"": 667979, ""imgName"": ""/static/images/2kfaces/Google_1_Gloria Canada_13_oval.jpg"", ""questions"": ""[{\""prompt\"":\""<p>How attractive does this person look to you? Rate from 1-9</p>\"",\""labels\"":[\""1 <br/>Not attractive at all\"",\""2\"",\""3\"",\""4\"",\""5\"",\""6\"",\""7\"",\""8\"",\""9  <br/>Extremely attractive\""],\""required\"":true}]"", ""task_unique_trial"": 50, ""task_name"": ""attractive"", ""trial_index"": 39, ""isRepeat"": 0}"
A2FLZP3C6U67JY:3JZQSN0I3SHSO3NG5ZJZLV1OI47GF0,40,1543385876929,"{""rt"": 3025, ""trial_type"": ""face-likert-amanda"", ""debug_mode"": ""live"", ""task_type"": ""face trials"", ""responses"": ""{\""Q0\"":4}"", ""task_payment"": 1, ""task_version"": 1, ""internal_node_id"": ""0.0-9.0-0.0-1.0"", ""time_elapsed"": 671007, ""imgName"": ""/static/images/2kfaces/Google_1_Donna Asberry_5_oval.jpg"", ""questions"": ""[{\""prompt\"":\""<p>How attractive does this person look to you? Rate from 1-9</p>\"",\""labels\"":[\""1 <br/>Not attractive at all\"",\""2\"",\""3\"",\""4\"",\""5\"",\""6\"",\""7\"",\""8\"",\""9  <br/>Extremely attractive\""],\""required\"":true}]"", ""task_unique_trial"": 50, ""task_name"": ""attractive"", ""trial_index"": 40, ""isRepeat"": 0}"
A2FLZP3C6U67JY:3JZQSN0I3SHSO3NG5ZJZLV1OI47GF0,41,1543385879385,"{""rt"": 2454, ""trial_type"": ""face-likert-amanda"", ""debug_mode"": ""live"", ""task_type"": ""face trials"", ""responses"": ""{\""Q0\"":3}"", ""task_payment"": 1, ""task_version"": 1, ""internal_node_id"": ""0.0-9.0-0.0-2.0"", ""time_elapsed"": 673463, ""imgName"": ""/static/images/2kfaces/Google_1_Frank Whitehouse_3_oval.jpg"", ""questions"": ""[{\""prompt\"":\""<p>How attractive does this person look to you? Rate from 1-9</p>\"",\""labels\"":[\""1 <br/>Not attractive at all\"",\""2\"",\""3\"",\""4\"",\""5\"",\""6\"",\""7\"",\""8\"",\""9  <br/>Extremely attractive\""],\""required\"":true}]"", ""task_unique_trial"": 50, ""task_name"": ""attractive"", ""trial_index"": 41, ""isRepeat"": 0}"
A2FLZP3C6U67JY:3JZQSN0I3SHSO3NG5ZJZLV1OI47GF0,42,1543385882433,"{""rt"": 3045, ""trial_type"": ""face-likert-amanda"", ""debug_mode"": ""live"", ""task_type"": ""face trials"", ""responses"": ""{\""Q0\"":2}"", ""task_payment"": 1, ""task_version"": 1, ""internal_node_id"": ""0.0-9.0-0.0-3.0"", ""time_elapsed"": 676511, ""imgName"": ""/static/images/2kfaces/Google_1_Samuel Paschal_17_oval.jpg"", ""questions"": ""[{\""prompt\"":\""<p>How attractive does this person look to you? Rate from 1-9</p>\"",\""labels\"":[\""1 <br/>Not attractive at all\"",\""2\"",\""3\"",\""4\"",\""5\"",\""6\"",\""7\"",\""8\"",\""9  <br/>Extremely attractive\""],\""required\"":true}]"", ""task_unique_trial"": 50, ""task_name"": ""attractive"", ""trial_index"": 42, ""isRepeat"": 0}"
A2FLZP3C6U67JY:3JZQSN0I3SHSO3NG5ZJZLV1OI47GF0,43,1543385884585,"{""rt"": 2150, ""trial_type"": ""face-likert-amanda"", ""debug_mode"": ""live"", ""task_type"": ""face trials"", ""responses"": ""{\""Q0\"":3}"", ""task_payment"": 1, ""task_version"": 1, ""internal_node_id"": ""0.0-9.0-0.0-4.0"", ""time_elapsed"": 678662, ""imgName"": ""/static/images/2kfaces/Google_1_Eva Kirkman_15_oval.jpg"", ""questions"": ""[{\""prompt\"":\""<p>How attractive does this person look to you? Rate from 1-9</p>\"",\""labels\"":[\""1 <br/>Not attractive at all\"",\""2\"",\""3\"",\""4\"",\""5\"",\""6\"",\""7\"",\""8\"",\""9  <br/>Extremely attractive\""],\""required\"":true}]"", ""task_unique_trial"": 50, ""task_name"": ""attractive"", ""trial_index"": 43, ""isRepeat"": 0}"
A2FLZP3C6U67JY:3JZQSN0I3SHSO3NG5ZJZLV1OI47GF0,44,1543385886872,"{""rt"": 2286, ""trial_type"": ""face-likert-amanda"", ""debug_mode"": ""live"", ""task_type"": ""face trials"", ""responses"": ""{\""Q0\"":4}"", ""task_payment"": 1, ""task_version"": 1, ""internal_node_id"": ""0.0-9.0-0.0-5.0"", ""time_elapsed"": 680950, ""imgName"": ""/static/images/2kfaces/Google_1_Timothy Galvan_11_oval.jpg"", ""questions"": ""[{\""prompt\"":\""<p>How attractive does this person look to you? Rate from 1-9</p>\"",\""labels\"":[\""1 <br/>Not attractive at all\"",\""2\"",\""3\"",\""4\"",\""5\"",\""6\"",\""7\"",\""8\"",\""9  <br/>Extremely attractive\""],\""required\"":true}]"", ""task_unique_trial"": 50, ""task_name"": ""attractive"", ""trial_index"": 44, ""isRepeat"": 0}"
A2FLZP3C6U67JY:3JZQSN0I3SHSO3NG5ZJZLV1OI47GF0,45,1543385889617,"{""rt"": 2742, ""trial_type"": ""face-likert-amanda"", ""debug_mode"": ""live"", ""task_type"": ""face trials"", ""responses"": ""{\""Q0\"":4}"", ""task_payment"": 1, ""task_version"": 1, ""internal_node_id"": ""0.0-9.0-0.0-6.0"", ""time_elapsed"": 683694, ""imgName"": ""/static/images/2kfaces/Google_1_Bryan Brunner_3_oval.jpg"", ""questions"": ""[{\""prompt\"":\""<p>How attractive does this person look to you? Rate from 1-9</p>\"",\""labels\"":[\""1 <br/>Not attractive at all\"",\""2\"",\""3\"",\""4\"",\""5\"",\""6\"",\""7\"",\""8\"",\""9  <br/>Extremely attractive\""],\""required\"":true}]"", ""task_unique_trial"": 50, ""task_name"": ""attractive"", ""trial_index"": 45, ""isRepeat"": 0}"
A2FLZP3C6U67JY:3JZQSN0I3SHSO3NG5ZJZLV1OI47GF0,46,1543385892137,"{""rt"": 2518, ""trial_type"": ""face-likert-amanda"", ""debug_mode"": ""live"", ""task_type"": ""face trials"", ""responses"": ""{\""Q0\"":4}"", ""task_payment"": 1, ""task_version"": 1, ""internal_node_id"": ""0.0-9.0-0.0-7.0"", ""time_elapsed"": 686215, ""imgName"": ""/static/images/2kfaces/Google_1_Matthew Vanbuskirk_1_oval.jpg"", ""questions"": ""[{\""prompt\"":\""<p>How attractive does this person look to you? Rate from 1-9</p>\"",\""labels\"":[\""1 <br/>Not attractive at all\"",\""2\"",\""3\"",\""4\"",\""5\"",\""6\"",\""7\"",\""8\"",\""9  <br/>Extremely attractive\""],\""required\"":true}]"", ""task_unique_trial"": 50, ""task_name"": ""attractive"", ""trial_index"": 46, ""isRepeat"": 0}"
A2FLZP3C6U67JY:3JZQSN0I3SHSO3NG5ZJZLV1OI47GF0,47,1543385894665,"{""rt"": 2527, ""trial_type"": ""face-likert-amanda"", ""debug_mode"": ""live"", ""task_type"": ""face trials"", ""responses"": ""{\""Q0\"":5}"", ""task_payment"": 1, ""task_version"": 1, ""internal_node_id"": ""0.0-9.0-0.0-8.0"", ""time_elapsed"": 688743, ""imgName"": ""/static/images/2kfaces/Google_1_Ernest Crump_3_oval.jpg"", ""questions"": ""[{\""prompt\"":\""<p>How attractive does this person look to you? Rate from 1-9</p>\"",\""labels\"":[\""1 <br/>Not attractive at all\"",\""2\"",\""3\"",\""4\"",\""5\"",\""6\"",\""7\"",\""8\"",\""9  <br/>Extremely attractive\""],\""required\"":true}]"", ""task_unique_trial"": 50, ""task_name"": ""attractive"", ""trial_index"": 47, ""isRepeat"": 0}"
A2FLZP3C6U67JY:3JZQSN0I3SHSO3NG5ZJZLV1OI47GF0,48,1543385896809,"{""rt"": 2143, ""trial_type"": ""face-likert-amanda"", ""debug_mode"": ""live"", ""task_type"": ""face trials"", ""responses"": ""{\""Q0\"":3}"", ""task_payment"": 1, ""task_version"": 1, ""internal_node_id"": ""0.0-9.0-0.0-9.0"", ""time_elapsed"": 690887, ""imgName"": ""/static/images/2kfaces/Google_1_Louis Mceachern_7_oval.jpg"", ""questions"": ""[{\""prompt\"":\""<p>How attractive does this person look to you? Rate from 1-9</p>\"",\""labels\"":[\""1 <br/>Not attractive at all\"",\""2\"",\""3\"",\""4\"",\""5\"",\""6\"",\""7\"",\""8\"",\""9  <br/>Extremely attractive\""],\""required\"":true}]"", ""task_unique_trial"": 50, ""task_name"": ""attractive"", ""trial_index"": 48, ""isRepeat"": 0}"
A2FLZP3C6U67JY:3JZQSN0I3SHSO3NG5ZJZLV1OI47GF0,49,1543385898810,"{""rt"": null, ""trial_type"": ""html-keyboard-response"", ""task_unique_trial"": 50, ""stimulus"": ""<p>Good job!</p>"", ""task_version"": 1, ""internal_node_id"": ""0.0-9.0-1.0"", ""task_payment"": 1, ""time_elapsed"": 692888, ""debug_mode"": ""live"", ""key_press"": null, ""task_name"": ""attractive"", ""trial_index"": 49}"
A2FLZP3C6U67JY:3JZQSN0I3SHSO3NG5ZJZLV1OI47GF0,50,1543385902569,"{""rt"": 3756, ""trial_type"": ""face-likert-amanda"", ""debug_mode"": ""live"", ""task_type"": ""face trials"", ""responses"": ""{\""Q0\"":5}"", ""task_payment"": 1, ""task_version"": 1, ""internal_node_id"": ""0.0-10.0-0.0-0.0"", ""time_elapsed"": 696647, ""imgName"": ""/static/images/2kfaces/Google_1_Kathleen Sartain_1_oval.jpg"", ""questions"": ""[{\""prompt\"":\""<p>How attractive does this person look to you? Rate from 1-9</p>\"",\""labels\"":[\""1 <br/>Not attractive at all\"",\""2\"",\""3\"",\""4\"",\""5\"",\""6\"",\""7\"",\""8\"",\""9  <br/>Extremely attractive\""],\""required\"":true}]"", ""task_unique_trial"": 50, ""task_name"": ""attractive"", ""trial_index"": 50, ""isRepeat"": 0}"
A2FLZP3C6U67JY:3JZQSN0I3SHSO3NG5ZJZLV1OI47GF0,51,1543385905770,"{""rt"": 3198, ""trial_type"": ""face-likert-amanda"", ""debug_mode"": ""live"", ""task_type"": ""face trials"", ""responses"": ""{\""Q0\"":3}"", ""task_payment"": 1, ""task_version"": 1, ""internal_node_id"": ""0.0-10.0-0.0-1.0"", ""time_elapsed"": 699848, ""imgName"": ""/static/images/2kfaces/Google_1_Andrew Diggs_9_oval.jpg"", ""questions"": ""[{\""prompt\"":\""<p>How attractive does this person look to you? Rate from 1-9</p>\"",\""labels\"":[\""1 <br/>Not attractive at all\"",\""2\"",\""3\"",\""4\"",\""5\"",\""6\"",\""7\"",\""8\"",\""9  <br/>Extremely attractive\""],\""required\"":true}]"", ""task_unique_trial"": 50, ""task_name"": ""attractive"", ""trial_index"": 51, ""isRepeat"": 0}"
A2FLZP3C6U67JY:3JZQSN0I3SHSO3NG5ZJZLV1OI47GF0,52,1543385908145,"{""rt"": 2372, ""trial_type"": ""face-likert-amanda"", ""debug_mode"": ""live"", ""task_type"": ""face trials"", ""responses"": ""{\""Q0\"":4}"", ""task_payment"": 1, ""task_version"": 1, ""internal_node_id"": ""0.0-10.0-0.0-2.0"", ""time_elapsed"": 702223, ""imgName"": ""/static/images/2kfaces/Google_1_Kenneth Cabral_19_oval.jpg"", ""questions"": ""[{\""prompt\"":\""<p>How attractive does this person look to you? Rate from 1-9</p>\"",\""labels\"":[\""1 <br/>Not attractive at all\"",\""2\"",\""3\"",\""4\"",\""5\"",\""6\"",\""7\"",\""8\"",\""9  <br/>Extremely attractive\""],\""required\"":true}]"", ""task_unique_trial"": 50, ""task_name"": ""attractive"", ""trial_index"": 52, ""isRepeat"": 0}"
A2FLZP3C6U67JY:3JZQSN0I3SHSO3NG5ZJZLV1OI47GF0,53,1543385910552,"{""rt"": 2406, ""trial_type"": ""face-likert-amanda"", ""debug_mode"": ""live"", ""task_type"": ""face trials"", ""responses"": ""{\""Q0\"":4}"", ""task_payment"": 1, ""task_version"": 1, ""internal_node_id"": ""0.0-10.0-0.0-3.0"", ""time_elapsed"": 704630, ""imgName"": ""/static/images/2kfaces/Google_1_Tina Middleton_7_oval.jpg"", ""questions"": ""[{\""prompt\"":\""<p>How attractive does this person look to you? Rate from 1-9</p>\"",\""labels\"":[\""1 <br/>Not attractive at all\"",\""2\"",\""3\"",\""4\"",\""5\"",\""6\"",\""7\"",\""8\"",\""9  <br/>Extremely attractive\""],\""required\"":true}]"", ""task_unique_trial"": 50, ""task_name"": ""attractive"", ""trial_index"": 53, ""isRepeat"": 0}"
A2FLZP3C6U67JY:3JZQSN0I3SHSO3NG5ZJZLV1OI47GF0,54,1543385913249,"{""rt"": 2695, ""trial_type"": ""face-likert-amanda"", ""debug_mode"": ""live"", ""task_type"": ""face trials"", ""responses"": ""{\""Q0\"":6}"", ""task_payment"": 1, ""task_version"": 1, ""internal_node_id"": ""0.0-10.0-0.0-4.0"", ""time_elapsed"": 707327, ""imgName"": ""/static/images/2kfaces/Google_1_Erika Fletcher_1_oval.jpg"", ""questions"": ""[{\""prompt\"":\""<p>How attractive does this person look to you? Rate from 1-9</p>\"",\""labels\"":[\""1 <br/>Not attractive at all\"",\""2\"",\""3\"",\""4\"",\""5\"",\""6\"",\""7\"",\""8\"",\""9  <br/>Extremely attractive\""],\""required\"":true}]"", ""task_unique_trial"": 50, ""task_name"": ""attractive"", ""trial_index"": 54, ""isRepeat"": 0}"
A2FLZP3C6U67JY:3JZQSN0I3SHSO3NG5ZJZLV1OI47GF0,55,1543385915410,"{""rt"": 2157, ""trial_type"": ""face-likert-amanda"", ""debug_mode"": ""live"", ""task_type"": ""face trials"", ""responses"": ""{\""Q0\"":4}"", ""task_payment"": 1, ""task_version"": 1, ""internal_node_id"": ""0.0-10.0-0.0-5.0"", ""time_elapsed"": 709488, ""imgName"": ""/static/images/2kfaces/Google_1_Douglas Tanguay_9_oval.jpg"", ""questions"": ""[{\""prompt\"":\""<p>How attractive does this person look to you? Rate from 1-9</p>\"",\""labels\"":[\""1 <br/>Not attractive at all\"",\""2\"",\""3\"",\""4\"",\""5\"",\""6\"",\""7\"",\""8\"",\""9  <br/>Extremely attractive\""],\""required\"":true}]"", ""task_unique_trial"": 50, ""task_name"": ""attractive"", ""trial_index"": 55, ""isRepeat"": 0}"
A2FLZP3C6U67JY:3JZQSN0I3SHSO3NG5ZJZLV1OI47GF0,56,1543385918248,"{""rt"": 2837, ""trial_type"": ""face-likert-amanda"", ""debug_mode"": ""live"", ""task_type"": ""face trials"", ""responses"": ""{\""Q0\"":7}"", ""task_payment"": 1, ""task_version"": 1, ""internal_node_id"": ""0.0-10.0-0.0-6.0"", ""time_elapsed"": 712326, ""imgName"": ""/static/images/2kfaces/Google_1_Cheryl Griffin_15_oval.jpg"", ""questions"": ""[{\""prompt\"":\""<p>How attractive does this person look to you? Rate from 1-9</p>\"",\""labels\"":[\""1 <br/>Not attractive at all\"",\""2\"",\""3\"",\""4\"",\""5\"",\""6\"",\""7\"",\""8\"",\""9  <br/>Extremely attractive\""],\""required\"":true}]"", ""task_unique_trial"": 50, ""task_name"": ""attractive"", ""trial_index"": 56, ""isRepeat"": 0}"
A2FLZP3C6U67JY:3JZQSN0I3SHSO3NG5ZJZLV1OI47GF0,57,1543385921641,"{""rt"": 3390, ""trial_type"": ""face-likert-amanda"", ""debug_mode"": ""live"", ""task_type"": ""face trials"", ""responses"": ""{\""Q0\"":3}"", ""task_payment"": 1, ""task_version"": 1, ""internal_node_id"": ""0.0-10.0-0.0-7.0"", ""time_elapsed"": 715719, ""imgName"": ""/static/images/2kfaces/Google_1_Paul Reno_1_oval.jpg"", ""questions"": ""[{\""prompt\"":\""<p>How attractive does this person look to you? Rate from 1-9</p>\"",\""labels\"":[\""1 <br/>Not attractive at all\"",\""2\"",\""3\"",\""4\"",\""5\"",\""6\"",\""7\"",\""8\"",\""9  <br/>Extremely attractive\""],\""required\"":true}]"", ""task_unique_trial"": 50, ""task_name"": ""attractive"", ""trial_index"": 57, ""isRepeat"": 0}"
A2FLZP3C6U67JY:3JZQSN0I3SHSO3NG5ZJZLV1OI47GF0,58,1543385923664,"{""rt"": 2022, ""trial_type"": ""face-likert-amanda"", ""debug_mode"": ""live"", ""task_type"": ""face trials"", ""responses"": ""{\""Q0\"":3}"", ""task_payment"": 1, ""task_version"": 1, ""internal_node_id"": ""0.0-10.0-0.0-8.0"", ""time_elapsed"": 717742, ""imgName"": ""/static/images/2kfaces/Google_1_Gary Perri_3_oval.jpg"", ""questions"": ""[{\""prompt\"":\""<p>How attractive does this person look to you? Rate from 1-9</p>\"",\""labels\"":[\""1 <br/>Not attractive at all\"",\""2\"",\""3\"",\""4\"",\""5\"",\""6\"",\""7\"",\""8\"",\""9  <br/>Extremely attractive\""],\""required\"":true}]"", ""task_unique_trial"": 50, ""task_name"": ""attractive"", ""trial_index"": 58, ""isRepeat"": 0}"
A2FLZP3C6U67JY:3JZQSN0I3SHSO3NG5ZJZLV1OI47GF0,59,1543385925808,"{""rt"": 2143, ""trial_type"": ""face-likert-amanda"", ""debug_mode"": ""live"", ""task_type"": ""face trials"", ""responses"": ""{\""Q0\"":3}"", ""task_payment"": 1, ""task_version"": 1, ""internal_node_id"": ""0.0-10.0-0.0-9.0"", ""time_elapsed"": 719886, ""imgName"": ""/static/images/2kfaces/Google_1_Cindy Morehead_5_oval.jpg"", ""questions"": ""[{\""prompt\"":\""<p>How attractive does this person look to you? Rate from 1-9</p>\"",\""labels\"":[\""1 <br/>Not attractive at all\"",\""2\"",\""3\"",\""4\"",\""5\"",\""6\"",\""7\"",\""8\"",\""9  <br/>Extremely attractive\""],\""required\"":true}]"", ""task_unique_trial"": 50, ""task_name"": ""attractive"", ""trial_index"": 59, ""isRepeat"": 0}"
A2FLZP3C6U67JY:3JZQSN0I3SHSO3NG5ZJZLV1OI47GF0,60,1543385927810,"{""rt"": null, ""trial_type"": ""html-keyboard-response"", ""task_unique_trial"": 50, ""stimulus"": ""<p>Good job!</p>"", ""task_version"": 1, ""internal_node_id"": ""0.0-10.0-1.0"", ""task_payment"": 1, ""time_elapsed"": 721888, ""debug_mode"": ""live"", ""key_press"": null, ""task_name"": ""attractive"", ""trial_index"": 60}"
A2FLZP3C6U67JY:3JZQSN0I3SHSO3NG5ZJZLV1OI47GF0,61,1543385932811,"{""rt"": null, ""trial_type"": ""html-keyboard-response"", ""task_unique_trial"": 50, ""stimulus"": ""<p>Enjoy a 5 seconds break :)</p>"", ""task_version"": 1, ""internal_node_id"": ""0.0-11.0"", ""task_payment"": 1, ""time_elapsed"": 726889, ""debug_mode"": ""live"", ""key_press"": null, ""task_name"": ""attractive"", ""trial_index"": 61}"
A2FLZP3C6U67JY:3JZQSN0I3SHSO3NG5ZJZLV1OI47GF0,62,1543385935847,"{""rt"": 3034, ""trial_type"": ""face-likert-amanda"", ""debug_mode"": ""live"", ""task_type"": ""empty face"", ""responses"": ""{\""Q0\"":4}"", ""task_payment"": 1, ""task_version"": 1, ""internal_node_id"": ""0.0-12.0"", ""time_elapsed"": 729925, ""imgName"": ""/static/images/faces/empty-image-1.jpg"", ""questions"": ""[{\""prompt\"":\""<p>How attractive does this person look to you? Rate from 1-9</p>\"",\""labels\"":[\""1 <br/>Not attractive at all\"",\""2\"",\""3\"",\""4\"",\""5\"",\""6\"",\""7\"",\""8\"",\""9  <br/>Extremely attractive\""],\""required\"":true}]"", ""task_unique_trial"": 50, ""task_name"": ""attractive"", ""trial_index"": 62, ""isRepeat"": 1}"
A2FLZP3C6U67JY:3JZQSN0I3SHSO3NG5ZJZLV1OI47GF0,63,1543385937944,"{""rt"": 2094, ""trial_type"": ""face-likert-amanda"", ""debug_mode"": ""live"", ""task_type"": ""face trials"", ""responses"": ""{\""Q0\"":4}"", ""task_payment"": 1, ""task_version"": 1, ""internal_node_id"": ""0.0-13.0-0.0-0.0"", ""time_elapsed"": 732022, ""imgName"": ""/static/images/2kfaces/Google_1_Jonathan Marek_5_oval.jpg"", ""questions"": ""[{\""prompt\"":\""<p>How attractive does this person look to you? Rate from 1-9</p>\"",\""labels\"":[\""1 <br/>Not attractive at all\"",\""2\"",\""3\"",\""4\"",\""5\"",\""6\"",\""7\"",\""8\"",\""9  <br/>Extremely attractive\""],\""required\"":true}]"", ""task_unique_trial"": 50, ""task_name"": ""attractive"", ""trial_index"": 63, ""isRepeat"": 1}"
A2FLZP3C6U67JY:3JZQSN0I3SHSO3NG5ZJZLV1OI47GF0,64,1543385942896,"{""rt"": 4950, ""trial_type"": ""face-likert-amanda"", ""debug_mode"": ""live"", ""task_type"": ""face trials"", ""responses"": ""{\""Q0\"":6}"", ""task_payment"": 1, ""task_version"": 1, ""internal_node_id"": ""0.0-13.0-0.0-1.0"", ""time_elapsed"": 736974, ""imgName"": ""/static/images/2kfaces/Google_1_Steve Stamm_1_oval.jpg"", ""questions"": ""[{\""prompt\"":\""<p>How attractive does this person look to you? Rate from 1-9</p>\"",\""labels\"":[\""1 <br/>Not attractive at all\"",\""2\"",\""3\"",\""4\"",\""5\"",\""6\"",\""7\"",\""8\"",\""9  <br/>Extremely attractive\""],\""required\"":true}]"", ""task_unique_trial"": 50, ""task_name"": ""attractive"", ""trial_index"": 64, ""isRepeat"": 1}"
A2FLZP3C6U67JY:3JZQSN0I3SHSO3NG5ZJZLV1OI47GF0,65,1543385945392,"{""rt"": 2493, ""trial_type"": ""face-likert-amanda"", ""debug_mode"": ""live"", ""task_type"": ""face trials"", ""responses"": ""{\""Q0\"":5}"", ""task_payment"": 1, ""task_version"": 1, ""internal_node_id"": ""0.0-13.0-0.0-2.0"", ""time_elapsed"": 739470, ""imgName"": ""/static/images/2kfaces/Google_1_Kathleen Sartain_1_oval.jpg"", ""questions"": ""[{\""prompt\"":\""<p>How attractive does this person look to you? Rate from 1-9</p>\"",\""labels\"":[\""1 <br/>Not attractive at all\"",\""2\"",\""3\"",\""4\"",\""5\"",\""6\"",\""7\"",\""8\"",\""9  <br/>Extremely attractive\""],\""required\"":true}]"", ""task_unique_trial"": 50, ""task_name"": ""attractive"", ""trial_index"": 65, ""isRepeat"": 1}"
A2FLZP3C6U67JY:3JZQSN0I3SHSO3NG5ZJZLV1OI47GF0,66,1543385948520,"{""rt"": 3125, ""trial_type"": ""face-likert-amanda"", ""debug_mode"": ""live"", ""task_type"": ""face trials"", ""responses"": ""{\""Q0\"":4}"", ""task_payment"": 1, ""task_version"": 1, ""internal_node_id"": ""0.0-13.0-0.0-3.0"", ""time_elapsed"": 742598, ""imgName"": ""/static/images/2kfaces/Google_1_Timothy Galvan_11_oval.jpg"", ""questions"": ""[{\""prompt\"":\""<p>How attractive does this person look to you? Rate from 1-9</p>\"",\""labels\"":[\""1 <br/>Not attractive at all\"",\""2\"",\""3\"",\""4\"",\""5\"",\""6\"",\""7\"",\""8\"",\""9  <br/>Extremely attractive\""],\""required\"":true}]"", ""task_unique_trial"": 50, ""task_name"": ""attractive"", ""trial_index"": 66, ""isRepeat"": 1}"
A2FLZP3C6U67JY:3JZQSN0I3SHSO3NG5ZJZLV1OI47GF0,67,1543385951104,"{""rt"": 2581, ""trial_type"": ""face-likert-amanda"", ""debug_mode"": ""live"", ""task_type"": ""face trials"", ""responses"": ""{\""Q0\"":5}"", ""task_payment"": 1, ""task_version"": 1, ""internal_node_id"": ""0.0-13.0-0.0-4.0"", ""time_elapsed"": 745182, ""imgName"": ""/static/images/2kfaces/Google_1_Carole Bentley_7_oval.jpg"", ""questions"": ""[{\""prompt\"":\""<p>How attractive does this person look to you? Rate from 1-9</p>\"",\""labels\"":[\""1 <br/>Not attractive at all\"",\""2\"",\""3\"",\""4\"",\""5\"",\""6\"",\""7\"",\""8\"",\""9  <br/>Extremely attractive\""],\""required\"":true}]"", ""task_unique_trial"": 50, ""task_name"": ""attractive"", ""trial_index"": 67, ""isRepeat"": 1}"
A2FLZP3C6U67JY:3JZQSN0I3SHSO3NG5ZJZLV1OI47GF0,68,1543385953266,"{""rt"": 2158, ""trial_type"": ""face-likert-amanda"", ""debug_mode"": ""live"", ""task_type"": ""face trials"", ""responses"": ""{\""Q0\"":4}"", ""task_payment"": 1, ""task_version"": 1, ""internal_node_id"": ""0.0-13.0-0.0-5.0"", ""time_elapsed"": 747342, ""imgName"": ""/static/images/2kfaces/Google_1_Eva Kirkman_15_oval.jpg"", ""questions"": ""[{\""prompt\"":\""<p>How attractive does this person look to you? Rate from 1-9</p>\"",\""labels\"":[\""1 <br/>Not attractive at all\"",\""2\"",\""3\"",\""4\"",\""5\"",\""6\"",\""7\"",\""8\"",\""9  <br/>Extremely attractive\""],\""required\"":true}]"", ""task_unique_trial"": 50, ""task_name"": ""attractive"", ""trial_index"": 68, ""isRepeat"": 1}"
A2FLZP3C6U67JY:3JZQSN0I3SHSO3NG5ZJZLV1OI47GF0,69,1543385957200,"{""rt"": 3933, ""trial_type"": ""face-likert-amanda"", ""debug_mode"": ""live"", ""task_type"": ""face trials"", ""responses"": ""{\""Q0\"":5}"", ""task_payment"": 1, ""task_version"": 1, ""internal_node_id"": ""0.0-13.0-0.0-6.0"", ""time_elapsed"": 751278, ""imgName"": ""/static/images/2kfaces/Google_1_Sarah Woodcock_3_oval.jpg"", ""questions"": ""[{\""prompt\"":\""<p>How attractive does this person look to you? Rate from 1-9</p>\"",\""labels\"":[\""1 <br/>Not attractive at all\"",\""2\"",\""3\"",\""4\"",\""5\"",\""6\"",\""7\"",\""8\"",\""9  <br/>Extremely attractive\""],\""required\"":true}]"", ""task_unique_trial"": 50, ""task_name"": ""attractive"", ""trial_index"": 69, ""isRepeat"": 1}"
A2FLZP3C6U67JY:3JZQSN0I3SHSO3NG5ZJZLV1OI47GF0,70,1543385960967,"{""rt"": 3765, ""trial_type"": ""face-likert-amanda"", ""debug_mode"": ""live"", ""task_type"": ""face trials"", ""responses"": ""{\""Q0\"":2}"", ""task_payment"": 1, ""task_version"": 1, ""internal_node_id"": ""0.0-13.0-0.0-7.0"", ""time_elapsed"": 755045, ""imgName"": ""/static/images/2kfaces/Google_1_Frank Luke_9_oval.jpg"", ""questions"": ""[{\""prompt\"":\""<p>How attractive does this person look to you? Rate from 1-9</p>\"",\""labels\"":[\""1 <br/>Not attractive at all\"",\""2\"",\""3\"",\""4\"",\""5\"",\""6\"",\""7\"",\""8\"",\""9  <br/>Extremely attractive\""],\""required\"":true}]"", ""task_unique_trial"": 50, ""task_name"": ""attractive"", ""trial_index"": 70, ""isRepeat"": 1}"
A2FLZP3C6U67JY:3JZQSN0I3SHSO3NG5ZJZLV1OI47GF0,71,1543385966295,"{""rt"": 5325, ""trial_type"": ""face-likert-amanda"", ""debug_mode"": ""live"", ""task_type"": ""face trials"", ""responses"": ""{\""Q0\"":5}"", ""task_payment"": 1, ""task_version"": 1, ""internal_node_id"": ""0.0-13.0-0.0-8.0"", ""time_elapsed"": 760372, ""imgName"": ""/static/images/2kfaces/Google_1_Gary Nance_3_oval.jpg"", ""questions"": ""[{\""prompt\"":\""<p>How attractive does this person look to you? Rate from 1-9</p>\"",\""labels\"":[\""1 <br/>Not attractive at all\"",\""2\"",\""3\"",\""4\"",\""5\"",\""6\"",\""7\"",\""8\"",\""9  <br/>Extremely attractive\""],\""required\"":true}]"", ""task_unique_trial"": 50, ""task_name"": ""attractive"", ""trial_index"": 71, ""isRepeat"": 1}"
A2FLZP3C6U67JY:3JZQSN0I3SHSO3NG5ZJZLV1OI47GF0,72,1543385969048,"{""rt"": 2751, ""trial_type"": ""face-likert-amanda"", ""debug_mode"": ""live"", ""task_type"": ""face trials"", ""responses"": ""{\""Q0\"":7}"", ""task_payment"": 1, ""task_version"": 1, ""internal_node_id"": ""0.0-13.0-0.0-9.0"", ""time_elapsed"": 763126, ""imgName"": ""/static/images/2kfaces/Google_1_Alma Poor_7_oval.jpg"", ""questions"": ""[{\""prompt\"":\""<p>How attractive does this person look to you? Rate from 1-9</p>\"",\""labels\"":[\""1 <br/>Not attractive at all\"",\""2\"",\""3\"",\""4\"",\""5\"",\""6\"",\""7\"",\""8\"",\""9  <br/>Extremely attractive\""],\""required\"":true}]"", ""task_unique_trial"": 50, ""task_name"": ""attractive"", ""trial_index"": 72, ""isRepeat"": 1}"
A2FLZP3C6U67JY:3JZQSN0I3SHSO3NG5ZJZLV1OI47GF0,73,1543385971051,"{""rt"": null, ""trial_type"": ""html-keyboard-response"", ""task_unique_trial"": 50, ""stimulus"": ""<p>Good job!</p>"", ""task_version"": 1, ""internal_node_id"": ""0.0-13.0-1.0"", ""task_payment"": 1, ""time_elapsed"": 765129, ""debug_mode"": ""live"", ""key_press"": null, ""task_name"": ""attractive"", ""trial_index"": 73}"
A2FLZP3C6U67JY:3JZQSN0I3SHSO3NG5ZJZLV1OI47GF0,74,1543385973907,"{""rt"": 2854, ""trial_type"": ""face-likert-amanda"", ""debug_mode"": ""live"", ""task_type"": ""face trials"", ""responses"": ""{\""Q0\"":3}"", ""task_payment"": 1, ""task_version"": 1, ""internal_node_id"": ""0.0-14.0-0.0-0.0"", ""time_elapsed"": 767985, ""imgName"": ""/static/images/2kfaces/Google_1_Gary Perri_3_oval.jpg"", ""questions"": ""[{\""prompt\"":\""<p>How attractive does this person look to you? Rate from 1-9</p>\"",\""labels\"":[\""1 <br/>Not attractive at all\"",\""2\"",\""3\"",\""4\"",\""5\"",\""6\"",\""7\"",\""8\"",\""9  <br/>Extremely attractive\""],\""required\"":true}]"", ""task_unique_trial"": 50, ""task_name"": ""attractive"", ""trial_index"": 74, ""isRepeat"": 1}"
A2FLZP3C6U67JY:3JZQSN0I3SHSO3NG5ZJZLV1OI47GF0,75,1543385976785,"{""rt"": 2876, ""trial_type"": ""face-likert-amanda"", ""debug_mode"": ""live"", ""task_type"": ""face trials"", ""responses"": ""{\""Q0\"":4}"", ""task_payment"": 1, ""task_version"": 1, ""internal_node_id"": ""0.0-14.0-0.0-1.0"", ""time_elapsed"": 770863, ""imgName"": ""/static/images/2kfaces/Google_1_Antonio Benn_12_oval.jpg"", ""questions"": ""[{\""prompt\"":\""<p>How attractive does this person look to you? Rate from 1-9</p>\"",\""labels\"":[\""1 <br/>Not attractive at all\"",\""2\"",\""3\"",\""4\"",\""5\"",\""6\"",\""7\"",\""8\"",\""9  <br/>Extremely attractive\""],\""required\"":true}]"", ""task_unique_trial"": 50, ""task_name"": ""attractive"", ""trial_index"": 75, ""isRepeat"": 1}"
A2FLZP3C6U67JY:3JZQSN0I3SHSO3NG5ZJZLV1OI47GF0,76,1543385979376,"{""rt"": 2589, ""trial_type"": ""face-likert-amanda"", ""debug_mode"": ""live"", ""task_type"": ""face trials"", ""responses"": ""{\""Q0\"":2}"", ""task_payment"": 1, ""task_version"": 1, ""internal_node_id"": ""0.0-14.0-0.0-2.0"", ""time_elapsed"": 773454, ""imgName"": ""/static/images/2kfaces/Google_1_Gertrude Bayne_11_oval.jpg"", ""questions"": ""[{\""prompt\"":\""<p>How attractive does this person look to you? Rate from 1-9</p>\"",\""labels\"":[\""1 <br/>Not attractive at all\"",\""2\"",\""3\"",\""4\"",\""5\"",\""6\"",\""7\"",\""8\"",\""9  <br/>Extremely attractive\""],\""required\"":true}]"", ""task_unique_trial"": 50, ""task_name"": ""attractive"", ""trial_index"": 76, ""isRepeat"": 1}"
A2FLZP3C6U67JY:3JZQSN0I3SHSO3NG5ZJZLV1OI47GF0,77,1543385981624,"{""rt"": 2246, ""trial_type"": ""face-likert-amanda"", ""debug_mode"": ""live"", ""task_type"": ""face trials"", ""responses"": ""{\""Q0\"":4}"", ""task_payment"": 1, ""task_version"": 1, ""internal_node_id"": ""0.0-14.0-0.0-3.0"", ""time_elapsed"": 775702, ""imgName"": ""/static/images/2kfaces/Google_1_Tina Middleton_7_oval.jpg"", ""questions"": ""[{\""prompt\"":\""<p>How attractive does this person look to you? Rate from 1-9</p>\"",\""labels\"":[\""1 <br/>Not attractive at all\"",\""2\"",\""3\"",\""4\"",\""5\"",\""6\"",\""7\"",\""8\"",\""9  <br/>Extremely attractive\""],\""required\"":true}]"", ""task_unique_trial"": 50, ""task_name"": ""attractive"", ""trial_index"": 77, ""isRepeat"": 1}"
A2FLZP3C6U67JY:3JZQSN0I3SHSO3NG5ZJZLV1OI47GF0,78,1543385984088,"{""rt"": 2463, ""trial_type"": ""face-likert-amanda"", ""debug_mode"": ""live"", ""task_type"": ""face trials"", ""responses"": ""{\""Q0\"":2}"", ""task_payment"": 1, ""task_version"": 1, ""internal_node_id"": ""0.0-14.0-0.0-4.0"", ""time_elapsed"": 778166, ""imgName"": ""/static/images/2kfaces/Google_1_Samuel Goff_1_oval.jpg"", ""questions"": ""[{\""prompt\"":\""<p>How attractive does this person look to you? Rate from 1-9</p>\"",\""labels\"":[\""1 <br/>Not attractive at all\"",\""2\"",\""3\"",\""4\"",\""5\"",\""6\"",\""7\"",\""8\"",\""9  <br/>Extremely attractive\""],\""required\"":true}]"", ""task_unique_trial"": 50, ""task_name"": ""attractive"", ""trial_index"": 78, ""isRepeat"": 1}"
A2FLZP3C6U67JY:3JZQSN0I3SHSO3NG5ZJZLV1OI47GF0,79,1543385986856,"{""rt"": 2766, ""trial_type"": ""face-likert-amanda"", ""debug_mode"": ""live"", ""task_type"": ""face trials"", ""responses"": ""{\""Q0\"":7}"", ""task_payment"": 1, ""task_version"": 1, ""internal_node_id"": ""0.0-14.0-0.0-5.0"", ""time_elapsed"": 780934, ""imgName"": ""/static/images/2kfaces/Google_1_Erika Fletcher_1_oval.jpg"", ""questions"": ""[{\""prompt\"":\""<p>How attractive does this person look to you? Rate from 1-9</p>\"",\""labels\"":[\""1 <br/>Not attractive at all\"",\""2\"",\""3\"",\""4\"",\""5\"",\""6\"",\""7\"",\""8\"",\""9  <br/>Extremely attractive\""],\""required\"":true}]"", ""task_unique_trial"": 50, ""task_name"": ""attractive"", ""trial_index"": 79, ""isRepeat"": 1}"
A2FLZP3C6U67JY:3JZQSN0I3SHSO3NG5ZJZLV1OI47GF0,80,1543385989744,"{""rt"": 2885, ""trial_type"": ""face-likert-amanda"", ""debug_mode"": ""live"", ""task_type"": ""face trials"", ""responses"": ""{\""Q0\"":3}"", ""task_payment"": 1, ""task_version"": 1, ""internal_node_id"": ""0.0-14.0-0.0-6.0"", ""time_elapsed"": 783822, ""imgName"": ""/static/images/2kfaces/Google_1_Florence Melton_1_oval.jpg"", ""questions"": ""[{\""prompt\"":\""<p>How attractive does this person look to you? Rate from 1-9</p>\"",\""labels\"":[\""1 <br/>Not attractive at all\"",\""2\"",\""3\"",\""4\"",\""5\"",\""6\"",\""7\"",\""8\"",\""9  <br/>Extremely attractive\""],\""required\"":true}]"", ""task_unique_trial"": 50, ""task_name"": ""attractive"", ""trial_index"": 80, ""isRepeat"": 1}"
A2FLZP3C6U67JY:3JZQSN0I3SHSO3NG5ZJZLV1OI47GF0,81,1543385993001,"{""rt"": 3254, ""trial_type"": ""face-likert-amanda"", ""debug_mode"": ""live"", ""task_type"": ""face trials"", ""responses"": ""{\""Q0\"":3}"", ""task_payment"": 1, ""task_version"": 1, ""internal_node_id"": ""0.0-14.0-0.0-7.0"", ""time_elapsed"": 787079, ""imgName"": ""/static/images/2kfaces/Google_1_Mark Houser_17_oval.jpg"", ""questions"": ""[{\""prompt\"":\""<p>How attractive does this person look to you? Rate from 1-9</p>\"",\""labels\"":[\""1 <br/>Not attractive at all\"",\""2\"",\""3\"",\""4\"",\""5\"",\""6\"",\""7\"",\""8\"",\""9  <br/>Extremely attractive\""],\""required\"":true}]"", ""task_unique_trial"": 50, ""task_name"": ""attractive"", ""trial_index"": 81, ""isRepeat"": 1}"
A2FLZP3C6U67JY:3JZQSN0I3SHSO3NG5ZJZLV1OI47GF0,82,1543385995448,"{""rt"": 2445, ""trial_type"": ""face-likert-amanda"", ""debug_mode"": ""live"", ""task_type"": ""face trials"", ""responses"": ""{\""Q0\"":4}"", ""task_payment"": 1, ""task_version"": 1, ""internal_node_id"": ""0.0-14.0-0.0-8.0"", ""time_elapsed"": 789526, ""imgName"": ""/static/images/2kfaces/Google_1_Kenneth Cabral_19_oval.jpg"", ""questions"": ""[{\""prompt\"":\""<p>How attractive does this person look to you? Rate from 1-9</p>\"",\""labels\"":[\""1 <br/>Not attractive at all\"",\""2\"",\""3\"",\""4\"",\""5\"",\""6\"",\""7\"",\""8\"",\""9  <br/>Extremely attractive\""],\""required\"":true}]"", ""task_unique_trial"": 50, ""task_name"": ""attractive"", ""trial_index"": 82, ""isRepeat"": 1}"
A2FLZP3C6U67JY:3JZQSN0I3SHSO3NG5ZJZLV1OI47GF0,83,1543385997584,"{""rt"": 2133, ""trial_type"": ""face-likert-amanda"", ""debug_mode"": ""live"", ""task_type"": ""face trials"", ""responses"": ""{\""Q0\"":3}"", ""task_payment"": 1, ""task_version"": 1, ""internal_node_id"": ""0.0-14.0-0.0-9.0"", ""time_elapsed"": 791662, ""imgName"": ""/static/images/2kfaces/Google_1_Cindy Morehead_5_oval.jpg"", ""questions"": ""[{\""prompt\"":\""<p>How attractive does this person look to you? Rate from 1-9</p>\"",\""labels\"":[\""1 <br/>Not attractive at all\"",\""2\"",\""3\"",\""4\"",\""5\"",\""6\"",\""7\"",\""8\"",\""9  <br/>Extremely attractive\""],\""required\"":true}]"", ""task_unique_trial"": 50, ""task_name"": ""attractive"", ""trial_index"": 83, ""isRepeat"": 1}"
A2FLZP3C6U67JY:3JZQSN0I3SHSO3NG5ZJZLV1OI47GF0,84,1543385999586,"{""rt"": null, ""trial_type"": ""html-keyboard-response"", ""task_unique_trial"": 50, ""stimulus"": ""<p>Good job!</p>"", ""task_version"": 1, ""internal_node_id"": ""0.0-14.0-1.0"", ""task_payment"": 1, ""time_elapsed"": 793664, ""debug_mode"": ""live"", ""key_press"": null, ""task_name"": ""attractive"", ""trial_index"": 84}"
A2FLZP3C6U67JY:3JZQSN0I3SHSO3NG5ZJZLV1OI47GF0,85,1543386002112,"{""rt"": 2524, ""trial_type"": ""face-likert-amanda"", ""debug_mode"": ""live"", ""task_type"": ""face trials"", ""responses"": ""{\""Q0\"":4}"", ""task_payment"": 1, ""task_version"": 1, ""internal_node_id"": ""0.0-15.0-0.0-0.0"", ""time_elapsed"": 796190, ""imgName"": ""/static/images/2kfaces/Google_1_Bryan Brunner_3_oval.jpg"", ""questions"": ""[{\""prompt\"":\""<p>How attractive does this person look to you? Rate from 1-9</p>\"",\""labels\"":[\""1 <br/>Not attractive at all\"",\""2\"",\""3\"",\""4\"",\""5\"",\""6\"",\""7\"",\""8\"",\""9  <br/>Extremely attractive\""],\""required\"":true}]"", ""task_unique_trial"": 50, ""task_name"": ""attractive"", ""trial_index"": 85, ""isRepeat"": 1}"
A2FLZP3C6U67JY:3JZQSN0I3SHSO3NG5ZJZLV1OI47GF0,86,1543386004384,"{""rt"": 2270, ""trial_type"": ""face-likert-amanda"", ""debug_mode"": ""live"", ""task_type"": ""face trials"", ""responses"": ""{\""Q0\"":4}"", ""task_payment"": 1, ""task_version"": 1, ""internal_node_id"": ""0.0-15.0-0.0-1.0"", ""time_elapsed"": 798462, ""imgName"": ""/static/images/2kfaces/Google_1_Matthew Vanbuskirk_1_oval.jpg"", ""questions"": ""[{\""prompt\"":\""<p>How attractive does this person look to you? Rate from 1-9</p>\"",\""labels\"":[\""1 <br/>Not attractive at all\"",\""2\"",\""3\"",\""4\"",\""5\"",\""6\"",\""7\"",\""8\"",\""9  <br/>Extremely attractive\""],\""required\"":true}]"", ""task_unique_trial"": 50, ""task_name"": ""attractive"", ""trial_index"": 86, ""isRepeat"": 1}"
A2FLZP3C6U67JY:3JZQSN0I3SHSO3NG5ZJZLV1OI47GF0,87,1543386007200,"{""rt"": 2813, ""trial_type"": ""face-likert-amanda"", ""debug_mode"": ""live"", ""task_type"": ""face trials"", ""responses"": ""{\""Q0\"":7}"", ""task_payment"": 1, ""task_version"": 1, ""internal_node_id"": ""0.0-15.0-0.0-2.0"", ""time_elapsed"": 801278, ""imgName"": ""/static/images/2kfaces/Google_1_Russell Gillam_17_oval.jpg"", ""questions"": ""[{\""prompt\"":\""<p>How attractive does this person look to you? Rate from 1-9</p>\"",\""labels\"":[\""1 <br/>Not attractive at all\"",\""2\"",\""3\"",\""4\"",\""5\"",\""6\"",\""7\"",\""8\"",\""9  <br/>Extremely attractive\""],\""required\"":true}]"", ""task_unique_trial"": 50, ""task_name"": ""attractive"", ""trial_index"": 87, ""isRepeat"": 1}"
A2FLZP3C6U67JY:3JZQSN0I3SHSO3NG5ZJZLV1OI47GF0,88,1543386009384,"{""rt"": 2182, ""trial_type"": ""face-likert-amanda"", ""debug_mode"": ""live"", ""task_type"": ""face trials"", ""responses"": ""{\""Q0\"":3}"", ""task_payment"": 1, ""task_version"": 1, ""internal_node_id"": ""0.0-15.0-0.0-3.0"", ""time_elapsed"": 803462, ""imgName"": ""/static/images/2kfaces/Google_1_Andrew Diggs_9_oval.jpg"", ""questions"": ""[{\""prompt\"":\""<p>How attractive does this person look to you? Rate from 1-9</p>\"",\""labels\"":[\""1 <br/>Not attractive at all\"",\""2\"",\""3\"",\""4\"",\""5\"",\""6\"",\""7\"",\""8\"",\""9  <br/>Extremely attractive\""],\""required\"":true}]"", ""task_unique_trial"": 50, ""task_name"": ""attractive"", ""trial_index"": 88, ""isRepeat"": 1}"
A2FLZP3C6U67JY:3JZQSN0I3SHSO3NG5ZJZLV1OI47GF0,89,1543386011793,"{""rt"": 2405, ""trial_type"": ""face-likert-amanda"", ""debug_mode"": ""live"", ""task_type"": ""face trials"", ""responses"": ""{\""Q0\"":2}"", ""task_payment"": 1, ""task_version"": 1, ""internal_node_id"": ""0.0-15.0-0.0-4.0"", ""time_elapsed"": 805870, ""imgName"": ""/static/images/2kfaces/Bryan_Shanklin_9_oval.jpg"", ""questions"": ""[{\""prompt\"":\""<p>How attractive does this person look to you? Rate from 1-9</p>\"",\""labels\"":[\""1 <br/>Not attractive at all\"",\""2\"",\""3\"",\""4\"",\""5\"",\""6\"",\""7\"",\""8\"",\""9  <br/>Extremely attractive\""],\""required\"":true}]"", ""task_unique_trial"": 50, ""task_name"": ""attractive"", ""trial_index"": 89, ""isRepeat"": 1}"
A2FLZP3C6U67JY:3JZQSN0I3SHSO3NG5ZJZLV1OI47GF0,90,1543386013832,"{""rt"": 2036, ""trial_type"": ""face-likert-amanda"", ""debug_mode"": ""live"", ""task_type"": ""face trials"", ""responses"": ""{\""Q0\"":4}"", ""task_payment"": 1, ""task_version"": 1, ""internal_node_id"": ""0.0-15.0-0.0-5.0"", ""time_elapsed"": 807910, ""imgName"": ""/static/images/2kfaces/Google_1_Douglas Tanguay_9_oval.jpg"", ""questions"": ""[{\""prompt\"":\""<p>How attractive does this person look to you? Rate from 1-9</p>\"",\""labels\"":[\""1 <br/>Not attractive at all\"",\""2\"",\""3\"",\""4\"",\""5\"",\""6\"",\""7\"",\""8\"",\""9  <br/>Extremely attractive\""],\""required\"":true}]"", ""task_unique_trial"": 50, ""task_name"": ""attractive"", ""trial_index"": 90, ""isRepeat"": 1}"
A2FLZP3C6U67JY:3JZQSN0I3SHSO3NG5ZJZLV1OI47GF0,91,1543386016016,"{""rt"": 2182, ""trial_type"": ""face-likert-amanda"", ""debug_mode"": ""live"", ""task_type"": ""face trials"", ""responses"": ""{\""Q0\"":1}"", ""task_payment"": 1, ""task_version"": 1, ""internal_node_id"": ""0.0-15.0-0.0-6.0"", ""time_elapsed"": 810094, ""imgName"": ""/static/images/2kfaces/Google_1_Claudia Rohrer_13_oval.jpg"", ""questions"": ""[{\""prompt\"":\""<p>How attractive does this person look to you? Rate from 1-9</p>\"",\""labels\"":[\""1 <br/>Not attractive at all\"",\""2\"",\""3\"",\""4\"",\""5\"",\""6\"",\""7\"",\""8\"",\""9  <br/>Extremely attractive\""],\""required\"":true}]"", ""task_unique_trial"": 50, ""task_name"": ""attractive"", ""trial_index"": 91, ""isRepeat"": 1}"
A2FLZP3C6U67JY:3JZQSN0I3SHSO3NG5ZJZLV1OI47GF0,92,1543386019805,"{""rt"": 3784, ""trial_type"": ""face-likert-amanda"", ""debug_mode"": ""live"", ""task_type"": ""face trials"", ""responses"": ""{\""Q0\"":3}"", ""task_payment"": 1, ""task_version"": 1, ""internal_node_id"": ""0.0-15.0-0.0-7.0"", ""time_elapsed"": 813881, ""imgName"": ""/static/images/2kfaces/Google_1_Louis Mceachern_7_oval.jpg"", ""questions"": ""[{\""prompt\"":\""<p>How attractive does this person look to you? Rate from 1-9</p>\"",\""labels\"":[\""1 <br/>Not attractive at all\"",\""2\"",\""3\"",\""4\"",\""5\"",\""6\"",\""7\"",\""8\"",\""9  <br/>Extremely attractive\""],\""required\"":true}]"", ""task_unique_trial"": 50, ""task_name"": ""attractive"", ""trial_index"": 92, ""isRepeat"": 1}"
A2FLZP3C6U67JY:3JZQSN0I3SHSO3NG5ZJZLV1OI47GF0,93,1543386021720,"{""rt"": 1913, ""trial_type"": ""face-likert-amanda"", ""debug_mode"": ""live"", ""task_type"": ""face trials"", ""responses"": ""{\""Q0\"":3}"", ""task_payment"": 1, ""task_version"": 1, ""internal_node_id"": ""0.0-15.0-0.0-8.0"", ""time_elapsed"": 815798, ""imgName"": ""/static/images/2kfaces/Google_1_Paul Reno_1_oval.jpg"", ""questions"": ""[{\""prompt\"":\""<p>How attractive does this person look to you? Rate from 1-9</p>\"",\""labels\"":[\""1 <br/>Not attractive at all\"",\""2\"",\""3\"",\""4\"",\""5\"",\""6\"",\""7\"",\""8\"",\""9  <br/>Extremely attractive\""],\""required\"":true}]"", ""task_unique_trial"": 50, ""task_name"": ""attractive"", ""trial_index"": 93, ""isRepeat"": 1}"
A2FLZP3C6U67JY:3JZQSN0I3SHSO3NG5ZJZLV1OI47GF0,94,1543386024288,"{""rt"": 2566, ""trial_type"": ""face-likert-amanda"", ""debug_mode"": ""live"", ""task_type"": ""face trials"", ""responses"": ""{\""Q0\"":7}"", ""task_payment"": 1, ""task_version"": 1, ""internal_node_id"": ""0.0-15.0-0.0-9.0"", ""time_elapsed"": 818365, ""imgName"": ""/static/images/2kfaces/Google_1_Ryan Marvel_15_oval.jpg"", ""questions"": ""[{\""prompt\"":\""<p>How attractive does this person look to you? Rate from 1-9</p>\"",\""labels\"":[\""1 <br/>Not attractive at all\"",\""2\"",\""3\"",\""4\"",\""5\"",\""6\"",\""7\"",\""8\"",\""9  <br/>Extremely attractive\""],\""required\"":true}]"", ""task_unique_trial"": 50, ""task_name"": ""attractive"", ""trial_index"": 94, ""isRepeat"": 1}"
A2FLZP3C6U67JY:3JZQSN0I3SHSO3NG5ZJZLV1OI47GF0,95,1543386026290,"{""rt"": null, ""trial_type"": ""html-keyboard-response"", ""task_unique_trial"": 50, ""stimulus"": ""<p>Good job!</p>"", ""task_version"": 1, ""internal_node_id"": ""0.0-15.0-1.0"", ""task_payment"": 1, ""time_elapsed"": 820368, ""debug_mode"": ""live"", ""key_press"": null, ""task_name"": ""attractive"", ""trial_index"": 95}"
A2FLZP3C6U67JY:3JZQSN0I3SHSO3NG5ZJZLV1OI47GF0,96,1543386029312,"{""rt"": 3020, ""trial_type"": ""face-likert-amanda"", ""debug_mode"": ""live"", ""task_type"": ""face trials"", ""responses"": ""{\""Q0\"":3}"", ""task_payment"": 1, ""task_version"": 1, ""internal_node_id"": ""0.0-16.0-0.0-0.0"", ""time_elapsed"": 823390, ""imgName"": ""/static/images/2kfaces/Google_1_Vera Becker_5_oval.jpg"", ""questions"": ""[{\""prompt\"":\""<p>How attractive does this person look to you? Rate from 1-9</p>\"",\""labels\"":[\""1 <br/>Not attractive at all\"",\""2\"",\""3\"",\""4\"",\""5\"",\""6\"",\""7\"",\""8\"",\""9  <br/>Extremely attractive\""],\""required\"":true}]"", ""task_unique_trial"": 50, ""task_name"": ""attractive"", ""trial_index"": 96, ""isRepeat"": 1}"
A2FLZP3C6U67JY:3JZQSN0I3SHSO3NG5ZJZLV1OI47GF0,97,1543386031936,"{""rt"": 2622, ""trial_type"": ""face-likert-amanda"", ""debug_mode"": ""live"", ""task_type"": ""face trials"", ""responses"": ""{\""Q0\"":5}"", ""task_payment"": 1, ""task_version"": 1, ""internal_node_id"": ""0.0-16.0-0.0-1.0"", ""time_elapsed"": 826014, ""imgName"": ""/static/images/2kfaces/Google_1_Ernest Crump_3_oval.jpg"", ""questions"": ""[{\""prompt\"":\""<p>How attractive does this person look to you? Rate from 1-9</p>\"",\""labels\"":[\""1 <br/>Not attractive at all\"",\""2\"",\""3\"",\""4\"",\""5\"",\""6\"",\""7\"",\""8\"",\""9  <br/>Extremely attractive\""],\""required\"":true}]"", ""task_unique_trial"": 50, ""task_name"": ""attractive"", ""trial_index"": 97, ""isRepeat"": 1}"
A2FLZP3C6U67JY:3JZQSN0I3SHSO3NG5ZJZLV1OI47GF0,98,1543386035304,"{""rt"": 3367, ""trial_type"": ""face-likert-amanda"", ""debug_mode"": ""live"", ""task_type"": ""face trials"", ""responses"": ""{\""Q0\"":4}"", ""task_payment"": 1, ""task_version"": 1, ""internal_node_id"": ""0.0-16.0-0.0-2.0"", ""time_elapsed"": 829382, ""imgName"": ""/static/images/2kfaces/Google_1_Marjorie Rule_3_oval.jpg"", ""questions"": ""[{\""prompt\"":\""<p>How attractive does this person look to you? Rate from 1-9</p>\"",\""labels\"":[\""1 <br/>Not attractive at all\"",\""2\"",\""3\"",\""4\"",\""5\"",\""6\"",\""7\"",\""8\"",\""9  <br/>Extremely attractive\""],\""required\"":true}]"", ""task_unique_trial"": 50, ""task_name"": ""attractive"", ""trial_index"": 98, ""isRepeat"": 1}"
A2FLZP3C6U67JY:3JZQSN0I3SHSO3NG5ZJZLV1OI47GF0,99,1543386037744,"{""rt"": 2437, ""trial_type"": ""face-likert-amanda"", ""debug_mode"": ""live"", ""task_type"": ""face trials"", ""responses"": ""{\""Q0\"":4}"", ""task_payment"": 1, ""task_version"": 1, ""internal_node_id"": ""0.0-16.0-0.0-3.0"", ""time_elapsed"": 831822, ""imgName"": ""/static/images/2kfaces/Google_1_Eric Osuna_3_oval.jpg"", ""questions"": ""[{\""prompt\"":\""<p>How attractive does this person look to you? Rate from 1-9</p>\"",\""labels\"":[\""1 <br/>Not attractive at all\"",\""2\"",\""3\"",\""4\"",\""5\"",\""6\"",\""7\"",\""8\"",\""9  <br/>Extremely attractive\""],\""required\"":true}]"", ""task_unique_trial"": 50, ""task_name"": ""attractive"", ""trial_index"": 99, ""isRepeat"": 1}"
A2FLZP3C6U67JY:3JZQSN0I3SHSO3NG5ZJZLV1OI47GF0,100,1543386040792,"{""rt"": 3046, ""trial_type"": ""face-likert-amanda"", ""debug_mode"": ""live"", ""task_type"": ""face trials"", ""responses"": ""{\""Q0\"":6}"", ""task_payment"": 1, ""task_version"": 1, ""internal_node_id"": ""0.0-16.0-0.0-4.0"", ""time_elapsed"": 834870, ""imgName"": ""/static/images/2kfaces/Alice_Mckellar_11_oval.jpg"", ""questions"": ""[{\""prompt\"":\""<p>How attractive does this person look to you? Rate from 1-9</p>\"",\""labels\"":[\""1 <br/>Not attractive at all\"",\""2\"",\""3\"",\""4\"",\""5\"",\""6\"",\""7\"",\""8\"",\""9  <br/>Extremely attractive\""],\""required\"":true}]"", ""task_unique_trial"": 50, ""task_name"": ""attractive"", ""trial_index"": 100, ""isRepeat"": 1}"
A2FLZP3C6U67JY:3JZQSN0I3SHSO3NG5ZJZLV1OI47GF0,101,1543386042944,"{""rt"": 2150, ""trial_type"": ""face-likert-amanda"", ""debug_mode"": ""live"", ""task_type"": ""face trials"", ""responses"": ""{\""Q0\"":4}"", ""task_payment"": 1, ""task_version"": 1, ""internal_node_id"": ""0.0-16.0-0.0-5.0"", ""time_elapsed"": 837022, ""imgName"": ""/static/images/2kfaces/Google_1_Shelley Lund_5_oval.jpg"", ""questions"": ""[{\""prompt\"":\""<p>How attractive does this person look to you? Rate from 1-9</p>\"",\""labels\"":[\""1 <br/>Not attractive at all\"",\""2\"",\""3\"",\""4\"",\""5\"",\""6\"",\""7\"",\""8\"",\""9  <br/>Extremely attractive\""],\""required\"":true}]"", ""task_unique_trial"": 50, ""task_name"": ""attractive"", ""trial_index"": 101, ""isRepeat"": 1}"
A2FLZP3C6U67JY:3JZQSN0I3SHSO3NG5ZJZLV1OI47GF0,102,1543386047513,"{""rt"": 4566, ""trial_type"": ""face-likert-amanda"", ""debug_mode"": ""live"", ""task_type"": ""face trials"", ""responses"": ""{\""Q0\"":3}"", ""task_payment"": 1, ""task_version"": 1, ""internal_node_id"": ""0.0-16.0-0.0-6.0"", ""time_elapsed"": 841591, ""imgName"": ""/static/images/2kfaces/Google_1_Norman Westfall_5_oval.jpg"", ""questions"": ""[{\""prompt\"":\""<p>How attractive does this person look to you? Rate from 1-9</p>\"",\""labels\"":[\""1 <br/>Not attractive at all\"",\""2\"",\""3\"",\""4\"",\""5\"",\""6\"",\""7\"",\""8\"",\""9  <br/>Extremely attractive\""],\""required\"":true}]"", ""task_unique_trial"": 50, ""task_name"": ""attractive"", ""trial_index"": 102, ""isRepeat"": 1}"
A2FLZP3C6U67JY:3JZQSN0I3SHSO3NG5ZJZLV1OI47GF0,103,1543386050769,"{""rt"": 3253, ""trial_type"": ""face-likert-amanda"", ""debug_mode"": ""live"", ""task_type"": ""face trials"", ""responses"": ""{\""Q0\"":3}"", ""task_payment"": 1, ""task_version"": 1, ""internal_node_id"": ""0.0-16.0-0.0-7.0"", ""time_elapsed"": 844847, ""imgName"": ""/static/images/2kfaces/Google_1_Gregory Arriola_3_oval.jpg"", ""questions"": ""[{\""prompt\"":\""<p>How attractive does this person look to you? Rate from 1-9</p>\"",\""labels\"":[\""1 <br/>Not attractive at all\"",\""2\"",\""3\"",\""4\"",\""5\"",\""6\"",\""7\"",\""8\"",\""9  <br/>Extremely attractive\""],\""required\"":true}]"", ""task_unique_trial"": 50, ""task_name"": ""attractive"", ""trial_index"": 103, ""isRepeat"": 1}"
A2FLZP3C6U67JY:3JZQSN0I3SHSO3NG5ZJZLV1OI47GF0,104,1543386053336,"{""rt"": 2566, ""trial_type"": ""face-likert-amanda"", ""debug_mode"": ""live"", ""task_type"": ""face trials"", ""responses"": ""{\""Q0\"":5}"", ""task_payment"": 1, ""task_version"": 1, ""internal_node_id"": ""0.0-16.0-0.0-8.0"", ""time_elapsed"": 847414, ""imgName"": ""/static/images/2kfaces/Google_1_Ronald Driver_19_oval.jpg"", ""questions"": ""[{\""prompt\"":\""<p>How attractive does this person look to you? Rate from 1-9</p>\"",\""labels\"":[\""1 <br/>Not attractive at all\"",\""2\"",\""3\"",\""4\"",\""5\"",\""6\"",\""7\"",\""8\"",\""9  <br/>Extremely attractive\""],\""required\"":true}]"", ""task_unique_trial"": 50, ""task_name"": ""attractive"", ""trial_index"": 104, ""isRepeat"": 1}"
A2FLZP3C6U67JY:3JZQSN0I3SHSO3NG5ZJZLV1OI47GF0,105,1543386056281,"{""rt"": 2942, ""trial_type"": ""face-likert-amanda"", ""debug_mode"": ""live"", ""task_type"": ""face trials"", ""responses"": ""{\""Q0\"":3}"", ""task_payment"": 1, ""task_version"": 1, ""internal_node_id"": ""0.0-16.0-0.0-9.0"", ""time_elapsed"": 850359, ""imgName"": ""/static/images/2kfaces/Google_1_Gloria Canada_13_oval.jpg"", ""questions"": ""[{\""prompt\"":\""<p>How attractive does this person look to you? Rate from 1-9</p>\"",\""labels\"":[\""1 <br/>Not attractive at all\"",\""2\"",\""3\"",\""4\"",\""5\"",\""6\"",\""7\"",\""8\"",\""9  <br/>Extremely attractive\""],\""required\"":true}]"", ""task_unique_trial"": 50, ""task_name"": ""attractive"", ""trial_index"": 105, ""isRepeat"": 1}"
A2FLZP3C6U67JY:3JZQSN0I3SHSO3NG5ZJZLV1OI47GF0,106,1543386058284,"{""rt"": null, ""trial_type"": ""html-keyboard-response"", ""task_unique_trial"": 50, ""stimulus"": ""<p>Good job!</p>"", ""task_version"": 1, ""internal_node_id"": ""0.0-16.0-1.0"", ""task_payment"": 1, ""time_elapsed"": 852361, ""debug_mode"": ""live"", ""key_press"": null, ""task_name"": ""attractive"", ""trial_index"": 106}"
A2FLZP3C6U67JY:3JZQSN0I3SHSO3NG5ZJZLV1OI47GF0,107,1543386061249,"{""rt"": 2962, ""trial_type"": ""face-likert-amanda"", ""debug_mode"": ""live"", ""task_type"": ""face trials"", ""responses"": ""{\""Q0\"":3}"", ""task_payment"": 1, ""task_version"": 1, ""internal_node_id"": ""0.0-17.0-0.0-0.0"", ""time_elapsed"": 855327, ""imgName"": ""/static/images/2kfaces/Google_1_Frank Whitehouse_3_oval.jpg"", ""questions"": ""[{\""prompt\"":\""<p>How attractive does this person look to you? Rate from 1-9</p>\"",\""labels\"":[\""1 <br/>Not attractive at all\"",\""2\"",\""3\"",\""4\"",\""5\"",\""6\"",\""7\"",\""8\"",\""9  <br/>Extremely attractive\""],\""required\"":true}]"", ""task_unique_trial"": 50, ""task_name"": ""attractive"", ""trial_index"": 107, ""isRepeat"": 1}"
A2FLZP3C6U67JY:3JZQSN0I3SHSO3NG5ZJZLV1OI47GF0,108,1543386063569,"{""rt"": 2317, ""trial_type"": ""face-likert-amanda"", ""debug_mode"": ""live"", ""task_type"": ""face trials"", ""responses"": ""{\""Q0\"":5}"", ""task_payment"": 1, ""task_version"": 1, ""internal_node_id"": ""0.0-17.0-0.0-1.0"", ""time_elapsed"": 857647, ""imgName"": ""/static/images/2kfaces/Google_1_Sherry Mcmichael_11_oval.jpg"", ""questions"": ""[{\""prompt\"":\""<p>How attractive does this person look to you? Rate from 1-9</p>\"",\""labels\"":[\""1 <br/>Not attractive at all\"",\""2\"",\""3\"",\""4\"",\""5\"",\""6\"",\""7\"",\""8\"",\""9  <br/>Extremely attractive\""],\""required\"":true}]"", ""task_unique_trial"": 50, ""task_name"": ""attractive"", ""trial_index"": 108, ""isRepeat"": 1}"
A2FLZP3C6U67JY:3JZQSN0I3SHSO3NG5ZJZLV1OI47GF0,109,1543386066065,"{""rt"": 2494, ""trial_type"": ""face-likert-amanda"", ""debug_mode"": ""live"", ""task_type"": ""face trials"", ""responses"": ""{\""Q0\"":5}"", ""task_payment"": 1, ""task_version"": 1, ""internal_node_id"": ""0.0-17.0-0.0-2.0"", ""time_elapsed"": 860143, ""imgName"": ""/static/images/2kfaces/Google_1_Valerie Noble_9_oval.jpg"", ""questions"": ""[{\""prompt\"":\""<p>How attractive does this person look to you? Rate from 1-9</p>\"",\""labels\"":[\""1 <br/>Not attractive at all\"",\""2\"",\""3\"",\""4\"",\""5\"",\""6\"",\""7\"",\""8\"",\""9  <br/>Extremely attractive\""],\""required\"":true}]"", ""task_unique_trial"": 50, ""task_name"": ""attractive"", ""trial_index"": 109, ""isRepeat"": 1}"
A2FLZP3C6U67JY:3JZQSN0I3SHSO3NG5ZJZLV1OI47GF0,110,1543386068689,"{""rt"": 2622, ""trial_type"": ""face-likert-amanda"", ""debug_mode"": ""live"", ""task_type"": ""face trials"", ""responses"": ""{\""Q0\"":4}"", ""task_payment"": 1, ""task_version"": 1, ""internal_node_id"": ""0.0-17.0-0.0-3.0"", ""time_elapsed"": 862767, ""imgName"": ""/static/images/2kfaces/Google_1_Sara Guajardo_1_oval.jpg"", ""questions"": ""[{\""prompt\"":\""<p>How attractive does this person look to you? Rate from 1-9</p>\"",\""labels\"":[\""1 <br/>Not attractive at all\"",\""2\"",\""3\"",\""4\"",\""5\"",\""6\"",\""7\"",\""8\"",\""9  <br/>Extremely attractive\""],\""required\"":true}]"", ""task_unique_trial"": 50, ""task_name"": ""attractive"", ""trial_index"": 110, ""isRepeat"": 1}"
A2FLZP3C6U67JY:3JZQSN0I3SHSO3NG5ZJZLV1OI47GF0,111,1543386071785,"{""rt"": 3093, ""trial_type"": ""face-likert-amanda"", ""debug_mode"": ""live"", ""task_type"": ""face trials"", ""responses"": ""{\""Q0\"":6}"", ""task_payment"": 1, ""task_version"": 1, ""internal_node_id"": ""0.0-17.0-0.0-4.0"", ""time_elapsed"": 865863, ""imgName"": ""/static/images/2kfaces/Google_1_Henry Gumm_19_oval.jpg"", ""questions"": ""[{\""prompt\"":\""<p>How attractive does this person look to you? Rate from 1-9</p>\"",\""labels\"":[\""1 <br/>Not attractive at all\"",\""2\"",\""3\"",\""4\"",\""5\"",\""6\"",\""7\"",\""8\"",\""9  <br/>Extremely attractive\""],\""required\"":true}]"", ""task_unique_trial"": 50, ""task_name"": ""attractive"", ""trial_index"": 111, ""isRepeat"": 1}"
A2FLZP3C6U67JY:3JZQSN0I3SHSO3NG5ZJZLV1OI47GF0,112,1543386074345,"{""rt"": 2558, ""trial_type"": ""face-likert-amanda"", ""debug_mode"": ""live"", ""task_type"": ""face trials"", ""responses"": ""{\""Q0\"":2}"", ""task_payment"": 1, ""task_version"": 1, ""internal_node_id"": ""0.0-17.0-0.0-5.0"", ""time_elapsed"": 868423, ""imgName"": ""/static/images/2kfaces/Google_1_Samuel Paschal_17_oval.jpg"", ""questions"": ""[{\""prompt\"":\""<p>How attractive does this person look to you? Rate from 1-9</p>\"",\""labels\"":[\""1 <br/>Not attractive at all\"",\""2\"",\""3\"",\""4\"",\""5\"",\""6\"",\""7\"",\""8\"",\""9  <br/>Extremely attractive\""],\""required\"":true}]"", ""task_unique_trial"": 50, ""task_name"": ""attractive"", ""trial_index"": 112, ""isRepeat"": 1}"
A2FLZP3C6U67JY:3JZQSN0I3SHSO3NG5ZJZLV1OI47GF0,113,1543386077001,"{""rt"": 2654, ""trial_type"": ""face-likert-amanda"", ""debug_mode"": ""live"", ""task_type"": ""face trials"", ""responses"": ""{\""Q0\"":4}"", ""task_payment"": 1, ""task_version"": 1, ""internal_node_id"": ""0.0-17.0-0.0-6.0"", ""time_elapsed"": 871079, ""imgName"": ""/static/images/2kfaces/Google_1_Donna Asberry_5_oval.jpg"", ""questions"": ""[{\""prompt\"":\""<p>How attractive does this person look to you? Rate from 1-9</p>\"",\""labels\"":[\""1 <br/>Not attractive at all\"",\""2\"",\""3\"",\""4\"",\""5\"",\""6\"",\""7\"",\""8\"",\""9  <br/>Extremely attractive\""],\""required\"":true}]"", ""task_unique_trial"": 50, ""task_name"": ""attractive"", ""trial_index"": 113, ""isRepeat"": 1}"
A2FLZP3C6U67JY:3JZQSN0I3SHSO3NG5ZJZLV1OI47GF0,114,1543386081025,"{""rt"": 4024, ""trial_type"": ""face-likert-amanda"", ""debug_mode"": ""live"", ""task_type"": ""face trials"", ""responses"": ""{\""Q0\"":3}"", ""task_payment"": 1, ""task_version"": 1, ""internal_node_id"": ""0.0-17.0-0.0-7.0"", ""time_elapsed"": 875103, ""imgName"": ""/static/images/2kfaces/Google_1_Kenneth Rigsby_15_oval.jpg"", ""questions"": ""[{\""prompt\"":\""<p>How attractive does this person look to you? Rate from 1-9</p>\"",\""labels\"":[\""1 <br/>Not attractive at all\"",\""2\"",\""3\"",\""4\"",\""5\"",\""6\"",\""7\"",\""8\"",\""9  <br/>Extremely attractive\""],\""required\"":true}]"", ""task_unique_trial"": 50, ""task_name"": ""attractive"", ""trial_index"": 114, ""isRepeat"": 1}"
A2FLZP3C6U67JY:3JZQSN0I3SHSO3NG5ZJZLV1OI47GF0,115,1543386083633,"{""rt"": 2606, ""trial_type"": ""face-likert-amanda"", ""debug_mode"": ""live"", ""task_type"": ""face trials"", ""responses"": ""{\""Q0\"":7}"", ""task_payment"": 1, ""task_version"": 1, ""internal_node_id"": ""0.0-17.0-0.0-8.0"", ""time_elapsed"": 877710, ""imgName"": ""/static/images/2kfaces/Google_1_Cheryl Griffin_15_oval.jpg"", ""questions"": ""[{\""prompt\"":\""<p>How attractive does this person look to you? Rate from 1-9</p>\"",\""labels\"":[\""1 <br/>Not attractive at all\"",\""2\"",\""3\"",\""4\"",\""5\"",\""6\"",\""7\"",\""8\"",\""9  <br/>Extremely attractive\""],\""required\"":true}]"", ""task_unique_trial"": 50, ""task_name"": ""attractive"", ""trial_index"": 115, ""isRepeat"": 1}"
A2FLZP3C6U67JY:3JZQSN0I3SHSO3NG5ZJZLV1OI47GF0,116,1543386086977,"{""rt"": 3342, ""trial_type"": ""face-likert-amanda"", ""debug_mode"": ""live"", ""task_type"": ""face trials"", ""responses"": ""{\""Q0\"":4}"", ""task_payment"": 1, ""task_version"": 1, ""internal_node_id"": ""0.0-17.0-0.0-9.0"", ""time_elapsed"": 881055, ""imgName"": ""/static/images/2kfaces/Google_1_Paul Horst_15_oval.jpg"", ""questions"": ""[{\""prompt\"":\""<p>How attractive does this person look to you? Rate from 1-9</p>\"",\""labels\"":[\""1 <br/>Not attractive at all\"",\""2\"",\""3\"",\""4\"",\""5\"",\""6\"",\""7\"",\""8\"",\""9  <br/>Extremely attractive\""],\""required\"":true}]"", ""task_unique_trial"": 50, ""task_name"": ""attractive"", ""trial_index"": 116, ""isRepeat"": 1}"
A2FLZP3C6U67JY:3JZQSN0I3SHSO3NG5ZJZLV1OI47GF0,117,1543386088978,"{""rt"": null, ""trial_type"": ""html-keyboard-response"", ""task_unique_trial"": 50, ""stimulus"": ""<p>Good job!</p>"", ""task_version"": 1, ""internal_node_id"": ""0.0-17.0-1.0"", ""task_payment"": 1, ""time_elapsed"": 883056, ""debug_mode"": ""live"", ""key_press"": null, ""task_name"": ""attractive"", ""trial_index"": 117}"
A2FLZP3C6U67JY:3JZQSN0I3SHSO3NG5ZJZLV1OI47GF0,118,1543386137784,"{""rt"": 48801, ""trial_type"": ""survey-text-req"", ""task_type"": ""interview decision making feedback"", ""responses"": ""{\""Q0\"":\""symmetry, softness\"",\""Q1\"":\""pretty ones\"",\""Q2\"":\""old ones, weird ones\"",\""Q3\"":\""no\"",\""Q4\"":\""no\""}"", ""task_payment"": 1, ""task_version"": 1, ""internal_node_id"": ""0.0-18.0"", ""time_elapsed"": 931862, ""debug_mode"": ""live"", ""task_name"": ""attractive"", ""task_unique_trial"": 50, ""trial_index"": 118}"
A2FLZP3C6U67JY:3JZQSN0I3SHSO3NG5ZJZLV1OI47GF0,119,1543386145216,"{""rt"": 7429, ""trial_type"": ""survey-text-req"", ""task_type"": ""feedback for HIT"", ""responses"": ""{\""Q0\"":\""I thought it was fun\""}"", ""task_payment"": 1, ""task_version"": 1, ""internal_node_id"": ""0.0-19.0"", ""time_elapsed"": 939294, ""debug_mode"": ""live"", ""task_name"": ""attractive"", ""task_unique_trial"": 50, ""trial_index"": 119}"
A1SP3GBRZKMWZJ:3VA45EW49PUPQ1A6MJHM126W8GFO1U,0,1543385666303,"{""rt"": 24679, ""trial_type"": ""instructions"", ""view_history"": ""[{\""page_index\"":0,\""viewing_time\"":9192},{\""page_index\"":1,\""viewing_time\"":5783},{\""page_index\"":2,\""viewing_time\"":8397},{\""page_index\"":3,\""viewing_time\"":1306}]"", ""task_type"": ""instruction"", ""task_payment"": 1, ""task_version"": 1, ""internal_node_id"": ""0.0-0.0"", ""time_elapsed"": 24680, ""debug_mode"": ""live"", ""task_name"": ""attractive"", ""task_unique_trial"": 50, ""trial_index"": 0}"
A1SP3GBRZKMWZJ:3VA45EW49PUPQ1A6MJHM126W8GFO1U,1,1543385697112,"{""rt"": 30787, ""trial_type"": ""survey-multi-choice"", ""task_type"": ""demographic-multichoice"", ""responses"": ""{\""Q0\"":\""56+\"",\""Q1\"":\""Male\"",\""Q2\"":\""No\"",\""Q3\"":\""2\"",\""Q4\"":\""White\"",\""Q5\"":\""High school degree or equivalent (e.g. GED)\"",\""Q6\"":\""$20,000 - $34,999\""}"", ""task_payment"": 1, ""task_version"": 1, ""time_elapsed"": 55490, ""sanity_check_1_continue"": true, ""random_num"": 2, ""debug_mode"": ""live"", ""questions"": ""[{\""prompt\"":\""What is your age?\"",\""options\"":[\""Under 18\"",\""18-25\"",\""26-35\"",\""36-45\"",\""46-55\"",\""56+\""],\""required\"":true},{\""prompt\"":\""What is your gender?\"",\""options\"":[\""Male\"",\""Female\"",\""Other/Prefer not to say\""],\""required\"":true},{\""prompt\"":\""Are you of Hispanic, Latino, or Spanish origin?\"",\""options\"":[\""Yes\"",\""No\""],\""required\"":true},{\""prompt\"":\""Please choose the option that match the number here: 2\"",\""options\"":[\""1\"",\""2\"",\""3\"",\""4\""],\""required\"":true},{\""prompt\"":\""How would you describe yourself?\"",\""options\"":[\""American Indian or Alaskan Native\"",\""Asian\"",\""Black or African-American\"",\""Native Hawaiian or Other Pacific Islander\"",\""White\""],\""required\"":true},{\""prompt\"":\""What is the highest degree or level of school you have completed? (If you&#8217;re currently enrolled in school, please indicate the highest degree you have received)\"",\""options\"":[\""Less than a high school diploma\"",\""High school degree or equivalent (e.g. GED)\"",\""Some college, no degree\"",\""Associate degree (e.g. AA, AS)\"",\""Bachelor&#8217;s degree (e.g. BA, BS)\"",\""Professional or post-baccalauriate degree\""],\""required\"":true},{\""prompt\"":\""What is the total income of all members of your household?\"",\""options\"":[\""Less than $20,000\"",\""$20,000 - $34,999\"",\""$35,000 - $49,999\"",\""$50,000 - $74,999\"",\""$75,000 - $99,999\"",\""Over $100,000\""],\""required\"":true}]"", ""internal_node_id"": ""0.0-1.0-0.0"", ""task_unique_trial"": 50, ""task_name"": ""attractive"", ""trial_index"": 1}"
A1SP3GBRZKMWZJ:3VA45EW49PUPQ1A6MJHM126W8GFO1U,2,1543385744484,"{""rt"": 47359, ""trial_type"": ""survey-text-req"", ""task_type"": ""demographics_location"", ""responses"": ""{\""Q0\"":\""illinois\"",\""Q1\"":\""hampshire\"",\""Q2\"":\""60140\""}"", ""task_payment"": 1, ""task_version"": 1, ""internal_node_id"": ""0.0-2.0"", ""time_elapsed"": 102862, ""debug_mode"": ""live"", ""task_name"": ""attractive"", ""task_unique_trial"": 50, ""trial_index"": 2}"
A1SP3GBRZKMWZJ:3VA45EW49PUPQ1A6MJHM126W8GFO1U,3,1543385778530,"{""rt"": 34037, ""trial_type"": ""survey-text-req"", ""task_type"": ""question comprehension"", ""responses"": ""{\""Q0\"":\""How attractive does this person look to you?\""}"", ""task_payment"": 1, ""task_version"": 1, ""internal_node_id"": ""0.0-3.0-0.0"", ""comprehension_check_continue"": true, ""time_elapsed"": 136908, ""debug_mode"": ""live"", ""task_name"": ""attractive"", ""task_unique_trial"": 50, ""trial_index"": 3}"
A1SP3GBRZKMWZJ:3VA45EW49PUPQ1A6MJHM126W8GFO1U,4,1543385787019,"{""rt"": 8480, ""trial_type"": ""face-likert-amanda"", ""debug_mode"": ""live"", ""task_type"": ""empty face"", ""responses"": ""{\""Q0\"":4}"", ""task_payment"": 1, ""task_version"": 1, ""internal_node_id"": ""0.0-4.0"", ""time_elapsed"": 145397, ""imgName"": ""/static/images/faces/empty-image-1.jpg"", ""questions"": ""[{\""prompt\"":\""<p>How attractive does this person look to you? Rate from 1-9</p>\"",\""labels\"":[\""1 <br/>Not attractive at all\"",\""2\"",\""3\"",\""4\"",\""5\"",\""6\"",\""7\"",\""8\"",\""9  <br/>Extremely attractive\""],\""required\"":true}]"", ""task_unique_trial"": 50, ""task_name"": ""attractive"", ""trial_index"": 4, ""isRepeat"": 0}"
A1SP3GBRZKMWZJ:3VA45EW49PUPQ1A6MJHM126W8GFO1U,5,1543385788520,"{""rt"": 1495, ""trial_type"": ""instructions"", ""view_history"": ""[{\""page_index\"":0,\""viewing_time\"":1493}]"", ""task_unique_trial"": 50, ""task_payment"": 1, ""task_version"": 1, ""internal_node_id"": ""0.0-5.0"", ""time_elapsed"": 146898, ""debug_mode"": ""live"", ""task_name"": ""attractive"", ""trial_index"": 5}"
A1SP3GBRZKMWZJ:3VA45EW49PUPQ1A6MJHM126W8GFO1U,6,1543385801722,"{""rt"": 13200, ""trial_type"": ""face-likert-amanda"", ""debug_mode"": ""live"", ""task_type"": ""face trials"", ""responses"": ""{\""Q0\"":0}"", ""task_payment"": 1, ""task_version"": 1, ""internal_node_id"": ""0.0-6.0-0.0-0.0"", ""time_elapsed"": 160100, ""imgName"": ""/static/images/2kfaces/Google_1_Louis Mceachern_7_oval.jpg"", ""questions"": ""[{\""prompt\"":\""<p>How attractive does this person look to you? Rate from 1-9</p>\"",\""labels\"":[\""1 <br/>Not attractive at all\"",\""2\"",\""3\"",\""4\"",\""5\"",\""6\"",\""7\"",\""8\"",\""9  <br/>Extremely attractive\""],\""required\"":true}]"", ""task_unique_trial"": 50, ""task_name"": ""attractive"", ""trial_index"": 6, ""isRepeat"": 0}"
A1SP3GBRZKMWZJ:3VA45EW49PUPQ1A6MJHM126W8GFO1U,7,1543385806965,"{""rt"": 5236, ""trial_type"": ""face-likert-amanda"", ""debug_mode"": ""live"", ""task_type"": ""face trials"", ""responses"": ""{\""Q0\"":6}"", ""task_payment"": 1, ""task_version"": 1, ""internal_node_id"": ""0.0-6.0-0.0-1.0"", ""time_elapsed"": 165343, ""imgName"": ""/static/images/2kfaces/Google_1_Timothy Galvan_11_oval.jpg"", ""questions"": ""[{\""prompt\"":\""<p>How attractive does this person look to you? Rate from 1-9</p>\"",\""labels\"":[\""1 <br/>Not attractive at all\"",\""2\"",\""3\"",\""4\"",\""5\"",\""6\"",\""7\"",\""8\"",\""9  <br/>Extremely attractive\""],\""required\"":true}]"", ""task_unique_trial"": 50, ""task_name"": ""attractive"", ""trial_index"": 7, ""isRepeat"": 0}"
A1SP3GBRZKMWZJ:3VA45EW49PUPQ1A6MJHM126W8GFO1U,8,1543385810851,"{""rt"": 3877, ""trial_type"": ""face-likert-amanda"", ""debug_mode"": ""live"", ""task_type"": ""face trials"", ""responses"": ""{\""Q0\"":7}"", ""task_payment"": 1, ""task_version"": 1, ""internal_node_id"": ""0.0-6.0-0.0-2.0"", ""time_elapsed"": 169229, ""imgName"": ""/static/images/2kfaces/Google_1_Eva Kirkman_15_oval.jpg"", ""questions"": ""[{\""prompt\"":\""<p>How attractive does this person look to you? Rate from 1-9</p>\"",\""labels\"":[\""1 <br/>Not attractive at all\"",\""2\"",\""3\"",\""4\"",\""5\"",\""6\"",\""7\"",\""8\"",\""9  <br/>Extremely attractive\""],\""required\"":true}]"", ""task_unique_trial"": 50, ""task_name"": ""attractive"", ""trial_index"": 8, ""isRepeat"": 0}"
A1SP3GBRZKMWZJ:3VA45EW49PUPQ1A6MJHM126W8GFO1U,9,1543385813155,"{""rt"": 2296, ""trial_type"": ""face-likert-amanda"", ""debug_mode"": ""live"", ""task_type"": ""face trials"", ""responses"": ""{\""Q0\"":6}"", ""task_payment"": 1, ""task_version"": 1, ""internal_node_id"": ""0.0-6.0-0.0-3.0"", ""time_elapsed"": 171533, ""imgName"": ""/static/images/2kfaces/Google_1_Sarah Woodcock_3_oval.jpg"", ""questions"": ""[{\""prompt\"":\""<p>How attractive does this person look to you? Rate from 1-9</p>\"",\""labels\"":[\""1 <br/>Not attractive at all\"",\""2\"",\""3\"",\""4\"",\""5\"",\""6\"",\""7\"",\""8\"",\""9  <br/>Extremely attractive\""],\""required\"":true}]"", ""task_unique_trial"": 50, ""task_name"": ""attractive"", ""trial_index"": 9, ""isRepeat"": 0}"
A1SP3GBRZKMWZJ:3VA45EW49PUPQ1A6MJHM126W8GFO1U,10,1543385815400,"{""rt"": 2236, ""trial_type"": ""face-likert-amanda"", ""debug_mode"": ""live"", ""task_type"": ""face trials"", ""responses"": ""{\""Q0\"":6}"", ""task_payment"": 1, ""task_version"": 1, ""internal_node_id"": ""0.0-6.0-0.0-4.0"", ""time_elapsed"": 173778, ""imgName"": ""/static/images/2kfaces/Google_1_Jonathan Marek_5_oval.jpg"", ""questions"": ""[{\""prompt\"":\""<p>How attractive does this person look to you? Rate from 1-9</p>\"",\""labels\"":[\""1 <br/>Not attractive at all\"",\""2\"",\""3\"",\""4\"",\""5\"",\""6\"",\""7\"",\""8\"",\""9  <br/>Extremely attractive\""],\""required\"":true}]"", ""task_unique_trial"": 50, ""task_name"": ""attractive"", ""trial_index"": 10, ""isRepeat"": 0}"
A1SP3GBRZKMWZJ:3VA45EW49PUPQ1A6MJHM126W8GFO1U,11,1543385817840,"{""rt"": 2434, ""trial_type"": ""face-likert-amanda"", ""debug_mode"": ""live"", ""task_type"": ""face trials"", ""responses"": ""{\""Q0\"":7}"", ""task_payment"": 1, ""task_version"": 1, ""internal_node_id"": ""0.0-6.0-0.0-5.0"", ""time_elapsed"": 176218, ""imgName"": ""/static/images/2kfaces/Google_1_Frank Whitehouse_3_oval.jpg"", ""questions"": ""[{\""prompt\"":\""<p>How attractive does this person look to you? Rate from 1-9</p>\"",\""labels\"":[\""1 <br/>Not attractive at all\"",\""2\"",\""3\"",\""4\"",\""5\"",\""6\"",\""7\"",\""8\"",\""9  <br/>Extremely attractive\""],\""required\"":true}]"", ""task_unique_trial"": 50, ""task_name"": ""attractive"", ""trial_index"": 11, ""isRepeat"": 0}"
A1SP3GBRZKMWZJ:3VA45EW49PUPQ1A6MJHM126W8GFO1U,12,1543385819912,"{""rt"": 2064, ""trial_type"": ""face-likert-amanda"", ""debug_mode"": ""live"", ""task_type"": ""face trials"", ""responses"": ""{\""Q0\"":5}"", ""task_payment"": 1, ""task_version"": 1, ""internal_node_id"": ""0.0-6.0-0.0-6.0"", ""time_elapsed"": 178290, ""imgName"": ""/static/images/2kfaces/Google_1_Samuel Goff_1_oval.jpg"", ""questions"": ""[{\""prompt\"":\""<p>How attractive does this person look to you? Rate from 1-9</p>\"",\""labels\"":[\""1 <br/>Not attractive at all\"",\""2\"",\""3\"",\""4\"",\""5\"",\""6\"",\""7\"",\""8\"",\""9  <br/>Extremely attractive\""],\""required\"":true}]"", ""task_unique_trial"": 50, ""task_name"": ""attractive"", ""trial_index"": 12, ""isRepeat"": 0}"
A1SP3GBRZKMWZJ:3VA45EW49PUPQ1A6MJHM126W8GFO1U,13,1543385824976,"{""rt"": 5056, ""trial_type"": ""face-likert-amanda"", ""debug_mode"": ""live"", ""task_type"": ""face trials"", ""responses"": ""{\""Q0\"":6}"", ""task_payment"": 1, ""task_version"": 1, ""internal_node_id"": ""0.0-6.0-0.0-7.0"", ""time_elapsed"": 183354, ""imgName"": ""/static/images/2kfaces/Google_1_Paul Horst_15_oval.jpg"", ""questions"": ""[{\""prompt\"":\""<p>How attractive does this person look to you? Rate from 1-9</p>\"",\""labels\"":[\""1 <br/>Not attractive at all\"",\""2\"",\""3\"",\""4\"",\""5\"",\""6\"",\""7\"",\""8\"",\""9  <br/>Extremely attractive\""],\""required\"":true}]"", ""task_unique_trial"": 50, ""task_name"": ""attractive"", ""trial_index"": 13, ""isRepeat"": 0}"
A1SP3GBRZKMWZJ:3VA45EW49PUPQ1A6MJHM126W8GFO1U,14,1543385827247,"{""rt"": 2265, ""trial_type"": ""face-likert-amanda"", ""debug_mode"": ""live"", ""task_type"": ""face trials"", ""responses"": ""{\""Q0\"":6}"", ""task_payment"": 1, ""task_version"": 1, ""internal_node_id"": ""0.0-6.0-0.0-8.0"", ""time_elapsed"": 185625, ""imgName"": ""/static/images/2kfaces/Google_1_Tina Middleton_7_oval.jpg"", ""questions"": ""[{\""prompt\"":\""<p>How attractive does this person look to you? Rate from 1-9</p>\"",\""labels\"":[\""1 <br/>Not attractive at all\"",\""2\"",\""3\"",\""4\"",\""5\"",\""6\"",\""7\"",\""8\"",\""9  <br/>Extremely attractive\""],\""required\"":true}]"", ""task_unique_trial"": 50, ""task_name"": ""attractive"", ""trial_index"": 14, ""isRepeat"": 0}"
A1SP3GBRZKMWZJ:3VA45EW49PUPQ1A6MJHM126W8GFO1U,15,1543385829252,"{""rt"": 1999, ""trial_type"": ""face-likert-amanda"", ""debug_mode"": ""live"", ""task_type"": ""face trials"", ""responses"": ""{\""Q0\"":7}"", ""task_payment"": 1, ""task_version"": 1, ""internal_node_id"": ""0.0-6.0-0.0-9.0"", ""time_elapsed"": 187630, ""imgName"": ""/static/images/2kfaces/Google_1_Marjorie Rule_3_oval.jpg"", ""questions"": ""[{\""prompt\"":\""<p>How attractive does this person look to you? Rate from 1-9</p>\"",\""labels\"":[\""1 <br/>Not attractive at all\"",\""2\"",\""3\"",\""4\"",\""5\"",\""6\"",\""7\"",\""8\"",\""9  <br/>Extremely attractive\""],\""required\"":true}]"", ""task_unique_trial"": 50, ""task_name"": ""attractive"", ""trial_index"": 15, ""isRepeat"": 0}"
