A2JBCLJVJ2VXVZ:3N1FSUEFL77FE3G0JSM8O611TSA4D9,0,1547968424388,"{""rt"": 10784, ""trial_type"": ""instructions"", ""view_history"": ""[{\""page_index\"":0,\""viewing_time\"":6264},{\""page_index\"":1,\""viewing_time\"":2615},{\""page_index\"":2,\""viewing_time\"":1904}]"", ""task_type"": ""instruction"", ""task_payment"": 1, ""task_version"": 1, ""internal_node_id"": ""0.0-0.0"", ""time_elapsed"": 10792, ""debug_mode"": ""live"", ""task_name"": ""attractive-modifae-single"", ""task_unique_trial"": 100, ""trial_index"": 0}"
A2JBCLJVJ2VXVZ:3N1FSUEFL77FE3G0JSM8O611TSA4D9,1,1547968447005,"{""rt"": 22572, ""trial_type"": ""survey-multi-choice"", ""task_type"": ""demographic-multichoice"", ""responses"": ""{\""Q0\"":\""26-35\"",\""Q1\"":\""Male\"",\""Q2\"":\""No\"",\""Q3\"":\""3\"",\""Q4\"":\""White\"",\""Q5\"":\""Bachelor&#8217;s degree (e.g. BA, BS) or above\"",\""Q6\"":\""$20,000  - $49,999\""}"", ""task_payment"": 1, ""task_version"": 1, ""time_elapsed"": 33409, ""sanity_check_1_continue"": true, ""random_num"": 3, ""debug_mode"": ""live"", ""questions"": ""[{\""prompt\"":\""What is your age?\"",\""options\"":[\""Under 18\"",\""18-25\"",\""26-35\"",\""36-45\"",\""46-55\"",\""56+\""],\""required\"":true},{\""prompt\"":\""What is your gender?\"",\""options\"":[\""Male\"",\""Female\"",\""Other/Prefer not to say\""],\""required\"":true},{\""prompt\"":\""Are you of Hispanic, Latino, or Spanish origin?\"",\""options\"":[\""Yes\"",\""No\""],\""required\"":true},{\""prompt\"":\""Please choose the option that matches the number here: 3\"",\""options\"":[\""1\"",\""2\"",\""3\"",\""4\""],\""required\"":true},{\""prompt\"":\""How would you describe yourself?\"",\""options\"":[\""American Indian or Alaskan Native\"",\""Asian\"",\""Black or African-American\"",\""Native Hawaiian or Other Pacific Islander\"",\""White\""],\""required\"":true},{\""prompt\"":\""What is the highest degree or level of school you have completed? (If you&#8217;re currently enrolled in school, please indicate the highest degree you have received)\"",\""options\"":[\""Less than a high school diploma\"",\""High school degree or equivalent (e.g. GED)\"",\""Some college, no degree\"",\""Associate degree (e.g. AA, AS)\"",\""Bachelor&#8217;s degree (e.g. BA, BS) or above\""],\""required\"":true},{\""prompt\"":\""What is the total income of all members of your household?\"",\""options\"":[\""Less than $20,000\"",\""$20,000  - $49,999\"",\""$50,000 - $74,999\"",\""$75,000 and above\""],\""required\"":true}]"", ""internal_node_id"": ""0.0-1.0-0.0"", ""task_unique_trial"": 100, ""task_name"": ""attractive-modifae-single"", ""trial_index"": 1}"
A2JBCLJVJ2VXVZ:3N1FSUEFL77FE3G0JSM8O611TSA4D9,2,1547968455363,"{""rt"": 8353, ""trial_type"": ""face-likert-amanda"", ""debug_mode"": ""live"", ""task_type"": ""face trials"", ""responses"": ""{\""Q0\"":5}"", ""task_payment"": 1, ""task_version"": 1, ""internal_node_id"": ""0.0-2.0-0.0-0.0"", ""time_elapsed"": 41768, ""imgName"": ""/static/images/modifAE_linspace/attractive/136248_0.446969696969697.png"", ""questions"": ""[{\""prompt\"":\""<p>How <b>attractive</b> does this person look to <b>most people</b>? Rate from 1-9</p>\"",\""labels\"":[\""1 <br/>Not attractive at all\"",\""2\"",\""3\"",\""4\"",\""5\"",\""6\"",\""7\"",\""8\"",\""9  <br/>Extremely attractive\""],\""required\"":true}]"", ""task_unique_trial"": 100, ""task_name"": ""attractive-modifae-single"", ""trial_index"": 2, ""isRepeat"": 0}"
A2JBCLJVJ2VXVZ:3N1FSUEFL77FE3G0JSM8O611TSA4D9,3,1547968460561,"{""rt"": 5196, ""trial_type"": ""face-likert-amanda"", ""debug_mode"": ""live"", ""task_type"": ""face trials"", ""responses"": ""{\""Q0\"":7}"", ""task_payment"": 1, ""task_version"": 1, ""internal_node_id"": ""0.0-2.0-0.0-1.0"", ""time_elapsed"": 46966, ""imgName"": ""/static/images/modifAE_linspace/attractive/136242_0.3560606060606062.png"", ""questions"": ""[{\""prompt\"":\""<p>How <b>attractive</b> does this person look to <b>most people</b>? Rate from 1-9</p>\"",\""labels\"":[\""1 <br/>Not attractive at all\"",\""2\"",\""3\"",\""4\"",\""5\"",\""6\"",\""7\"",\""8\"",\""9  <br/>Extremely attractive\""],\""required\"":true}]"", ""task_unique_trial"": 100, ""task_name"": ""attractive-modifae-single"", ""trial_index"": 3, ""isRepeat"": 0}"
A2JBCLJVJ2VXVZ:3N1FSUEFL77FE3G0JSM8O611TSA4D9,4,1547968463490,"{""rt"": 2925, ""trial_type"": ""face-likert-amanda"", ""debug_mode"": ""live"", ""task_type"": ""face trials"", ""responses"": ""{\""Q0\"":5}"", ""task_payment"": 1, ""task_version"": 1, ""internal_node_id"": ""0.0-2.0-0.0-2.0"", ""time_elapsed"": 49895, ""imgName"": ""/static/images/modifAE_linspace/attractive/136206_-0.18939393939393934.png"", ""questions"": ""[{\""prompt\"":\""<p>How <b>attractive</b> does this person look to <b>most people</b>? Rate from 1-9</p>\"",\""labels\"":[\""1 <br/>Not attractive at all\"",\""2\"",\""3\"",\""4\"",\""5\"",\""6\"",\""7\"",\""8\"",\""9  <br/>Extremely attractive\""],\""required\"":true}]"", ""task_unique_trial"": 100, ""task_name"": ""attractive-modifae-single"", ""trial_index"": 4, ""isRepeat"": 0}"
A2JBCLJVJ2VXVZ:3N1FSUEFL77FE3G0JSM8O611TSA4D9,5,1547968466825,"{""rt"": 3333, ""trial_type"": ""face-likert-amanda"", ""debug_mode"": ""live"", ""task_type"": ""face trials"", ""responses"": ""{\""Q0\"":6}"", ""task_payment"": 1, ""task_version"": 1, ""internal_node_id"": ""0.0-2.0-0.0-3.0"", ""time_elapsed"": 53230, ""imgName"": ""/static/images/modifAE_linspace/attractive/136187_-0.4772727272727273.png"", ""questions"": ""[{\""prompt\"":\""<p>How <b>attractive</b> does this person look to <b>most people</b>? Rate from 1-9</p>\"",\""labels\"":[\""1 <br/>Not attractive at all\"",\""2\"",\""3\"",\""4\"",\""5\"",\""6\"",\""7\"",\""8\"",\""9  <br/>Extremely attractive\""],\""required\"":true}]"", ""task_unique_trial"": 100, ""task_name"": ""attractive-modifae-single"", ""trial_index"": 5, ""isRepeat"": 0}"
A2JBCLJVJ2VXVZ:3N1FSUEFL77FE3G0JSM8O611TSA4D9,6,1547968496081,"{""rt"": 29253, ""trial_type"": ""face-likert-amanda"", ""debug_mode"": ""live"", ""task_type"": ""face trials"", ""responses"": ""{\""Q0\"":4}"", ""task_payment"": 1, ""task_version"": 1, ""internal_node_id"": ""0.0-2.0-0.0-4.0"", ""time_elapsed"": 82486, ""imgName"": ""/static/images/modifAE_linspace/attractive/136190_-0.4318181818181818.png"", ""questions"": ""[{\""prompt\"":\""<p>How <b>attractive</b> does this person look to <b>most people</b>? Rate from 1-9</p>\"",\""labels\"":[\""1 <br/>Not attractive at all\"",\""2\"",\""3\"",\""4\"",\""5\"",\""6\"",\""7\"",\""8\"",\""9  <br/>Extremely attractive\""],\""required\"":true}]"", ""task_unique_trial"": 100, ""task_name"": ""attractive-modifae-single"", ""trial_index"": 6, ""isRepeat"": 0}"
A2JBCLJVJ2VXVZ:3N1FSUEFL77FE3G0JSM8O611TSA4D9,7,1547968500085,"{""rt"": 3996, ""trial_type"": ""face-likert-amanda"", ""debug_mode"": ""live"", ""task_type"": ""face trials"", ""responses"": ""{\""Q0\"":3}"", ""task_payment"": 1, ""task_version"": 1, ""internal_node_id"": ""0.0-2.0-0.0-5.0"", ""time_elapsed"": 86490, ""imgName"": ""/static/images/modifAE_linspace/attractive/136194_-0.3712121212121212.png"", ""questions"": ""[{\""prompt\"":\""<p>How <b>attractive</b> does this person look to <b>most people</b>? Rate from 1-9</p>\"",\""labels\"":[\""1 <br/>Not attractive at all\"",\""2\"",\""3\"",\""4\"",\""5\"",\""6\"",\""7\"",\""8\"",\""9  <br/>Extremely attractive\""],\""required\"":true}]"", ""task_unique_trial"": 100, ""task_name"": ""attractive-modifae-single"", ""trial_index"": 7, ""isRepeat"": 0}"
A2JBCLJVJ2VXVZ:3N1FSUEFL77FE3G0JSM8O611TSA4D9,8,1547968504889,"{""rt"": 4801, ""trial_type"": ""face-likert-amanda"", ""debug_mode"": ""live"", ""task_type"": ""face trials"", ""responses"": ""{\""Q0\"":2}"", ""task_payment"": 1, ""task_version"": 1, ""internal_node_id"": ""0.0-2.0-0.0-6.0"", ""time_elapsed"": 91294, ""imgName"": ""/static/images/modifAE_linspace/attractive/136177_-0.6287878787878788.png"", ""questions"": ""[{\""prompt\"":\""<p>How <b>attractive</b> does this person look to <b>most people</b>? Rate from 1-9</p>\"",\""labels\"":[\""1 <br/>Not attractive at all\"",\""2\"",\""3\"",\""4\"",\""5\"",\""6\"",\""7\"",\""8\"",\""9  <br/>Extremely attractive\""],\""required\"":true}]"", ""task_unique_trial"": 100, ""task_name"": ""attractive-modifae-single"", ""trial_index"": 8, ""isRepeat"": 0}"
A2JBCLJVJ2VXVZ:3N1FSUEFL77FE3G0JSM8O611TSA4D9,9,1547968508521,"{""rt"": 3628, ""trial_type"": ""face-likert-amanda"", ""debug_mode"": ""live"", ""task_type"": ""face trials"", ""responses"": ""{\""Q0\"":5}"", ""task_payment"": 1, ""task_version"": 1, ""internal_node_id"": ""0.0-2.0-0.0-7.0"", ""time_elapsed"": 94926, ""imgName"": ""/static/images/modifAE_linspace/attractive/136263_0.6742424242424243.png"", ""questions"": ""[{\""prompt\"":\""<p>How <b>attractive</b> does this person look to <b>most people</b>? Rate from 1-9</p>\"",\""labels\"":[\""1 <br/>Not attractive at all\"",\""2\"",\""3\"",\""4\"",\""5\"",\""6\"",\""7\"",\""8\"",\""9  <br/>Extremely attractive\""],\""required\"":true}]"", ""task_unique_trial"": 100, ""task_name"": ""attractive-modifae-single"", ""trial_index"": 9, ""isRepeat"": 0}"
A2JBCLJVJ2VXVZ:3N1FSUEFL77FE3G0JSM8O611TSA4D9,10,1547968512168,"{""rt"": 3646, ""trial_type"": ""face-likert-amanda"", ""debug_mode"": ""live"", ""task_type"": ""face trials"", ""responses"": ""{\""Q0\"":7}"", ""task_payment"": 1, ""task_version"": 1, ""internal_node_id"": ""0.0-2.0-0.0-8.0"", ""time_elapsed"": 98573, ""imgName"": ""/static/images/modifAE_linspace/attractive/136185_-0.5075757575757576.png"", ""questions"": ""[{\""prompt\"":\""<p>How <b>attractive</b> does this person look to <b>most people</b>? Rate from 1-9</p>\"",\""labels\"":[\""1 <br/>Not attractive at all\"",\""2\"",\""3\"",\""4\"",\""5\"",\""6\"",\""7\"",\""8\"",\""9  <br/>Extremely attractive\""],\""required\"":true}]"", ""task_unique_trial"": 100, ""task_name"": ""attractive-modifae-single"", ""trial_index"": 10, ""isRepeat"": 0}"
A2JBCLJVJ2VXVZ:3N1FSUEFL77FE3G0JSM8O611TSA4D9,11,1547968516113,"{""rt"": 3942, ""trial_type"": ""face-likert-amanda"", ""debug_mode"": ""live"", ""task_type"": ""face trials"", ""responses"": ""{\""Q0\"":5}"", ""task_payment"": 1, ""task_version"": 1, ""internal_node_id"": ""0.0-2.0-0.0-9.0"", ""time_elapsed"": 102518, ""imgName"": ""/static/images/modifAE_linspace/attractive/136216_-0.037878787878787845.png"", ""questions"": ""[{\""prompt\"":\""<p>How <b>attractive</b> does this person look to <b>most people</b>? Rate from 1-9</p>\"",\""labels\"":[\""1 <br/>Not attractive at all\"",\""2\"",\""3\"",\""4\"",\""5\"",\""6\"",\""7\"",\""8\"",\""9  <br/>Extremely attractive\""],\""required\"":true}]"", ""task_unique_trial"": 100, ""task_name"": ""attractive-modifae-single"", ""trial_index"": 11, ""isRepeat"": 0}"
A2JBCLJVJ2VXVZ:3N1FSUEFL77FE3G0JSM8O611TSA4D9,12,1547968518117,"{""rt"": null, ""trial_type"": ""html-keyboard-response"", ""task_unique_trial"": 100, ""stimulus"": ""<p>Good job!</p>"", ""task_version"": 1, ""internal_node_id"": ""0.0-2.0-1.0"", ""task_payment"": 1, ""time_elapsed"": 104522, ""debug_mode"": ""live"", ""key_press"": null, ""task_name"": ""attractive-modifae-single"", ""trial_index"": 12}"
A2JBCLJVJ2VXVZ:3N1FSUEFL77FE3G0JSM8O611TSA4D9,13,1547968522185,"{""rt"": 4066, ""trial_type"": ""face-likert-amanda"", ""debug_mode"": ""live"", ""task_type"": ""face trials"", ""responses"": ""{\""Q0\"":7}"", ""task_payment"": 1, ""task_version"": 1, ""internal_node_id"": ""0.0-3.0-0.0-0.0"", ""time_elapsed"": 108590, ""imgName"": ""/static/images/modifAE_linspace/attractive/136200_-0.2803030303030303.png"", ""questions"": ""[{\""prompt\"":\""<p>How <b>attractive</b> does this person look to <b>most people</b>? Rate from 1-9</p>\"",\""labels\"":[\""1 <br/>Not attractive at all\"",\""2\"",\""3\"",\""4\"",\""5\"",\""6\"",\""7\"",\""8\"",\""9  <br/>Extremely attractive\""],\""required\"":true}]"", ""task_unique_trial"": 100, ""task_name"": ""attractive-modifae-single"", ""trial_index"": 13, ""isRepeat"": 0}"
A2JBCLJVJ2VXVZ:3N1FSUEFL77FE3G0JSM8O611TSA4D9,14,1547968525273,"{""rt"": 3086, ""trial_type"": ""face-likert-amanda"", ""debug_mode"": ""live"", ""task_type"": ""face trials"", ""responses"": ""{\""Q0\"":6}"", ""task_payment"": 1, ""task_version"": 1, ""internal_node_id"": ""0.0-3.0-0.0-1.0"", ""time_elapsed"": 111678, ""imgName"": ""/static/images/modifAE_linspace/attractive/136218_-0.007575757575757569.png"", ""questions"": ""[{\""prompt\"":\""<p>How <b>attractive</b> does this person look to <b>most people</b>? Rate from 1-9</p>\"",\""labels\"":[\""1 <br/>Not attractive at all\"",\""2\"",\""3\"",\""4\"",\""5\"",\""6\"",\""7\"",\""8\"",\""9  <br/>Extremely attractive\""],\""required\"":true}]"", ""task_unique_trial"": 100, ""task_name"": ""attractive-modifae-single"", ""trial_index"": 14, ""isRepeat"": 0}"
A2JBCLJVJ2VXVZ:3N1FSUEFL77FE3G0JSM8O611TSA4D9,15,1547968529626,"{""rt"": 4350, ""trial_type"": ""face-likert-amanda"", ""debug_mode"": ""live"", ""task_type"": ""face trials"", ""responses"": ""{\""Q0\"":6}"", ""task_payment"": 1, ""task_version"": 1, ""internal_node_id"": ""0.0-3.0-0.0-2.0"", ""time_elapsed"": 116031, ""imgName"": ""/static/images/modifAE_linspace/attractive/136266_0.7196969696969697.png"", ""questions"": ""[{\""prompt\"":\""<p>How <b>attractive</b> does this person look to <b>most people</b>? Rate from 1-9</p>\"",\""labels\"":[\""1 <br/>Not attractive at all\"",\""2\"",\""3\"",\""4\"",\""5\"",\""6\"",\""7\"",\""8\"",\""9  <br/>Extremely attractive\""],\""required\"":true}]"", ""task_unique_trial"": 100, ""task_name"": ""attractive-modifae-single"", ""trial_index"": 15, ""isRepeat"": 0}"
A2JBCLJVJ2VXVZ:3N1FSUEFL77FE3G0JSM8O611TSA4D9,16,1547968538657,"{""rt"": 9027, ""trial_type"": ""face-likert-amanda"", ""debug_mode"": ""live"", ""task_type"": ""face trials"", ""responses"": ""{\""Q0\"":4}"", ""task_payment"": 1, ""task_version"": 1, ""internal_node_id"": ""0.0-3.0-0.0-3.0"", ""time_elapsed"": 125062, ""imgName"": ""/static/images/modifAE_linspace/attractive/136261_0.643939393939394.png"", ""questions"": ""[{\""prompt\"":\""<p>How <b>attractive</b> does this person look to <b>most people</b>? Rate from 1-9</p>\"",\""labels\"":[\""1 <br/>Not attractive at all\"",\""2\"",\""3\"",\""4\"",\""5\"",\""6\"",\""7\"",\""8\"",\""9  <br/>Extremely attractive\""],\""required\"":true}]"", ""task_unique_trial"": 100, ""task_name"": ""attractive-modifae-single"", ""trial_index"": 16, ""isRepeat"": 0}"
A2JBCLJVJ2VXVZ:3N1FSUEFL77FE3G0JSM8O611TSA4D9,17,1547968547216,"{""rt"": 8556, ""trial_type"": ""face-likert-amanda"", ""debug_mode"": ""live"", ""task_type"": ""face trials"", ""responses"": ""{\""Q0\"":8}"", ""task_payment"": 1, ""task_version"": 1, ""internal_node_id"": ""0.0-3.0-0.0-4.0"", ""time_elapsed"": 133621, ""imgName"": ""/static/images/modifAE_linspace/attractive/136259_0.6136363636363638.png"", ""questions"": ""[{\""prompt\"":\""<p>How <b>attractive</b> does this person look to <b>most people</b>? Rate from 1-9</p>\"",\""labels\"":[\""1 <br/>Not attractive at all\"",\""2\"",\""3\"",\""4\"",\""5\"",\""6\"",\""7\"",\""8\"",\""9  <br/>Extremely attractive\""],\""required\"":true}]"", ""task_unique_trial"": 100, ""task_name"": ""attractive-modifae-single"", ""trial_index"": 17, ""isRepeat"": 0}"
A2JBCLJVJ2VXVZ:3N1FSUEFL77FE3G0JSM8O611TSA4D9,18,1547968551232,"{""rt"": 4013, ""trial_type"": ""face-likert-amanda"", ""debug_mode"": ""live"", ""task_type"": ""face trials"", ""responses"": ""{\""Q0\"":5}"", ""task_payment"": 1, ""task_version"": 1, ""internal_node_id"": ""0.0-3.0-0.0-5.0"", ""time_elapsed"": 137637, ""imgName"": ""/static/images/modifAE_linspace/attractive/136215_-0.05303030303030298.png"", ""questions"": ""[{\""prompt\"":\""<p>How <b>attractive</b> does this person look to <b>most people</b>? Rate from 1-9</p>\"",\""labels\"":[\""1 <br/>Not attractive at all\"",\""2\"",\""3\"",\""4\"",\""5\"",\""6\"",\""7\"",\""8\"",\""9  <br/>Extremely attractive\""],\""required\"":true}]"", ""task_unique_trial"": 100, ""task_name"": ""attractive-modifae-single"", ""trial_index"": 18, ""isRepeat"": 0}"
A2JBCLJVJ2VXVZ:3N1FSUEFL77FE3G0JSM8O611TSA4D9,19,1547968555449,"{""rt"": 4214, ""trial_type"": ""face-likert-amanda"", ""debug_mode"": ""live"", ""task_type"": ""face trials"", ""responses"": ""{\""Q0\"":2}"", ""task_payment"": 1, ""task_version"": 1, ""internal_node_id"": ""0.0-3.0-0.0-6.0"", ""time_elapsed"": 141854, ""imgName"": ""/static/images/modifAE_linspace/attractive/136201_-0.26515151515151514.png"", ""questions"": ""[{\""prompt\"":\""<p>How <b>attractive</b> does this person look to <b>most people</b>? Rate from 1-9</p>\"",\""labels\"":[\""1 <br/>Not attractive at all\"",\""2\"",\""3\"",\""4\"",\""5\"",\""6\"",\""7\"",\""8\"",\""9  <br/>Extremely attractive\""],\""required\"":true}]"", ""task_unique_trial"": 100, ""task_name"": ""attractive-modifae-single"", ""trial_index"": 19, ""isRepeat"": 0}"
A2JBCLJVJ2VXVZ:3N1FSUEFL77FE3G0JSM8O611TSA4D9,20,1547968576250,"{""rt"": 20799, ""trial_type"": ""face-likert-amanda"", ""debug_mode"": ""live"", ""task_type"": ""face trials"", ""responses"": ""{\""Q0\"":2}"", ""task_payment"": 1, ""task_version"": 1, ""internal_node_id"": ""0.0-3.0-0.0-7.0"", ""time_elapsed"": 162655, ""imgName"": ""/static/images/modifAE_linspace/attractive/136181_-0.5681818181818181.png"", ""questions"": ""[{\""prompt\"":\""<p>How <b>attractive</b> does this person look to <b>most people</b>? Rate from 1-9</p>\"",\""labels\"":[\""1 <br/>Not attractive at all\"",\""2\"",\""3\"",\""4\"",\""5\"",\""6\"",\""7\"",\""8\"",\""9  <br/>Extremely attractive\""],\""required\"":true}]"", ""task_unique_trial"": 100, ""task_name"": ""attractive-modifae-single"", ""trial_index"": 20, ""isRepeat"": 0}"
A2JBCLJVJ2VXVZ:3N1FSUEFL77FE3G0JSM8O611TSA4D9,21,1547968580265,"{""rt"": 4014, ""trial_type"": ""face-likert-amanda"", ""debug_mode"": ""live"", ""task_type"": ""face trials"", ""responses"": ""{\""Q0\"":7}"", ""task_payment"": 1, ""task_version"": 1, ""internal_node_id"": ""0.0-3.0-0.0-8.0"", ""time_elapsed"": 166670, ""imgName"": ""/static/images/modifAE_linspace/attractive/136220_0.022727272727272707.png"", ""questions"": ""[{\""prompt\"":\""<p>How <b>attractive</b> does this person look to <b>most people</b>? Rate from 1-9</p>\"",\""labels\"":[\""1 <br/>Not attractive at all\"",\""2\"",\""3\"",\""4\"",\""5\"",\""6\"",\""7\"",\""8\"",\""9  <br/>Extremely attractive\""],\""required\"":true}]"", ""task_unique_trial"": 100, ""task_name"": ""attractive-modifae-single"", ""trial_index"": 21, ""isRepeat"": 0}"
A2JBCLJVJ2VXVZ:3N1FSUEFL77FE3G0JSM8O611TSA4D9,22,1547968583146,"{""rt"": 2877, ""trial_type"": ""face-likert-amanda"", ""debug_mode"": ""live"", ""task_type"": ""face trials"", ""responses"": ""{\""Q0\"":8}"", ""task_payment"": 1, ""task_version"": 1, ""internal_node_id"": ""0.0-3.0-0.0-9.0"", ""time_elapsed"": 169551, ""imgName"": ""/static/images/modifAE_linspace/attractive/136246_0.41666666666666674.png"", ""questions"": ""[{\""prompt\"":\""<p>How <b>attractive</b> does this person look to <b>most people</b>? Rate from 1-9</p>\"",\""labels\"":[\""1 <br/>Not attractive at all\"",\""2\"",\""3\"",\""4\"",\""5\"",\""6\"",\""7\"",\""8\"",\""9  <br/>Extremely attractive\""],\""required\"":true}]"", ""task_unique_trial"": 100, ""task_name"": ""attractive-modifae-single"", ""trial_index"": 22, ""isRepeat"": 0}"
A2JBCLJVJ2VXVZ:3N1FSUEFL77FE3G0JSM8O611TSA4D9,23,1547968584648,"{""rt"": null, ""trial_type"": ""html-keyboard-response"", ""task_unique_trial"": 100, ""stimulus"": ""<p>Good job!</p>"", ""task_version"": 1, ""internal_node_id"": ""0.0-3.0-1.0"", ""task_payment"": 1, ""time_elapsed"": 171053, ""debug_mode"": ""live"", ""key_press"": null, ""task_name"": ""attractive-modifae-single"", ""trial_index"": 23}"
A2JBCLJVJ2VXVZ:3N1FSUEFL77FE3G0JSM8O611TSA4D9,24,1547968588009,"{""rt"": 3359, ""trial_type"": ""face-likert-amanda"", ""debug_mode"": ""live"", ""task_type"": ""face trials"", ""responses"": ""{\""Q0\"":6}"", ""task_payment"": 1, ""task_version"": 1, ""internal_node_id"": ""0.0-4.0-0.0-0.0"", ""time_elapsed"": 174414, ""imgName"": ""/static/images/modifAE_linspace/attractive/136238_0.2954545454545454.png"", ""questions"": ""[{\""prompt\"":\""<p>How <b>attractive</b> does this person look to <b>most people</b>? Rate from 1-9</p>\"",\""labels\"":[\""1 <br/>Not attractive at all\"",\""2\"",\""3\"",\""4\"",\""5\"",\""6\"",\""7\"",\""8\"",\""9  <br/>Extremely attractive\""],\""required\"":true}]"", ""task_unique_trial"": 100, ""task_name"": ""attractive-modifae-single"", ""trial_index"": 24, ""isRepeat"": 0}"
A2JBCLJVJ2VXVZ:3N1FSUEFL77FE3G0JSM8O611TSA4D9,25,1547968590761,"{""rt"": 2750, ""trial_type"": ""face-likert-amanda"", ""debug_mode"": ""live"", ""task_type"": ""face trials"", ""responses"": ""{\""Q0\"":7}"", ""task_payment"": 1, ""task_version"": 1, ""internal_node_id"": ""0.0-4.0-0.0-1.0"", ""time_elapsed"": 177166, ""imgName"": ""/static/images/modifAE_linspace/attractive/136203_-0.23484848484848486.png"", ""questions"": ""[{\""prompt\"":\""<p>How <b>attractive</b> does this person look to <b>most people</b>? Rate from 1-9</p>\"",\""labels\"":[\""1 <br/>Not attractive at all\"",\""2\"",\""3\"",\""4\"",\""5\"",\""6\"",\""7\"",\""8\"",\""9  <br/>Extremely attractive\""],\""required\"":true}]"", ""task_unique_trial"": 100, ""task_name"": ""attractive-modifae-single"", ""trial_index"": 25, ""isRepeat"": 0}"
A2JBCLJVJ2VXVZ:3N1FSUEFL77FE3G0JSM8O611TSA4D9,26,1547968618601,"{""rt"": 27837, ""trial_type"": ""face-likert-amanda"", ""debug_mode"": ""live"", ""task_type"": ""face trials"", ""responses"": ""{\""Q0\"":5}"", ""task_payment"": 1, ""task_version"": 1, ""internal_node_id"": ""0.0-4.0-0.0-2.0"", ""time_elapsed"": 205006, ""imgName"": ""/static/images/modifAE_linspace/attractive/136204_-0.21969696969696972.png"", ""questions"": ""[{\""prompt\"":\""<p>How <b>attractive</b> does this person look to <b>most people</b>? Rate from 1-9</p>\"",\""labels\"":[\""1 <br/>Not attractive at all\"",\""2\"",\""3\"",\""4\"",\""5\"",\""6\"",\""7\"",\""8\"",\""9  <br/>Extremely attractive\""],\""required\"":true}]"", ""task_unique_trial"": 100, ""task_name"": ""attractive-modifae-single"", ""trial_index"": 26, ""isRepeat"": 0}"
A2JBCLJVJ2VXVZ:3N1FSUEFL77FE3G0JSM8O611TSA4D9,27,1547968622760,"{""rt"": 4156, ""trial_type"": ""face-likert-amanda"", ""debug_mode"": ""live"", ""task_type"": ""face trials"", ""responses"": ""{\""Q0\"":6}"", ""task_payment"": 1, ""task_version"": 1, ""internal_node_id"": ""0.0-4.0-0.0-3.0"", ""time_elapsed"": 209165, ""imgName"": ""/static/images/modifAE_linspace/attractive/136175_-0.6590909090909091.png"", ""questions"": ""[{\""prompt\"":\""<p>How <b>attractive</b> does this person look to <b>most people</b>? Rate from 1-9</p>\"",\""labels\"":[\""1 <br/>Not attractive at all\"",\""2\"",\""3\"",\""4\"",\""5\"",\""6\"",\""7\"",\""8\"",\""9  <br/>Extremely attractive\""],\""required\"":true}]"", ""task_unique_trial"": 100, ""task_name"": ""attractive-modifae-single"", ""trial_index"": 27, ""isRepeat"": 0}"
A2JBCLJVJ2VXVZ:3N1FSUEFL77FE3G0JSM8O611TSA4D9,28,1547968626841,"{""rt"": 4077, ""trial_type"": ""face-likert-amanda"", ""debug_mode"": ""live"", ""task_type"": ""face trials"", ""responses"": ""{\""Q0\"":5}"", ""task_payment"": 1, ""task_version"": 1, ""internal_node_id"": ""0.0-4.0-0.0-4.0"", ""time_elapsed"": 213246, ""imgName"": ""/static/images/modifAE_linspace/attractive/136244_0.38636363636363646.png"", ""questions"": ""[{\""prompt\"":\""<p>How <b>attractive</b> does this person look to <b>most people</b>? Rate from 1-9</p>\"",\""labels\"":[\""1 <br/>Not attractive at all\"",\""2\"",\""3\"",\""4\"",\""5\"",\""6\"",\""7\"",\""8\"",\""9  <br/>Extremely attractive\""],\""required\"":true}]"", ""task_unique_trial"": 100, ""task_name"": ""attractive-modifae-single"", ""trial_index"": 28, ""isRepeat"": 0}"
A2JBCLJVJ2VXVZ:3N1FSUEFL77FE3G0JSM8O611TSA4D9,29,1547968669361,"{""rt"": 42517, ""trial_type"": ""face-likert-amanda"", ""debug_mode"": ""live"", ""task_type"": ""face trials"", ""responses"": ""{\""Q0\"":8}"", ""task_payment"": 1, ""task_version"": 1, ""internal_node_id"": ""0.0-4.0-0.0-5.0"", ""time_elapsed"": 255765, ""imgName"": ""/static/images/modifAE_linspace/attractive/136189_-0.44696969696969696.png"", ""questions"": ""[{\""prompt\"":\""<p>How <b>attractive</b> does this person look to <b>most people</b>? Rate from 1-9</p>\"",\""labels\"":[\""1 <br/>Not attractive at all\"",\""2\"",\""3\"",\""4\"",\""5\"",\""6\"",\""7\"",\""8\"",\""9  <br/>Extremely attractive\""],\""required\"":true}]"", ""task_unique_trial"": 100, ""task_name"": ""attractive-modifae-single"", ""trial_index"": 29, ""isRepeat"": 0}"
A2JBCLJVJ2VXVZ:3N1FSUEFL77FE3G0JSM8O611TSA4D9,30,1547968672704,"{""rt"": 3341, ""trial_type"": ""face-likert-amanda"", ""debug_mode"": ""live"", ""task_type"": ""face trials"", ""responses"": ""{\""Q0\"":8}"", ""task_payment"": 1, ""task_version"": 1, ""internal_node_id"": ""0.0-4.0-0.0-6.0"", ""time_elapsed"": 259109, ""imgName"": ""/static/images/modifAE_linspace/attractive/136262_0.6590909090909092.png"", ""questions"": ""[{\""prompt\"":\""<p>How <b>attractive</b> does this person look to <b>most people</b>? Rate from 1-9</p>\"",\""labels\"":[\""1 <br/>Not attractive at all\"",\""2\"",\""3\"",\""4\"",\""5\"",\""6\"",\""7\"",\""8\"",\""9  <br/>Extremely attractive\""],\""required\"":true}]"", ""task_unique_trial"": 100, ""task_name"": ""attractive-modifae-single"", ""trial_index"": 30, ""isRepeat"": 0}"
A2JBCLJVJ2VXVZ:3N1FSUEFL77FE3G0JSM8O611TSA4D9,31,1547968677336,"{""rt"": 4629, ""trial_type"": ""face-likert-amanda"", ""debug_mode"": ""live"", ""task_type"": ""face trials"", ""responses"": ""{\""Q0\"":8}"", ""task_payment"": 1, ""task_version"": 1, ""internal_node_id"": ""0.0-4.0-0.0-7.0"", ""time_elapsed"": 263741, ""imgName"": ""/static/images/modifAE_linspace/attractive/136197_-0.32575757575757575.png"", ""questions"": ""[{\""prompt\"":\""<p>How <b>attractive</b> does this person look to <b>most people</b>? Rate from 1-9</p>\"",\""labels\"":[\""1 <br/>Not attractive at all\"",\""2\"",\""3\"",\""4\"",\""5\"",\""6\"",\""7\"",\""8\"",\""9  <br/>Extremely attractive\""],\""required\"":true}]"", ""task_unique_trial"": 100, ""task_name"": ""attractive-modifae-single"", ""trial_index"": 31, ""isRepeat"": 0}"
A2JBCLJVJ2VXVZ:3N1FSUEFL77FE3G0JSM8O611TSA4D9,32,1547968680648,"{""rt"": 3309, ""trial_type"": ""face-likert-amanda"", ""debug_mode"": ""live"", ""task_type"": ""face trials"", ""responses"": ""{\""Q0\"":8}"", ""task_payment"": 1, ""task_version"": 1, ""internal_node_id"": ""0.0-4.0-0.0-8.0"", ""time_elapsed"": 267053, ""imgName"": ""/static/images/modifAE_linspace/attractive/136241_0.34090909090909083.png"", ""questions"": ""[{\""prompt\"":\""<p>How <b>attractive</b> does this person look to <b>most people</b>? Rate from 1-9</p>\"",\""labels\"":[\""1 <br/>Not attractive at all\"",\""2\"",\""3\"",\""4\"",\""5\"",\""6\"",\""7\"",\""8\"",\""9  <br/>Extremely attractive\""],\""required\"":true}]"", ""task_unique_trial"": 100, ""task_name"": ""attractive-modifae-single"", ""trial_index"": 32, ""isRepeat"": 0}"
A2JBCLJVJ2VXVZ:3N1FSUEFL77FE3G0JSM8O611TSA4D9,33,1547968684736,"{""rt"": 4085, ""trial_type"": ""face-likert-amanda"", ""debug_mode"": ""live"", ""task_type"": ""face trials"", ""responses"": ""{\""Q0\"":8}"", ""task_payment"": 1, ""task_version"": 1, ""internal_node_id"": ""0.0-4.0-0.0-9.0"", ""time_elapsed"": 271141, ""imgName"": ""/static/images/modifAE_linspace/attractive/136193_-0.38636363636363635.png"", ""questions"": ""[{\""prompt\"":\""<p>How <b>attractive</b> does this person look to <b>most people</b>? Rate from 1-9</p>\"",\""labels\"":[\""1 <br/>Not attractive at all\"",\""2\"",\""3\"",\""4\"",\""5\"",\""6\"",\""7\"",\""8\"",\""9  <br/>Extremely attractive\""],\""required\"":true}]"", ""task_unique_trial"": 100, ""task_name"": ""attractive-modifae-single"", ""trial_index"": 33, ""isRepeat"": 0}"
A2JBCLJVJ2VXVZ:3N1FSUEFL77FE3G0JSM8O611TSA4D9,34,1547968685739,"{""rt"": null, ""trial_type"": ""html-keyboard-response"", ""task_unique_trial"": 100, ""stimulus"": ""<p>Good job!</p>"", ""task_version"": 1, ""internal_node_id"": ""0.0-4.0-1.0"", ""task_payment"": 1, ""time_elapsed"": 272144, ""debug_mode"": ""live"", ""key_press"": null, ""task_name"": ""attractive-modifae-single"", ""trial_index"": 34}"
A2JBCLJVJ2VXVZ:3N1FSUEFL77FE3G0JSM8O611TSA4D9,35,1547968691800,"{""rt"": 6059, ""trial_type"": ""face-likert-amanda"", ""debug_mode"": ""live"", ""task_type"": ""face trials"", ""responses"": ""{\""Q0\"":8}"", ""task_payment"": 1, ""task_version"": 1, ""internal_node_id"": ""0.0-5.0-0.0-0.0"", ""time_elapsed"": 278205, ""imgName"": ""/static/images/modifAE_linspace/attractive/136230_0.1742424242424243.png"", ""questions"": ""[{\""prompt\"":\""<p>How <b>attractive</b> does this person look to <b>most people</b>? Rate from 1-9</p>\"",\""labels\"":[\""1 <br/>Not attractive at all\"",\""2\"",\""3\"",\""4\"",\""5\"",\""6\"",\""7\"",\""8\"",\""9  <br/>Extremely attractive\""],\""required\"":true}]"", ""task_unique_trial"": 100, ""task_name"": ""attractive-modifae-single"", ""trial_index"": 35, ""isRepeat"": 0}"
A2JBCLJVJ2VXVZ:3N1FSUEFL77FE3G0JSM8O611TSA4D9,36,1547968694640,"{""rt"": 2838, ""trial_type"": ""face-likert-amanda"", ""debug_mode"": ""live"", ""task_type"": ""face trials"", ""responses"": ""{\""Q0\"":7}"", ""task_payment"": 1, ""task_version"": 1, ""internal_node_id"": ""0.0-5.0-0.0-1.0"", ""time_elapsed"": 281044, ""imgName"": ""/static/images/modifAE_linspace/attractive/136205_-0.20454545454545459.png"", ""questions"": ""[{\""prompt\"":\""<p>How <b>attractive</b> does this person look to <b>most people</b>? Rate from 1-9</p>\"",\""labels\"":[\""1 <br/>Not attractive at all\"",\""2\"",\""3\"",\""4\"",\""5\"",\""6\"",\""7\"",\""8\"",\""9  <br/>Extremely attractive\""],\""required\"":true}]"", ""task_unique_trial"": 100, ""task_name"": ""attractive-modifae-single"", ""trial_index"": 36, ""isRepeat"": 0}"
A2JBCLJVJ2VXVZ:3N1FSUEFL77FE3G0JSM8O611TSA4D9,37,1547968697017,"{""rt"": 2375, ""trial_type"": ""face-likert-amanda"", ""debug_mode"": ""live"", ""task_type"": ""face trials"", ""responses"": ""{\""Q0\"":8}"", ""task_payment"": 1, ""task_version"": 1, ""internal_node_id"": ""0.0-5.0-0.0-2.0"", ""time_elapsed"": 283422, ""imgName"": ""/static/images/modifAE_linspace/attractive/136252_0.5075757575757576.png"", ""questions"": ""[{\""prompt\"":\""<p>How <b>attractive</b> does this person look to <b>most people</b>? Rate from 1-9</p>\"",\""labels\"":[\""1 <br/>Not attractive at all\"",\""2\"",\""3\"",\""4\"",\""5\"",\""6\"",\""7\"",\""8\"",\""9  <br/>Extremely attractive\""],\""required\"":true}]"", ""task_unique_trial"": 100, ""task_name"": ""attractive-modifae-single"", ""trial_index"": 37, ""isRepeat"": 0}"
A2JBCLJVJ2VXVZ:3N1FSUEFL77FE3G0JSM8O611TSA4D9,38,1547968700033,"{""rt"": 3012, ""trial_type"": ""face-likert-amanda"", ""debug_mode"": ""live"", ""task_type"": ""face trials"", ""responses"": ""{\""Q0\"":7}"", ""task_payment"": 1, ""task_version"": 1, ""internal_node_id"": ""0.0-5.0-0.0-3.0"", ""time_elapsed"": 286438, ""imgName"": ""/static/images/modifAE_linspace/attractive/136211_-0.11363636363636365.png"", ""questions"": ""[{\""prompt\"":\""<p>How <b>attractive</b> does this person look to <b>most people</b>? Rate from 1-9</p>\"",\""labels\"":[\""1 <br/>Not attractive at all\"",\""2\"",\""3\"",\""4\"",\""5\"",\""6\"",\""7\"",\""8\"",\""9  <br/>Extremely attractive\""],\""required\"":true}]"", ""task_unique_trial"": 100, ""task_name"": ""attractive-modifae-single"", ""trial_index"": 38, ""isRepeat"": 0}"
A2JBCLJVJ2VXVZ:3N1FSUEFL77FE3G0JSM8O611TSA4D9,39,1547968705409,"{""rt"": 5373, ""trial_type"": ""face-likert-amanda"", ""debug_mode"": ""live"", ""task_type"": ""face trials"", ""responses"": ""{\""Q0\"":8}"", ""task_payment"": 1, ""task_version"": 1, ""internal_node_id"": ""0.0-5.0-0.0-4.0"", ""time_elapsed"": 291814, ""imgName"": ""/static/images/modifAE_linspace/attractive/136176_-0.6439393939393939.png"", ""questions"": ""[{\""prompt\"":\""<p>How <b>attractive</b> does this person look to <b>most people</b>? Rate from 1-9</p>\"",\""labels\"":[\""1 <br/>Not attractive at all\"",\""2\"",\""3\"",\""4\"",\""5\"",\""6\"",\""7\"",\""8\"",\""9  <br/>Extremely attractive\""],\""required\"":true}]"", ""task_unique_trial"": 100, ""task_name"": ""attractive-modifae-single"", ""trial_index"": 39, ""isRepeat"": 0}"
A2JBCLJVJ2VXVZ:3N1FSUEFL77FE3G0JSM8O611TSA4D9,40,1547968708681,"{""rt"": 3269, ""trial_type"": ""face-likert-amanda"", ""debug_mode"": ""live"", ""task_type"": ""face trials"", ""responses"": ""{\""Q0\"":7}"", ""task_payment"": 1, ""task_version"": 1, ""internal_node_id"": ""0.0-5.0-0.0-5.0"", ""time_elapsed"": 295085, ""imgName"": ""/static/images/modifAE_linspace/attractive/136265_0.7045454545454546.png"", ""questions"": ""[{\""prompt\"":\""<p>How <b>attractive</b> does this person look to <b>most people</b>? Rate from 1-9</p>\"",\""labels\"":[\""1 <br/>Not attractive at all\"",\""2\"",\""3\"",\""4\"",\""5\"",\""6\"",\""7\"",\""8\"",\""9  <br/>Extremely attractive\""],\""required\"":true}]"", ""task_unique_trial"": 100, ""task_name"": ""attractive-modifae-single"", ""trial_index"": 40, ""isRepeat"": 0}"
A2JBCLJVJ2VXVZ:3N1FSUEFL77FE3G0JSM8O611TSA4D9,41,1547968711657,"{""rt"": 2972, ""trial_type"": ""face-likert-amanda"", ""debug_mode"": ""live"", ""task_type"": ""face trials"", ""responses"": ""{\""Q0\"":8}"", ""task_payment"": 1, ""task_version"": 1, ""internal_node_id"": ""0.0-5.0-0.0-6.0"", ""time_elapsed"": 298062, ""imgName"": ""/static/images/modifAE_linspace/attractive/136201_-0.26515151515151514.png"", ""questions"": ""[{\""prompt\"":\""<p>How <b>attractive</b> does this person look to <b>most people</b>? Rate from 1-9</p>\"",\""labels\"":[\""1 <br/>Not attractive at all\"",\""2\"",\""3\"",\""4\"",\""5\"",\""6\"",\""7\"",\""8\"",\""9  <br/>Extremely attractive\""],\""required\"":true}]"", ""task_unique_trial"": 100, ""task_name"": ""attractive-modifae-single"", ""trial_index"": 41, ""isRepeat"": 0}"
A2JBCLJVJ2VXVZ:3N1FSUEFL77FE3G0JSM8O611TSA4D9,42,1547968714569,"{""rt"": 2910, ""trial_type"": ""face-likert-amanda"", ""debug_mode"": ""live"", ""task_type"": ""face trials"", ""responses"": ""{\""Q0\"":7}"", ""task_payment"": 1, ""task_version"": 1, ""internal_node_id"": ""0.0-5.0-0.0-7.0"", ""time_elapsed"": 300974, ""imgName"": ""/static/images/modifAE_linspace/attractive/136172_-0.7045454545454546.png"", ""questions"": ""[{\""prompt\"":\""<p>How <b>attractive</b> does this person look to <b>most people</b>? Rate from 1-9</p>\"",\""labels\"":[\""1 <br/>Not attractive at all\"",\""2\"",\""3\"",\""4\"",\""5\"",\""6\"",\""7\"",\""8\"",\""9  <br/>Extremely attractive\""],\""required\"":true}]"", ""task_unique_trial"": 100, ""task_name"": ""attractive-modifae-single"", ""trial_index"": 42, ""isRepeat"": 0}"
A2JBCLJVJ2VXVZ:3N1FSUEFL77FE3G0JSM8O611TSA4D9,43,1547968718776,"{""rt"": 4204, ""trial_type"": ""face-likert-amanda"", ""debug_mode"": ""live"", ""task_type"": ""face trials"", ""responses"": ""{\""Q0\"":8}"", ""task_payment"": 1, ""task_version"": 1, ""internal_node_id"": ""0.0-5.0-0.0-8.0"", ""time_elapsed"": 305181, ""imgName"": ""/static/images/modifAE_linspace/attractive/136243_0.3712121212121213.png"", ""questions"": ""[{\""prompt\"":\""<p>How <b>attractive</b> does this person look to <b>most people</b>? Rate from 1-9</p>\"",\""labels\"":[\""1 <br/>Not attractive at all\"",\""2\"",\""3\"",\""4\"",\""5\"",\""6\"",\""7\"",\""8\"",\""9  <br/>Extremely attractive\""],\""required\"":true}]"", ""task_unique_trial"": 100, ""task_name"": ""attractive-modifae-single"", ""trial_index"": 43, ""isRepeat"": 0}"
A2JBCLJVJ2VXVZ:3N1FSUEFL77FE3G0JSM8O611TSA4D9,44,1547968721889,"{""rt"": 3109, ""trial_type"": ""face-likert-amanda"", ""debug_mode"": ""live"", ""task_type"": ""face trials"", ""responses"": ""{\""Q0\"":7}"", ""task_payment"": 1, ""task_version"": 1, ""internal_node_id"": ""0.0-5.0-0.0-9.0"", ""time_elapsed"": 308294, ""imgName"": ""/static/images/modifAE_linspace/attractive/136253_0.5227272727272727.png"", ""questions"": ""[{\""prompt\"":\""<p>How <b>attractive</b> does this person look to <b>most people</b>? Rate from 1-9</p>\"",\""labels\"":[\""1 <br/>Not attractive at all\"",\""2\"",\""3\"",\""4\"",\""5\"",\""6\"",\""7\"",\""8\"",\""9  <br/>Extremely attractive\""],\""required\"":true}]"", ""task_unique_trial"": 100, ""task_name"": ""attractive-modifae-single"", ""trial_index"": 44, ""isRepeat"": 0}"
A2JBCLJVJ2VXVZ:3N1FSUEFL77FE3G0JSM8O611TSA4D9,45,1547968723891,"{""rt"": null, ""trial_type"": ""html-keyboard-response"", ""task_unique_trial"": 100, ""stimulus"": ""<p>Good job!</p>"", ""task_version"": 1, ""internal_node_id"": ""0.0-5.0-1.0"", ""task_payment"": 1, ""time_elapsed"": 310296, ""debug_mode"": ""live"", ""key_press"": null, ""task_name"": ""attractive-modifae-single"", ""trial_index"": 45}"
A2JBCLJVJ2VXVZ:3N1FSUEFL77FE3G0JSM8O611TSA4D9,46,1547968727697,"{""rt"": 3803, ""trial_type"": ""face-likert-amanda"", ""debug_mode"": ""live"", ""task_type"": ""face trials"", ""responses"": ""{\""Q0\"":7}"", ""task_payment"": 1, ""task_version"": 1, ""internal_node_id"": ""0.0-6.0-0.0-0.0"", ""time_elapsed"": 314101, ""imgName"": ""/static/images/modifAE_linspace/attractive/136232_0.20454545454545459.png"", ""questions"": ""[{\""prompt\"":\""<p>How <b>attractive</b> does this person look to <b>most people</b>? Rate from 1-9</p>\"",\""labels\"":[\""1 <br/>Not attractive at all\"",\""2\"",\""3\"",\""4\"",\""5\"",\""6\"",\""7\"",\""8\"",\""9  <br/>Extremely attractive\""],\""required\"":true}]"", ""task_unique_trial"": 100, ""task_name"": ""attractive-modifae-single"", ""trial_index"": 46, ""isRepeat"": 0}"
A2JBCLJVJ2VXVZ:3N1FSUEFL77FE3G0JSM8O611TSA4D9,47,1547968730953,"{""rt"": 3253, ""trial_type"": ""face-likert-amanda"", ""debug_mode"": ""live"", ""task_type"": ""face trials"", ""responses"": ""{\""Q0\"":7}"", ""task_payment"": 1, ""task_version"": 1, ""internal_node_id"": ""0.0-6.0-0.0-1.0"", ""time_elapsed"": 317357, ""imgName"": ""/static/images/modifAE_linspace/attractive/136176_-0.6439393939393939.png"", ""questions"": ""[{\""prompt\"":\""<p>How <b>attractive</b> does this person look to <b>most people</b>? Rate from 1-9</p>\"",\""labels\"":[\""1 <br/>Not attractive at all\"",\""2\"",\""3\"",\""4\"",\""5\"",\""6\"",\""7\"",\""8\"",\""9  <br/>Extremely attractive\""],\""required\"":true}]"", ""task_unique_trial"": 100, ""task_name"": ""attractive-modifae-single"", ""trial_index"": 47, ""isRepeat"": 0}"
A2JBCLJVJ2VXVZ:3N1FSUEFL77FE3G0JSM8O611TSA4D9,48,1547968735728,"{""rt"": 4773, ""trial_type"": ""face-likert-amanda"", ""debug_mode"": ""live"", ""task_type"": ""face trials"", ""responses"": ""{\""Q0\"":7}"", ""task_payment"": 1, ""task_version"": 1, ""internal_node_id"": ""0.0-6.0-0.0-2.0"", ""time_elapsed"": 322133, ""imgName"": ""/static/images/modifAE_linspace/attractive/136222_0.053030303030303094.png"", ""questions"": ""[{\""prompt\"":\""<p>How <b>attractive</b> does this person look to <b>most people</b>? Rate from 1-9</p>\"",\""labels\"":[\""1 <br/>Not attractive at all\"",\""2\"",\""3\"",\""4\"",\""5\"",\""6\"",\""7\"",\""8\"",\""9  <br/>Extremely attractive\""],\""required\"":true}]"", ""task_unique_trial"": 100, ""task_name"": ""attractive-modifae-single"", ""trial_index"": 48, ""isRepeat"": 0}"
A2JBCLJVJ2VXVZ:3N1FSUEFL77FE3G0JSM8O611TSA4D9,49,1547968739504,"{""rt"": 3773, ""trial_type"": ""face-likert-amanda"", ""debug_mode"": ""live"", ""task_type"": ""face trials"", ""responses"": ""{\""Q0\"":8}"", ""task_payment"": 1, ""task_version"": 1, ""internal_node_id"": ""0.0-6.0-0.0-3.0"", ""time_elapsed"": 325909, ""imgName"": ""/static/images/modifAE_linspace/attractive/136182_-0.553030303030303.png"", ""questions"": ""[{\""prompt\"":\""<p>How <b>attractive</b> does this person look to <b>most people</b>? Rate from 1-9</p>\"",\""labels\"":[\""1 <br/>Not attractive at all\"",\""2\"",\""3\"",\""4\"",\""5\"",\""6\"",\""7\"",\""8\"",\""9  <br/>Extremely attractive\""],\""required\"":true}]"", ""task_unique_trial"": 100, ""task_name"": ""attractive-modifae-single"", ""trial_index"": 49, ""isRepeat"": 0}"
A2JBCLJVJ2VXVZ:3N1FSUEFL77FE3G0JSM8O611TSA4D9,50,1547968742808,"{""rt"": 3301, ""trial_type"": ""face-likert-amanda"", ""debug_mode"": ""live"", ""task_type"": ""face trials"", ""responses"": ""{\""Q0\"":8}"", ""task_payment"": 1, ""task_version"": 1, ""internal_node_id"": ""0.0-6.0-0.0-4.0"", ""time_elapsed"": 329213, ""imgName"": ""/static/images/modifAE_linspace/attractive/136243_0.3712121212121213.png"", ""questions"": ""[{\""prompt\"":\""<p>How <b>attractive</b> does this person look to <b>most people</b>? Rate from 1-9</p>\"",\""labels\"":[\""1 <br/>Not attractive at all\"",\""2\"",\""3\"",\""4\"",\""5\"",\""6\"",\""7\"",\""8\"",\""9  <br/>Extremely attractive\""],\""required\"":true}]"", ""task_unique_trial"": 100, ""task_name"": ""attractive-modifae-single"", ""trial_index"": 50, ""isRepeat"": 0}"
A2JBCLJVJ2VXVZ:3N1FSUEFL77FE3G0JSM8O611TSA4D9,51,1547968745880,"{""rt"": 3070, ""trial_type"": ""face-likert-amanda"", ""debug_mode"": ""live"", ""task_type"": ""face trials"", ""responses"": ""{\""Q0\"":8}"", ""task_payment"": 1, ""task_version"": 1, ""internal_node_id"": ""0.0-6.0-0.0-5.0"", ""time_elapsed"": 332285, ""imgName"": ""/static/images/modifAE_linspace/attractive/136223_0.06818181818181823.png"", ""questions"": ""[{\""prompt\"":\""<p>How <b>attractive</b> does this person look to <b>most people</b>? Rate from 1-9</p>\"",\""labels\"":[\""1 <br/>Not attractive at all\"",\""2\"",\""3\"",\""4\"",\""5\"",\""6\"",\""7\"",\""8\"",\""9  <br/>Extremely attractive\""],\""required\"":true}]"", ""task_unique_trial"": 100, ""task_name"": ""attractive-modifae-single"", ""trial_index"": 51, ""isRepeat"": 0}"
A2JBCLJVJ2VXVZ:3N1FSUEFL77FE3G0JSM8O611TSA4D9,52,1547968749264,"{""rt"": 3380, ""trial_type"": ""face-likert-amanda"", ""debug_mode"": ""live"", ""task_type"": ""face trials"", ""responses"": ""{\""Q0\"":7}"", ""task_payment"": 1, ""task_version"": 1, ""internal_node_id"": ""0.0-6.0-0.0-6.0"", ""time_elapsed"": 335669, ""imgName"": ""/static/images/modifAE_linspace/attractive/136234_0.23484848484848486.png"", ""questions"": ""[{\""prompt\"":\""<p>How <b>attractive</b> does this person look to <b>most people</b>? Rate from 1-9</p>\"",\""labels\"":[\""1 <br/>Not attractive at all\"",\""2\"",\""3\"",\""4\"",\""5\"",\""6\"",\""7\"",\""8\"",\""9  <br/>Extremely attractive\""],\""required\"":true}]"", ""task_unique_trial"": 100, ""task_name"": ""attractive-modifae-single"", ""trial_index"": 52, ""isRepeat"": 0}"
A2JBCLJVJ2VXVZ:3N1FSUEFL77FE3G0JSM8O611TSA4D9,53,1547968753184,"{""rt"": 3918, ""trial_type"": ""face-likert-amanda"", ""debug_mode"": ""live"", ""task_type"": ""face trials"", ""responses"": ""{\""Q0\"":7}"", ""task_payment"": 1, ""task_version"": 1, ""internal_node_id"": ""0.0-6.0-0.0-7.0"", ""time_elapsed"": 339589, ""imgName"": ""/static/images/modifAE_linspace/attractive/136217_-0.022727272727272707.png"", ""questions"": ""[{\""prompt\"":\""<p>How <b>attractive</b> does this person look to <b>most people</b>? Rate from 1-9</p>\"",\""labels\"":[\""1 <br/>Not attractive at all\"",\""2\"",\""3\"",\""4\"",\""5\"",\""6\"",\""7\"",\""8\"",\""9  <br/>Extremely attractive\""],\""required\"":true}]"", ""task_unique_trial"": 100, ""task_name"": ""attractive-modifae-single"", ""trial_index"": 53, ""isRepeat"": 0}"
A2JBCLJVJ2VXVZ:3N1FSUEFL77FE3G0JSM8O611TSA4D9,54,1547968755728,"{""rt"": 2542, ""trial_type"": ""face-likert-amanda"", ""debug_mode"": ""live"", ""task_type"": ""face trials"", ""responses"": ""{\""Q0\"":8}"", ""task_payment"": 1, ""task_version"": 1, ""internal_node_id"": ""0.0-6.0-0.0-8.0"", ""time_elapsed"": 342133, ""imgName"": ""/static/images/modifAE_linspace/attractive/136202_-0.25.png"", ""questions"": ""[{\""prompt\"":\""<p>How <b>attractive</b> does this person look to <b>most people</b>? Rate from 1-9</p>\"",\""labels\"":[\""1 <br/>Not attractive at all\"",\""2\"",\""3\"",\""4\"",\""5\"",\""6\"",\""7\"",\""8\"",\""9  <br/>Extremely attractive\""],\""required\"":true}]"", ""task_unique_trial"": 100, ""task_name"": ""attractive-modifae-single"", ""trial_index"": 54, ""isRepeat"": 0}"
A2JBCLJVJ2VXVZ:3N1FSUEFL77FE3G0JSM8O611TSA4D9,55,1547968760192,"{""rt"": 4462, ""trial_type"": ""face-likert-amanda"", ""debug_mode"": ""live"", ""task_type"": ""face trials"", ""responses"": ""{\""Q0\"":8}"", ""task_payment"": 1, ""task_version"": 1, ""internal_node_id"": ""0.0-6.0-0.0-9.0"", ""time_elapsed"": 346597, ""imgName"": ""/static/images/modifAE_linspace/attractive/136228_0.14393939393939392.png"", ""questions"": ""[{\""prompt\"":\""<p>How <b>attractive</b> does this person look to <b>most people</b>? Rate from 1-9</p>\"",\""labels\"":[\""1 <br/>Not attractive at all\"",\""2\"",\""3\"",\""4\"",\""5\"",\""6\"",\""7\"",\""8\"",\""9  <br/>Extremely attractive\""],\""required\"":true}]"", ""task_unique_trial"": 100, ""task_name"": ""attractive-modifae-single"", ""trial_index"": 55, ""isRepeat"": 0}"
A2JBCLJVJ2VXVZ:3N1FSUEFL77FE3G0JSM8O611TSA4D9,56,1547968761695,"{""rt"": null, ""trial_type"": ""html-keyboard-response"", ""task_unique_trial"": 100, ""stimulus"": ""<p>Good job!</p>"", ""task_version"": 1, ""internal_node_id"": ""0.0-6.0-1.0"", ""task_payment"": 1, ""time_elapsed"": 348100, ""debug_mode"": ""live"", ""key_press"": null, ""task_name"": ""attractive-modifae-single"", ""trial_index"": 56}"
A2JBCLJVJ2VXVZ:3N1FSUEFL77FE3G0JSM8O611TSA4D9,57,1547968765496,"{""rt"": 3798, ""trial_type"": ""face-likert-amanda"", ""debug_mode"": ""live"", ""task_type"": ""face trials"", ""responses"": ""{\""Q0\"":8}"", ""task_payment"": 1, ""task_version"": 1, ""internal_node_id"": ""0.0-7.0-0.0-0.0"", ""time_elapsed"": 351901, ""imgName"": ""/static/images/modifAE_linspace/attractive/136212_-0.09848484848484851.png"", ""questions"": ""[{\""prompt\"":\""<p>How <b>attractive</b> does this person look to <b>most people</b>? Rate from 1-9</p>\"",\""labels\"":[\""1 <br/>Not attractive at all\"",\""2\"",\""3\"",\""4\"",\""5\"",\""6\"",\""7\"",\""8\"",\""9  <br/>Extremely attractive\""],\""required\"":true}]"", ""task_unique_trial"": 100, ""task_name"": ""attractive-modifae-single"", ""trial_index"": 57, ""isRepeat"": 0}"
A2JBCLJVJ2VXVZ:3N1FSUEFL77FE3G0JSM8O611TSA4D9,58,1547968770160,"{""rt"": 4662, ""trial_type"": ""face-likert-amanda"", ""debug_mode"": ""live"", ""task_type"": ""face trials"", ""responses"": ""{\""Q0\"":8}"", ""task_payment"": 1, ""task_version"": 1, ""internal_node_id"": ""0.0-7.0-0.0-1.0"", ""time_elapsed"": 356564, ""imgName"": ""/static/images/modifAE_linspace/attractive/136170_-0.7348484848484849.png"", ""questions"": ""[{\""prompt\"":\""<p>How <b>attractive</b> does this person look to <b>most people</b>? Rate from 1-9</p>\"",\""labels\"":[\""1 <br/>Not attractive at all\"",\""2\"",\""3\"",\""4\"",\""5\"",\""6\"",\""7\"",\""8\"",\""9  <br/>Extremely attractive\""],\""required\"":true}]"", ""task_unique_trial"": 100, ""task_name"": ""attractive-modifae-single"", ""trial_index"": 58, ""isRepeat"": 0}"
A2JBCLJVJ2VXVZ:3N1FSUEFL77FE3G0JSM8O611TSA4D9,59,1547968772952,"{""rt"": 2789, ""trial_type"": ""face-likert-amanda"", ""debug_mode"": ""live"", ""task_type"": ""face trials"", ""responses"": ""{\""Q0\"":8}"", ""task_payment"": 1, ""task_version"": 1, ""internal_node_id"": ""0.0-7.0-0.0-2.0"", ""time_elapsed"": 359357, ""imgName"": ""/static/images/modifAE_linspace/attractive/136225_0.09848484848484851.png"", ""questions"": ""[{\""prompt\"":\""<p>How <b>attractive</b> does this person look to <b>most people</b>? Rate from 1-9</p>\"",\""labels\"":[\""1 <br/>Not attractive at all\"",\""2\"",\""3\"",\""4\"",\""5\"",\""6\"",\""7\"",\""8\"",\""9  <br/>Extremely attractive\""],\""required\"":true}]"", ""task_unique_trial"": 100, ""task_name"": ""attractive-modifae-single"", ""trial_index"": 59, ""isRepeat"": 0}"
A2JBCLJVJ2VXVZ:3N1FSUEFL77FE3G0JSM8O611TSA4D9,60,1547968776360,"{""rt"": 3405, ""trial_type"": ""face-likert-amanda"", ""debug_mode"": ""live"", ""task_type"": ""face trials"", ""responses"": ""{\""Q0\"":8}"", ""task_payment"": 1, ""task_version"": 1, ""internal_node_id"": ""0.0-7.0-0.0-3.0"", ""time_elapsed"": 362765, ""imgName"": ""/static/images/modifAE_linspace/attractive/136231_0.18939393939393945.png"", ""questions"": ""[{\""prompt\"":\""<p>How <b>attractive</b> does this person look to <b>most people</b>? Rate from 1-9</p>\"",\""labels\"":[\""1 <br/>Not attractive at all\"",\""2\"",\""3\"",\""4\"",\""5\"",\""6\"",\""7\"",\""8\"",\""9  <br/>Extremely attractive\""],\""required\"":true}]"", ""task_unique_trial"": 100, ""task_name"": ""attractive-modifae-single"", ""trial_index"": 60, ""isRepeat"": 0}"
A2JBCLJVJ2VXVZ:3N1FSUEFL77FE3G0JSM8O611TSA4D9,61,1547968778736,"{""rt"": 2372, ""trial_type"": ""face-likert-amanda"", ""debug_mode"": ""live"", ""task_type"": ""face trials"", ""responses"": ""{\""Q0\"":7}"", ""task_payment"": 1, ""task_version"": 1, ""internal_node_id"": ""0.0-7.0-0.0-4.0"", ""time_elapsed"": 365141, ""imgName"": ""/static/images/modifAE_linspace/attractive/136232_0.20454545454545459.png"", ""questions"": ""[{\""prompt\"":\""<p>How <b>attractive</b> does this person look to <b>most people</b>? Rate from 1-9</p>\"",\""labels\"":[\""1 <br/>Not attractive at all\"",\""2\"",\""3\"",\""4\"",\""5\"",\""6\"",\""7\"",\""8\"",\""9  <br/>Extremely attractive\""],\""required\"":true}]"", ""task_unique_trial"": 100, ""task_name"": ""attractive-modifae-single"", ""trial_index"": 61, ""isRepeat"": 0}"
A2JBCLJVJ2VXVZ:3N1FSUEFL77FE3G0JSM8O611TSA4D9,62,1547968780896,"{""rt"": 2157, ""trial_type"": ""face-likert-amanda"", ""debug_mode"": ""live"", ""task_type"": ""face trials"", ""responses"": ""{\""Q0\"":8}"", ""task_payment"": 1, ""task_version"": 1, ""internal_node_id"": ""0.0-7.0-0.0-5.0"", ""time_elapsed"": 367301, ""imgName"": ""/static/images/modifAE_linspace/attractive/136250_0.4772727272727273.png"", ""questions"": ""[{\""prompt\"":\""<p>How <b>attractive</b> does this person look to <b>most people</b>? Rate from 1-9</p>\"",\""labels\"":[\""1 <br/>Not attractive at all\"",\""2\"",\""3\"",\""4\"",\""5\"",\""6\"",\""7\"",\""8\"",\""9  <br/>Extremely attractive\""],\""required\"":true}]"", ""task_unique_trial"": 100, ""task_name"": ""attractive-modifae-single"", ""trial_index"": 62, ""isRepeat"": 0}"
A2JBCLJVJ2VXVZ:3N1FSUEFL77FE3G0JSM8O611TSA4D9,63,1547968783216,"{""rt"": 2317, ""trial_type"": ""face-likert-amanda"", ""debug_mode"": ""live"", ""task_type"": ""face trials"", ""responses"": ""{\""Q0\"":8}"", ""task_payment"": 1, ""task_version"": 1, ""internal_node_id"": ""0.0-7.0-0.0-6.0"", ""time_elapsed"": 369621, ""imgName"": ""/static/images/modifAE_linspace/attractive/136179_-0.5984848484848485.png"", ""questions"": ""[{\""prompt\"":\""<p>How <b>attractive</b> does this person look to <b>most people</b>? Rate from 1-9</p>\"",\""labels\"":[\""1 <br/>Not attractive at all\"",\""2\"",\""3\"",\""4\"",\""5\"",\""6\"",\""7\"",\""8\"",\""9  <br/>Extremely attractive\""],\""required\"":true}]"", ""task_unique_trial"": 100, ""task_name"": ""attractive-modifae-single"", ""trial_index"": 63, ""isRepeat"": 0}"
A2JBCLJVJ2VXVZ:3N1FSUEFL77FE3G0JSM8O611TSA4D9,64,1547968786200,"{""rt"": 2981, ""trial_type"": ""face-likert-amanda"", ""debug_mode"": ""live"", ""task_type"": ""face trials"", ""responses"": ""{\""Q0\"":8}"", ""task_payment"": 1, ""task_version"": 1, ""internal_node_id"": ""0.0-7.0-0.0-7.0"", ""time_elapsed"": 372605, ""imgName"": ""/static/images/modifAE_linspace/attractive/136209_-0.14393939393939392.png"", ""questions"": ""[{\""prompt\"":\""<p>How <b>attractive</b> does this person look to <b>most people</b>? Rate from 1-9</p>\"",\""labels\"":[\""1 <br/>Not attractive at all\"",\""2\"",\""3\"",\""4\"",\""5\"",\""6\"",\""7\"",\""8\"",\""9  <br/>Extremely attractive\""],\""required\"":true}]"", ""task_unique_trial"": 100, ""task_name"": ""attractive-modifae-single"", ""trial_index"": 64, ""isRepeat"": 0}"
A2JBCLJVJ2VXVZ:3N1FSUEFL77FE3G0JSM8O611TSA4D9,65,1547968789864,"{""rt"": 3661, ""trial_type"": ""face-likert-amanda"", ""debug_mode"": ""live"", ""task_type"": ""face trials"", ""responses"": ""{\""Q0\"":8}"", ""task_payment"": 1, ""task_version"": 1, ""internal_node_id"": ""0.0-7.0-0.0-8.0"", ""time_elapsed"": 376269, ""imgName"": ""/static/images/modifAE_linspace/attractive/136246_0.41666666666666674.png"", ""questions"": ""[{\""prompt\"":\""<p>How <b>attractive</b> does this person look to <b>most people</b>? Rate from 1-9</p>\"",\""labels\"":[\""1 <br/>Not attractive at all\"",\""2\"",\""3\"",\""4\"",\""5\"",\""6\"",\""7\"",\""8\"",\""9  <br/>Extremely attractive\""],\""required\"":true}]"", ""task_unique_trial"": 100, ""task_name"": ""attractive-modifae-single"", ""trial_index"": 65, ""isRepeat"": 0}"
A2JBCLJVJ2VXVZ:3N1FSUEFL77FE3G0JSM8O611TSA4D9,66,1547968791906,"{""rt"": 2037, ""trial_type"": ""face-likert-amanda"", ""debug_mode"": ""live"", ""task_type"": ""face trials"", ""responses"": ""{\""Q0\"":8}"", ""task_payment"": 1, ""task_version"": 1, ""internal_node_id"": ""0.0-7.0-0.0-9.0"", ""time_elapsed"": 378310, ""imgName"": ""/static/images/modifAE_linspace/attractive/136221_0.037878787878787845.png"", ""questions"": ""[{\""prompt\"":\""<p>How <b>attractive</b> does this person look to <b>most people</b>? Rate from 1-9</p>\"",\""labels\"":[\""1 <br/>Not attractive at all\"",\""2\"",\""3\"",\""4\"",\""5\"",\""6\"",\""7\"",\""8\"",\""9  <br/>Extremely attractive\""],\""required\"":true}]"", ""task_unique_trial"": 100, ""task_name"": ""attractive-modifae-single"", ""trial_index"": 66, ""isRepeat"": 0}"
A2JBCLJVJ2VXVZ:3N1FSUEFL77FE3G0JSM8O611TSA4D9,67,1547968793908,"{""rt"": null, ""trial_type"": ""html-keyboard-response"", ""task_unique_trial"": 100, ""stimulus"": ""<p>Good job!</p>"", ""task_version"": 1, ""internal_node_id"": ""0.0-7.0-1.0"", ""task_payment"": 1, ""time_elapsed"": 380313, ""debug_mode"": ""live"", ""key_press"": null, ""task_name"": ""attractive-modifae-single"", ""trial_index"": 67}"
A2JBCLJVJ2VXVZ:3N1FSUEFL77FE3G0JSM8O611TSA4D9,68,1547968799178,"{""rt"": 5264, ""trial_type"": ""face-likert-amanda"", ""debug_mode"": ""live"", ""task_type"": ""face trials"", ""responses"": ""{\""Q0\"":8}"", ""task_payment"": 1, ""task_version"": 1, ""internal_node_id"": ""0.0-8.0-0.0-0.0"", ""time_elapsed"": 385580, ""imgName"": ""/static/images/modifAE_linspace/attractive/136190_-0.4318181818181818.png"", ""questions"": ""[{\""prompt\"":\""<p>How <b>attractive</b> does this person look to <b>most people</b>? Rate from 1-9</p>\"",\""labels\"":[\""1 <br/>Not attractive at all\"",\""2\"",\""3\"",\""4\"",\""5\"",\""6\"",\""7\"",\""8\"",\""9  <br/>Extremely attractive\""],\""required\"":true}]"", ""task_unique_trial"": 100, ""task_name"": ""attractive-modifae-single"", ""trial_index"": 68, ""isRepeat"": 0}"
A2JBCLJVJ2VXVZ:3N1FSUEFL77FE3G0JSM8O611TSA4D9,69,1547968803271,"{""rt"": 4090, ""trial_type"": ""face-likert-amanda"", ""debug_mode"": ""live"", ""task_type"": ""face trials"", ""responses"": ""{\""Q0\"":8}"", ""task_payment"": 1, ""task_version"": 1, ""internal_node_id"": ""0.0-8.0-0.0-1.0"", ""time_elapsed"": 389676, ""imgName"": ""/static/images/modifAE_linspace/attractive/136224_0.08333333333333337.png"", ""questions"": ""[{\""prompt\"":\""<p>How <b>attractive</b> does this person look to <b>most people</b>? Rate from 1-9</p>\"",\""labels\"":[\""1 <br/>Not attractive at all\"",\""2\"",\""3\"",\""4\"",\""5\"",\""6\"",\""7\"",\""8\"",\""9  <br/>Extremely attractive\""],\""required\"":true}]"", ""task_unique_trial"": 100, ""task_name"": ""attractive-modifae-single"", ""trial_index"": 69, ""isRepeat"": 0}"
A2JBCLJVJ2VXVZ:3N1FSUEFL77FE3G0JSM8O611TSA4D9,70,1547968806975,"{""rt"": 3702, ""trial_type"": ""face-likert-amanda"", ""debug_mode"": ""live"", ""task_type"": ""face trials"", ""responses"": ""{\""Q0\"":8}"", ""task_payment"": 1, ""task_version"": 1, ""internal_node_id"": ""0.0-8.0-0.0-2.0"", ""time_elapsed"": 393380, ""imgName"": ""/static/images/modifAE_linspace/attractive/136189_-0.44696969696969696.png"", ""questions"": ""[{\""prompt\"":\""<p>How <b>attractive</b> does this person look to <b>most people</b>? Rate from 1-9</p>\"",\""labels\"":[\""1 <br/>Not attractive at all\"",\""2\"",\""3\"",\""4\"",\""5\"",\""6\"",\""7\"",\""8\"",\""9  <br/>Extremely attractive\""],\""required\"":true}]"", ""task_unique_trial"": 100, ""task_name"": ""attractive-modifae-single"", ""trial_index"": 70, ""isRepeat"": 0}"
A2JBCLJVJ2VXVZ:3N1FSUEFL77FE3G0JSM8O611TSA4D9,71,1547968810039,"{""rt"": 3061, ""trial_type"": ""face-likert-amanda"", ""debug_mode"": ""live"", ""task_type"": ""face trials"", ""responses"": ""{\""Q0\"":8}"", ""task_payment"": 1, ""task_version"": 1, ""internal_node_id"": ""0.0-8.0-0.0-3.0"", ""time_elapsed"": 396444, ""imgName"": ""/static/images/modifAE_linspace/attractive/136249_0.46212121212121215.png"", ""questions"": ""[{\""prompt\"":\""<p>How <b>attractive</b> does this person look to <b>most people</b>? Rate from 1-9</p>\"",\""labels\"":[\""1 <br/>Not attractive at all\"",\""2\"",\""3\"",\""4\"",\""5\"",\""6\"",\""7\"",\""8\"",\""9  <br/>Extremely attractive\""],\""required\"":true}]"", ""task_unique_trial"": 100, ""task_name"": ""attractive-modifae-single"", ""trial_index"": 71, ""isRepeat"": 0}"
A2JBCLJVJ2VXVZ:3N1FSUEFL77FE3G0JSM8O611TSA4D9,72,1547968825079,"{""rt"": 15038, ""trial_type"": ""face-likert-amanda"", ""debug_mode"": ""live"", ""task_type"": ""face trials"", ""responses"": ""{\""Q0\"":8}"", ""task_payment"": 1, ""task_version"": 1, ""internal_node_id"": ""0.0-8.0-0.0-4.0"", ""time_elapsed"": 411484, ""imgName"": ""/static/images/modifAE_linspace/attractive/136179_-0.5984848484848485.png"", ""questions"": ""[{\""prompt\"":\""<p>How <b>attractive</b> does this person look to <b>most people</b>? Rate from 1-9</p>\"",\""labels\"":[\""1 <br/>Not attractive at all\"",\""2\"",\""3\"",\""4\"",\""5\"",\""6\"",\""7\"",\""8\"",\""9  <br/>Extremely attractive\""],\""required\"":true}]"", ""task_unique_trial"": 100, ""task_name"": ""attractive-modifae-single"", ""trial_index"": 72, ""isRepeat"": 0}"
A2JBCLJVJ2VXVZ:3N1FSUEFL77FE3G0JSM8O611TSA4D9,73,1547968830688,"{""rt"": 5605, ""trial_type"": ""face-likert-amanda"", ""debug_mode"": ""live"", ""task_type"": ""face trials"", ""responses"": ""{\""Q0\"":8}"", ""task_payment"": 1, ""task_version"": 1, ""internal_node_id"": ""0.0-8.0-0.0-5.0"", ""time_elapsed"": 417093, ""imgName"": ""/static/images/modifAE_linspace/attractive/136264_0.6893939393939394.png"", ""questions"": ""[{\""prompt\"":\""<p>How <b>attractive</b> does this person look to <b>most people</b>? Rate from 1-9</p>\"",\""labels\"":[\""1 <br/>Not attractive at all\"",\""2\"",\""3\"",\""4\"",\""5\"",\""6\"",\""7\"",\""8\"",\""9  <br/>Extremely attractive\""],\""required\"":true}]"", ""task_unique_trial"": 100, ""task_name"": ""attractive-modifae-single"", ""trial_index"": 73, ""isRepeat"": 0}"
A2JBCLJVJ2VXVZ:3N1FSUEFL77FE3G0JSM8O611TSA4D9,74,1547968833360,"{""rt"": 2669, ""trial_type"": ""face-likert-amanda"", ""debug_mode"": ""live"", ""task_type"": ""face trials"", ""responses"": ""{\""Q0\"":8}"", ""task_payment"": 1, ""task_version"": 1, ""internal_node_id"": ""0.0-8.0-0.0-6.0"", ""time_elapsed"": 419765, ""imgName"": ""/static/images/modifAE_linspace/attractive/136172_-0.7045454545454546.png"", ""questions"": ""[{\""prompt\"":\""<p>How <b>attractive</b> does this person look to <b>most people</b>? Rate from 1-9</p>\"",\""labels\"":[\""1 <br/>Not attractive at all\"",\""2\"",\""3\"",\""4\"",\""5\"",\""6\"",\""7\"",\""8\"",\""9  <br/>Extremely attractive\""],\""required\"":true}]"", ""task_unique_trial"": 100, ""task_name"": ""attractive-modifae-single"", ""trial_index"": 74, ""isRepeat"": 0}"
A2JBCLJVJ2VXVZ:3N1FSUEFL77FE3G0JSM8O611TSA4D9,75,1547968836912,"{""rt"": 3549, ""trial_type"": ""face-likert-amanda"", ""debug_mode"": ""live"", ""task_type"": ""face trials"", ""responses"": ""{\""Q0\"":8}"", ""task_payment"": 1, ""task_version"": 1, ""internal_node_id"": ""0.0-8.0-0.0-7.0"", ""time_elapsed"": 423317, ""imgName"": ""/static/images/modifAE_linspace/attractive/136213_-0.08333333333333326.png"", ""questions"": ""[{\""prompt\"":\""<p>How <b>attractive</b> does this person look to <b>most people</b>? Rate from 1-9</p>\"",\""labels\"":[\""1 <br/>Not attractive at all\"",\""2\"",\""3\"",\""4\"",\""5\"",\""6\"",\""7\"",\""8\"",\""9  <br/>Extremely attractive\""],\""required\"":true}]"", ""task_unique_trial"": 100, ""task_name"": ""attractive-modifae-single"", ""trial_index"": 75, ""isRepeat"": 0}"
A2JBCLJVJ2VXVZ:3N1FSUEFL77FE3G0JSM8O611TSA4D9,76,1547968840672,"{""rt"": 3756, ""trial_type"": ""face-likert-amanda"", ""debug_mode"": ""live"", ""task_type"": ""face trials"", ""responses"": ""{\""Q0\"":8}"", ""task_payment"": 1, ""task_version"": 1, ""internal_node_id"": ""0.0-8.0-0.0-8.0"", ""time_elapsed"": 427077, ""imgName"": ""/static/images/modifAE_linspace/attractive/136267_0.7348484848484849.png"", ""questions"": ""[{\""prompt\"":\""<p>How <b>attractive</b> does this person look to <b>most people</b>? Rate from 1-9</p>\"",\""labels\"":[\""1 <br/>Not attractive at all\"",\""2\"",\""3\"",\""4\"",\""5\"",\""6\"",\""7\"",\""8\"",\""9  <br/>Extremely attractive\""],\""required\"":true}]"", ""task_unique_trial"": 100, ""task_name"": ""attractive-modifae-single"", ""trial_index"": 76, ""isRepeat"": 0}"
A2JBCLJVJ2VXVZ:3N1FSUEFL77FE3G0JSM8O611TSA4D9,77,1547968843311,"{""rt"": 2636, ""trial_type"": ""face-likert-amanda"", ""debug_mode"": ""live"", ""task_type"": ""face trials"", ""responses"": ""{\""Q0\"":7}"", ""task_payment"": 1, ""task_version"": 1, ""internal_node_id"": ""0.0-8.0-0.0-9.0"", ""time_elapsed"": 429716, ""imgName"": ""/static/images/modifAE_linspace/attractive/136222_0.053030303030303094.png"", ""questions"": ""[{\""prompt\"":\""<p>How <b>attractive</b> does this person look to <b>most people</b>? Rate from 1-9</p>\"",\""labels\"":[\""1 <br/>Not attractive at all\"",\""2\"",\""3\"",\""4\"",\""5\"",\""6\"",\""7\"",\""8\"",\""9  <br/>Extremely attractive\""],\""required\"":true}]"", ""task_unique_trial"": 100, ""task_name"": ""attractive-modifae-single"", ""trial_index"": 77, ""isRepeat"": 0}"
A2JBCLJVJ2VXVZ:3N1FSUEFL77FE3G0JSM8O611TSA4D9,78,1547968844814,"{""rt"": null, ""trial_type"": ""html-keyboard-response"", ""task_unique_trial"": 100, ""stimulus"": ""<p>Good job!</p>"", ""task_version"": 1, ""internal_node_id"": ""0.0-8.0-1.0"", ""task_payment"": 1, ""time_elapsed"": 431219, ""debug_mode"": ""live"", ""key_press"": null, ""task_name"": ""attractive-modifae-single"", ""trial_index"": 78}"
A2JBCLJVJ2VXVZ:3N1FSUEFL77FE3G0JSM8O611TSA4D9,79,1547968847832,"{""rt"": 3015, ""trial_type"": ""face-likert-amanda"", ""debug_mode"": ""live"", ""task_type"": ""face trials"", ""responses"": ""{\""Q0\"":8}"", ""task_payment"": 1, ""task_version"": 1, ""internal_node_id"": ""0.0-9.0-0.0-0.0"", ""time_elapsed"": 434237, ""imgName"": ""/static/images/modifAE_linspace/attractive/136215_-0.05303030303030298.png"", ""questions"": ""[{\""prompt\"":\""<p>How <b>attractive</b> does this person look to <b>most people</b>? Rate from 1-9</p>\"",\""labels\"":[\""1 <br/>Not attractive at all\"",\""2\"",\""3\"",\""4\"",\""5\"",\""6\"",\""7\"",\""8\"",\""9  <br/>Extremely attractive\""],\""required\"":true}]"", ""task_unique_trial"": 100, ""task_name"": ""attractive-modifae-single"", ""trial_index"": 79, ""isRepeat"": 0}"
A2JBCLJVJ2VXVZ:3N1FSUEFL77FE3G0JSM8O611TSA4D9,80,1547968850247,"{""rt"": 2412, ""trial_type"": ""face-likert-amanda"", ""debug_mode"": ""live"", ""task_type"": ""face trials"", ""responses"": ""{\""Q0\"":8}"", ""task_payment"": 1, ""task_version"": 1, ""internal_node_id"": ""0.0-9.0-0.0-1.0"", ""time_elapsed"": 436652, ""imgName"": ""/static/images/modifAE_linspace/attractive/136221_0.037878787878787845.png"", ""questions"": ""[{\""prompt\"":\""<p>How <b>attractive</b> does this person look to <b>most people</b>? Rate from 1-9</p>\"",\""labels\"":[\""1 <br/>Not attractive at all\"",\""2\"",\""3\"",\""4\"",\""5\"",\""6\"",\""7\"",\""8\"",\""9  <br/>Extremely attractive\""],\""required\"":true}]"", ""task_unique_trial"": 100, ""task_name"": ""attractive-modifae-single"", ""trial_index"": 80, ""isRepeat"": 0}"
A2JBCLJVJ2VXVZ:3N1FSUEFL77FE3G0JSM8O611TSA4D9,81,1547968852776,"{""rt"": 2524, ""trial_type"": ""face-likert-amanda"", ""debug_mode"": ""live"", ""task_type"": ""face trials"", ""responses"": ""{\""Q0\"":8}"", ""task_payment"": 1, ""task_version"": 1, ""internal_node_id"": ""0.0-9.0-0.0-2.0"", ""time_elapsed"": 439181, ""imgName"": ""/static/images/modifAE_linspace/attractive/136239_0.31060606060606055.png"", ""questions"": ""[{\""prompt\"":\""<p>How <b>attractive</b> does this person look to <b>most people</b>? Rate from 1-9</p>\"",\""labels\"":[\""1 <br/>Not attractive at all\"",\""2\"",\""3\"",\""4\"",\""5\"",\""6\"",\""7\"",\""8\"",\""9  <br/>Extremely attractive\""],\""required\"":true}]"", ""task_unique_trial"": 100, ""task_name"": ""attractive-modifae-single"", ""trial_index"": 81, ""isRepeat"": 0}"
A2JBCLJVJ2VXVZ:3N1FSUEFL77FE3G0JSM8O611TSA4D9,82,1547968855215,"{""rt"": 2437, ""trial_type"": ""face-likert-amanda"", ""debug_mode"": ""live"", ""task_type"": ""face trials"", ""responses"": ""{\""Q0\"":8}"", ""task_payment"": 1, ""task_version"": 1, ""internal_node_id"": ""0.0-9.0-0.0-3.0"", ""time_elapsed"": 441620, ""imgName"": ""/static/images/modifAE_linspace/attractive/136256_0.5681818181818181.png"", ""questions"": ""[{\""prompt\"":\""<p>How <b>attractive</b> does this person look to <b>most people</b>? Rate from 1-9</p>\"",\""labels\"":[\""1 <br/>Not attractive at all\"",\""2\"",\""3\"",\""4\"",\""5\"",\""6\"",\""7\"",\""8\"",\""9  <br/>Extremely attractive\""],\""required\"":true}]"", ""task_unique_trial"": 100, ""task_name"": ""attractive-modifae-single"", ""trial_index"": 82, ""isRepeat"": 0}"
A2JBCLJVJ2VXVZ:3N1FSUEFL77FE3G0JSM8O611TSA4D9,83,1547968857848,"{""rt"": 2629, ""trial_type"": ""face-likert-amanda"", ""debug_mode"": ""live"", ""task_type"": ""face trials"", ""responses"": ""{\""Q0\"":8}"", ""task_payment"": 1, ""task_version"": 1, ""internal_node_id"": ""0.0-9.0-0.0-4.0"", ""time_elapsed"": 444253, ""imgName"": ""/static/images/modifAE_linspace/attractive/136178_-0.6136363636363636.png"", ""questions"": ""[{\""prompt\"":\""<p>How <b>attractive</b> does this person look to <b>most people</b>? Rate from 1-9</p>\"",\""labels\"":[\""1 <br/>Not attractive at all\"",\""2\"",\""3\"",\""4\"",\""5\"",\""6\"",\""7\"",\""8\"",\""9  <br/>Extremely attractive\""],\""required\"":true}]"", ""task_unique_trial"": 100, ""task_name"": ""attractive-modifae-single"", ""trial_index"": 83, ""isRepeat"": 0}"
A2JBCLJVJ2VXVZ:3N1FSUEFL77FE3G0JSM8O611TSA4D9,84,1547968860721,"{""rt"": 2869, ""trial_type"": ""face-likert-amanda"", ""debug_mode"": ""live"", ""task_type"": ""face trials"", ""responses"": ""{\""Q0\"":8}"", ""task_payment"": 1, ""task_version"": 1, ""internal_node_id"": ""0.0-9.0-0.0-5.0"", ""time_elapsed"": 447125, ""imgName"": ""/static/images/modifAE_linspace/attractive/136260_0.6287878787878789.png"", ""questions"": ""[{\""prompt\"":\""<p>How <b>attractive</b> does this person look to <b>most people</b>? Rate from 1-9</p>\"",\""labels\"":[\""1 <br/>Not attractive at all\"",\""2\"",\""3\"",\""4\"",\""5\"",\""6\"",\""7\"",\""8\"",\""9  <br/>Extremely attractive\""],\""required\"":true}]"", ""task_unique_trial"": 100, ""task_name"": ""attractive-modifae-single"", ""trial_index"": 84, ""isRepeat"": 0}"
A2JBCLJVJ2VXVZ:3N1FSUEFL77FE3G0JSM8O611TSA4D9,85,1547968863953,"{""rt"": 3227, ""trial_type"": ""face-likert-amanda"", ""debug_mode"": ""live"", ""task_type"": ""face trials"", ""responses"": ""{\""Q0\"":8}"", ""task_payment"": 1, ""task_version"": 1, ""internal_node_id"": ""0.0-9.0-0.0-6.0"", ""time_elapsed"": 450358, ""imgName"": ""/static/images/modifAE_linspace/attractive/136195_-0.3560606060606061.png"", ""questions"": ""[{\""prompt\"":\""<p>How <b>attractive</b> does this person look to <b>most people</b>? Rate from 1-9</p>\"",\""labels\"":[\""1 <br/>Not attractive at all\"",\""2\"",\""3\"",\""4\"",\""5\"",\""6\"",\""7\"",\""8\"",\""9  <br/>Extremely attractive\""],\""required\"":true}]"", ""task_unique_trial"": 100, ""task_name"": ""attractive-modifae-single"", ""trial_index"": 85, ""isRepeat"": 0}"
A2JBCLJVJ2VXVZ:3N1FSUEFL77FE3G0JSM8O611TSA4D9,86,1547968867327,"{""rt"": 3371, ""trial_type"": ""face-likert-amanda"", ""debug_mode"": ""live"", ""task_type"": ""face trials"", ""responses"": ""{\""Q0\"":8}"", ""task_payment"": 1, ""task_version"": 1, ""internal_node_id"": ""0.0-9.0-0.0-7.0"", ""time_elapsed"": 453732, ""imgName"": ""/static/images/modifAE_linspace/attractive/136259_0.6136363636363638.png"", ""questions"": ""[{\""prompt\"":\""<p>How <b>attractive</b> does this person look to <b>most people</b>? Rate from 1-9</p>\"",\""labels\"":[\""1 <br/>Not attractive at all\"",\""2\"",\""3\"",\""4\"",\""5\"",\""6\"",\""7\"",\""8\"",\""9  <br/>Extremely attractive\""],\""required\"":true}]"", ""task_unique_trial"": 100, ""task_name"": ""attractive-modifae-single"", ""trial_index"": 86, ""isRepeat"": 0}"
A2JBCLJVJ2VXVZ:3N1FSUEFL77FE3G0JSM8O611TSA4D9,87,1547968870807,"{""rt"": 3475, ""trial_type"": ""face-likert-amanda"", ""debug_mode"": ""live"", ""task_type"": ""face trials"", ""responses"": ""{\""Q0\"":8}"", ""task_payment"": 1, ""task_version"": 1, ""internal_node_id"": ""0.0-9.0-0.0-8.0"", ""time_elapsed"": 457212, ""imgName"": ""/static/images/modifAE_linspace/attractive/136192_-0.4015151515151515.png"", ""questions"": ""[{\""prompt\"":\""<p>How <b>attractive</b> does this person look to <b>most people</b>? Rate from 1-9</p>\"",\""labels\"":[\""1 <br/>Not attractive at all\"",\""2\"",\""3\"",\""4\"",\""5\"",\""6\"",\""7\"",\""8\"",\""9  <br/>Extremely attractive\""],\""required\"":true}]"", ""task_unique_trial"": 100, ""task_name"": ""attractive-modifae-single"", ""trial_index"": 87, ""isRepeat"": 0}"
A2JBCLJVJ2VXVZ:3N1FSUEFL77FE3G0JSM8O611TSA4D9,88,1547968873271,"{""rt"": 2461, ""trial_type"": ""face-likert-amanda"", ""debug_mode"": ""live"", ""task_type"": ""face trials"", ""responses"": ""{\""Q0\"":8}"", ""task_payment"": 1, ""task_version"": 1, ""internal_node_id"": ""0.0-9.0-0.0-9.0"", ""time_elapsed"": 459676, ""imgName"": ""/static/images/modifAE_linspace/attractive/136240_0.3257575757575757.png"", ""questions"": ""[{\""prompt\"":\""<p>How <b>attractive</b> does this person look to <b>most people</b>? Rate from 1-9</p>\"",\""labels\"":[\""1 <br/>Not attractive at all\"",\""2\"",\""3\"",\""4\"",\""5\"",\""6\"",\""7\"",\""8\"",\""9  <br/>Extremely attractive\""],\""required\"":true}]"", ""task_unique_trial"": 100, ""task_name"": ""attractive-modifae-single"", ""trial_index"": 88, ""isRepeat"": 0}"
A2JBCLJVJ2VXVZ:3N1FSUEFL77FE3G0JSM8O611TSA4D9,89,1547968874773,"{""rt"": null, ""trial_type"": ""html-keyboard-response"", ""task_unique_trial"": 100, ""stimulus"": ""<p>Good job!</p>"", ""task_version"": 1, ""internal_node_id"": ""0.0-9.0-1.0"", ""task_payment"": 1, ""time_elapsed"": 461178, ""debug_mode"": ""live"", ""key_press"": null, ""task_name"": ""attractive-modifae-single"", ""trial_index"": 89}"
A2JBCLJVJ2VXVZ:3N1FSUEFL77FE3G0JSM8O611TSA4D9,90,1547968879591,"{""rt"": 4816, ""trial_type"": ""face-likert-amanda"", ""debug_mode"": ""live"", ""task_type"": ""face trials"", ""responses"": ""{\""Q0\"":8}"", ""task_payment"": 1, ""task_version"": 1, ""internal_node_id"": ""0.0-10.0-0.0-0.0"", ""time_elapsed"": 465996, ""imgName"": ""/static/images/modifAE_linspace/attractive/136198_-0.3106060606060606.png"", ""questions"": ""[{\""prompt\"":\""<p>How <b>attractive</b> does this person look to <b>most people</b>? Rate from 1-9</p>\"",\""labels\"":[\""1 <br/>Not attractive at all\"",\""2\"",\""3\"",\""4\"",\""5\"",\""6\"",\""7\"",\""8\"",\""9  <br/>Extremely attractive\""],\""required\"":true}]"", ""task_unique_trial"": 100, ""task_name"": ""attractive-modifae-single"", ""trial_index"": 90, ""isRepeat"": 0}"
A2JBCLJVJ2VXVZ:3N1FSUEFL77FE3G0JSM8O611TSA4D9,91,1547968882583,"{""rt"": 2988, ""trial_type"": ""face-likert-amanda"", ""debug_mode"": ""live"", ""task_type"": ""face trials"", ""responses"": ""{\""Q0\"":8}"", ""task_payment"": 1, ""task_version"": 1, ""internal_node_id"": ""0.0-10.0-0.0-1.0"", ""time_elapsed"": 468988, ""imgName"": ""/static/images/modifAE_linspace/attractive/136254_0.5378787878787878.png"", ""questions"": ""[{\""prompt\"":\""<p>How <b>attractive</b> does this person look to <b>most people</b>? Rate from 1-9</p>\"",\""labels\"":[\""1 <br/>Not attractive at all\"",\""2\"",\""3\"",\""4\"",\""5\"",\""6\"",\""7\"",\""8\"",\""9  <br/>Extremely attractive\""],\""required\"":true}]"", ""task_unique_trial"": 100, ""task_name"": ""attractive-modifae-single"", ""trial_index"": 91, ""isRepeat"": 0}"
A2JBCLJVJ2VXVZ:3N1FSUEFL77FE3G0JSM8O611TSA4D9,92,1547968885934,"{""rt"": 3348, ""trial_type"": ""face-likert-amanda"", ""debug_mode"": ""live"", ""task_type"": ""face trials"", ""responses"": ""{\""Q0\"":8}"", ""task_payment"": 1, ""task_version"": 1, ""internal_node_id"": ""0.0-10.0-0.0-2.0"", ""time_elapsed"": 472339, ""imgName"": ""/static/images/modifAE_linspace/attractive/136180_-0.5833333333333333.png"", ""questions"": ""[{\""prompt\"":\""<p>How <b>attractive</b> does this person look to <b>most people</b>? Rate from 1-9</p>\"",\""labels\"":[\""1 <br/>Not attractive at all\"",\""2\"",\""3\"",\""4\"",\""5\"",\""6\"",\""7\"",\""8\"",\""9  <br/>Extremely attractive\""],\""required\"":true}]"", ""task_unique_trial"": 100, ""task_name"": ""attractive-modifae-single"", ""trial_index"": 92, ""isRepeat"": 0}"
A2JBCLJVJ2VXVZ:3N1FSUEFL77FE3G0JSM8O611TSA4D9,93,1547968891030,"{""rt"": 5094, ""trial_type"": ""face-likert-amanda"", ""debug_mode"": ""live"", ""task_type"": ""face trials"", ""responses"": ""{\""Q0\"":8}"", ""task_payment"": 1, ""task_version"": 1, ""internal_node_id"": ""0.0-10.0-0.0-3.0"", ""time_elapsed"": 477435, ""imgName"": ""/static/images/modifAE_linspace/attractive/136196_-0.3409090909090909.png"", ""questions"": ""[{\""prompt\"":\""<p>How <b>attractive</b> does this person look to <b>most people</b>? Rate from 1-9</p>\"",\""labels\"":[\""1 <br/>Not attractive at all\"",\""2\"",\""3\"",\""4\"",\""5\"",\""6\"",\""7\"",\""8\"",\""9  <br/>Extremely attractive\""],\""required\"":true}]"", ""task_unique_trial"": 100, ""task_name"": ""attractive-modifae-single"", ""trial_index"": 93, ""isRepeat"": 0}"
A2JBCLJVJ2VXVZ:3N1FSUEFL77FE3G0JSM8O611TSA4D9,94,1547968894462,"{""rt"": 3429, ""trial_type"": ""face-likert-amanda"", ""debug_mode"": ""live"", ""task_type"": ""face trials"", ""responses"": ""{\""Q0\"":7}"", ""task_payment"": 1, ""task_version"": 1, ""internal_node_id"": ""0.0-10.0-0.0-4.0"", ""time_elapsed"": 480867, ""imgName"": ""/static/images/modifAE_linspace/attractive/136188_-0.4621212121212121.png"", ""questions"": ""[{\""prompt\"":\""<p>How <b>attractive</b> does this person look to <b>most people</b>? Rate from 1-9</p>\"",\""labels\"":[\""1 <br/>Not attractive at all\"",\""2\"",\""3\"",\""4\"",\""5\"",\""6\"",\""7\"",\""8\"",\""9  <br/>Extremely attractive\""],\""required\"":true}]"", ""task_unique_trial"": 100, ""task_name"": ""attractive-modifae-single"", ""trial_index"": 94, ""isRepeat"": 0}"
A2JBCLJVJ2VXVZ:3N1FSUEFL77FE3G0JSM8O611TSA4D9,95,1547968897343,"{""rt"": 2878, ""trial_type"": ""face-likert-amanda"", ""debug_mode"": ""live"", ""task_type"": ""face trials"", ""responses"": ""{\""Q0\"":8}"", ""task_payment"": 1, ""task_version"": 1, ""internal_node_id"": ""0.0-10.0-0.0-5.0"", ""time_elapsed"": 483748, ""imgName"": ""/static/images/modifAE_linspace/attractive/136226_0.11363636363636365.png"", ""questions"": ""[{\""prompt\"":\""<p>How <b>attractive</b> does this person look to <b>most people</b>? Rate from 1-9</p>\"",\""labels\"":[\""1 <br/>Not attractive at all\"",\""2\"",\""3\"",\""4\"",\""5\"",\""6\"",\""7\"",\""8\"",\""9  <br/>Extremely attractive\""],\""required\"":true}]"", ""task_unique_trial"": 100, ""task_name"": ""attractive-modifae-single"", ""trial_index"": 95, ""isRepeat"": 0}"
A2JBCLJVJ2VXVZ:3N1FSUEFL77FE3G0JSM8O611TSA4D9,96,1547968900702,"{""rt"": 3357, ""trial_type"": ""face-likert-amanda"", ""debug_mode"": ""live"", ""task_type"": ""face trials"", ""responses"": ""{\""Q0\"":8}"", ""task_payment"": 1, ""task_version"": 1, ""internal_node_id"": ""0.0-10.0-0.0-6.0"", ""time_elapsed"": 487107, ""imgName"": ""/static/images/modifAE_linspace/attractive/136174_-0.6742424242424242.png"", ""questions"": ""[{\""prompt\"":\""<p>How <b>attractive</b> does this person look to <b>most people</b>? Rate from 1-9</p>\"",\""labels\"":[\""1 <br/>Not attractive at all\"",\""2\"",\""3\"",\""4\"",\""5\"",\""6\"",\""7\"",\""8\"",\""9  <br/>Extremely attractive\""],\""required\"":true}]"", ""task_unique_trial"": 100, ""task_name"": ""attractive-modifae-single"", ""trial_index"": 96, ""isRepeat"": 0}"
A2JBCLJVJ2VXVZ:3N1FSUEFL77FE3G0JSM8O611TSA4D9,97,1547968903406,"{""rt"": 2701, ""trial_type"": ""face-likert-amanda"", ""debug_mode"": ""live"", ""task_type"": ""face trials"", ""responses"": ""{\""Q0\"":8}"", ""task_payment"": 1, ""task_version"": 1, ""internal_node_id"": ""0.0-10.0-0.0-7.0"", ""time_elapsed"": 489811, ""imgName"": ""/static/images/modifAE_linspace/attractive/136223_0.06818181818181823.png"", ""questions"": ""[{\""prompt\"":\""<p>How <b>attractive</b> does this person look to <b>most people</b>? Rate from 1-9</p>\"",\""labels\"":[\""1 <br/>Not attractive at all\"",\""2\"",\""3\"",\""4\"",\""5\"",\""6\"",\""7\"",\""8\"",\""9  <br/>Extremely attractive\""],\""required\"":true}]"", ""task_unique_trial"": 100, ""task_name"": ""attractive-modifae-single"", ""trial_index"": 97, ""isRepeat"": 0}"
A2JBCLJVJ2VXVZ:3N1FSUEFL77FE3G0JSM8O611TSA4D9,98,1547968906326,"{""rt"": 2916, ""trial_type"": ""face-likert-amanda"", ""debug_mode"": ""live"", ""task_type"": ""face trials"", ""responses"": ""{\""Q0\"":8}"", ""task_payment"": 1, ""task_version"": 1, ""internal_node_id"": ""0.0-10.0-0.0-8.0"", ""time_elapsed"": 492731, ""imgName"": ""/static/images/modifAE_linspace/attractive/136219_0.007575757575757569.png"", ""questions"": ""[{\""prompt\"":\""<p>How <b>attractive</b> does this person look to <b>most people</b>? Rate from 1-9</p>\"",\""labels\"":[\""1 <br/>Not attractive at all\"",\""2\"",\""3\"",\""4\"",\""5\"",\""6\"",\""7\"",\""8\"",\""9  <br/>Extremely attractive\""],\""required\"":true}]"", ""task_unique_trial"": 100, ""task_name"": ""attractive-modifae-single"", ""trial_index"": 98, ""isRepeat"": 0}"
A2JBCLJVJ2VXVZ:3N1FSUEFL77FE3G0JSM8O611TSA4D9,99,1547968908967,"{""rt"": 2637, ""trial_type"": ""face-likert-amanda"", ""debug_mode"": ""live"", ""task_type"": ""face trials"", ""responses"": ""{\""Q0\"":8}"", ""task_payment"": 1, ""task_version"": 1, ""internal_node_id"": ""0.0-10.0-0.0-9.0"", ""time_elapsed"": 495372, ""imgName"": ""/static/images/modifAE_linspace/attractive/136204_-0.21969696969696972.png"", ""questions"": ""[{\""prompt\"":\""<p>How <b>attractive</b> does this person look to <b>most people</b>? Rate from 1-9</p>\"",\""labels\"":[\""1 <br/>Not attractive at all\"",\""2\"",\""3\"",\""4\"",\""5\"",\""6\"",\""7\"",\""8\"",\""9  <br/>Extremely attractive\""],\""required\"":true}]"", ""task_unique_trial"": 100, ""task_name"": ""attractive-modifae-single"", ""trial_index"": 99, ""isRepeat"": 0}"
A2JBCLJVJ2VXVZ:3N1FSUEFL77FE3G0JSM8O611TSA4D9,100,1547968909969,"{""rt"": null, ""trial_type"": ""html-keyboard-response"", ""task_unique_trial"": 100, ""stimulus"": ""<p>Good job!</p>"", ""task_version"": 1, ""internal_node_id"": ""0.0-10.0-1.0"", ""task_payment"": 1, ""time_elapsed"": 496374, ""debug_mode"": ""live"", ""key_press"": null, ""task_name"": ""attractive-modifae-single"", ""trial_index"": 100}"
A2JBCLJVJ2VXVZ:3N1FSUEFL77FE3G0JSM8O611TSA4D9,101,1547968914687,"{""rt"": 4713, ""trial_type"": ""face-likert-amanda"", ""debug_mode"": ""live"", ""task_type"": ""face trials"", ""responses"": ""{\""Q0\"":8}"", ""task_payment"": 1, ""task_version"": 1, ""internal_node_id"": ""0.0-11.0-0.0-0.0"", ""time_elapsed"": 501091, ""imgName"": ""/static/images/modifAE_linspace/attractive/136224_0.08333333333333337.png"", ""questions"": ""[{\""prompt\"":\""<p>How <b>attractive</b> does this person look to <b>most people</b>? Rate from 1-9</p>\"",\""labels\"":[\""1 <br/>Not attractive at all\"",\""2\"",\""3\"",\""4\"",\""5\"",\""6\"",\""7\"",\""8\"",\""9  <br/>Extremely attractive\""],\""required\"":true}]"", ""task_unique_trial"": 100, ""task_name"": ""attractive-modifae-single"", ""trial_index"": 101, ""isRepeat"": 0}"
A2JBCLJVJ2VXVZ:3N1FSUEFL77FE3G0JSM8O611TSA4D9,102,1547968917718,"{""rt"": 3028, ""trial_type"": ""face-likert-amanda"", ""debug_mode"": ""live"", ""task_type"": ""face trials"", ""responses"": ""{\""Q0\"":8}"", ""task_payment"": 1, ""task_version"": 1, ""internal_node_id"": ""0.0-11.0-0.0-1.0"", ""time_elapsed"": 504123, ""imgName"": ""/static/images/modifAE_linspace/attractive/136169_-0.75.png"", ""questions"": ""[{\""prompt\"":\""<p>How <b>attractive</b> does this person look to <b>most people</b>? Rate from 1-9</p>\"",\""labels\"":[\""1 <br/>Not attractive at all\"",\""2\"",\""3\"",\""4\"",\""5\"",\""6\"",\""7\"",\""8\"",\""9  <br/>Extremely attractive\""],\""required\"":true}]"", ""task_unique_trial"": 100, ""task_name"": ""attractive-modifae-single"", ""trial_index"": 102, ""isRepeat"": 0}"
A2JBCLJVJ2VXVZ:3N1FSUEFL77FE3G0JSM8O611TSA4D9,103,1547968920846,"{""rt"": 3125, ""trial_type"": ""face-likert-amanda"", ""debug_mode"": ""live"", ""task_type"": ""face trials"", ""responses"": ""{\""Q0\"":8}"", ""task_payment"": 1, ""task_version"": 1, ""internal_node_id"": ""0.0-11.0-0.0-2.0"", ""time_elapsed"": 507251, ""imgName"": ""/static/images/modifAE_linspace/attractive/136245_0.4015151515151516.png"", ""questions"": ""[{\""prompt\"":\""<p>How <b>attractive</b> does this person look to <b>most people</b>? Rate from 1-9</p>\"",\""labels\"":[\""1 <br/>Not attractive at all\"",\""2\"",\""3\"",\""4\"",\""5\"",\""6\"",\""7\"",\""8\"",\""9  <br/>Extremely attractive\""],\""required\"":true}]"", ""task_unique_trial"": 100, ""task_name"": ""attractive-modifae-single"", ""trial_index"": 103, ""isRepeat"": 0}"
A2JBCLJVJ2VXVZ:3N1FSUEFL77FE3G0JSM8O611TSA4D9,104,1547968924317,"{""rt"": 3469, ""trial_type"": ""face-likert-amanda"", ""debug_mode"": ""live"", ""task_type"": ""face trials"", ""responses"": ""{\""Q0\"":8}"", ""task_payment"": 1, ""task_version"": 1, ""internal_node_id"": ""0.0-11.0-0.0-3.0"", ""time_elapsed"": 510722, ""imgName"": ""/static/images/modifAE_linspace/attractive/136199_-0.2954545454545454.png"", ""questions"": ""[{\""prompt\"":\""<p>How <b>attractive</b> does this person look to <b>most people</b>? Rate from 1-9</p>\"",\""labels\"":[\""1 <br/>Not attractive at all\"",\""2\"",\""3\"",\""4\"",\""5\"",\""6\"",\""7\"",\""8\"",\""9  <br/>Extremely attractive\""],\""required\"":true}]"", ""task_unique_trial"": 100, ""task_name"": ""attractive-modifae-single"", ""trial_index"": 104, ""isRepeat"": 0}"
A2JBCLJVJ2VXVZ:3N1FSUEFL77FE3G0JSM8O611TSA4D9,105,1547968927525,"{""rt"": 3205, ""trial_type"": ""face-likert-amanda"", ""debug_mode"": ""live"", ""task_type"": ""face trials"", ""responses"": ""{\""Q0\"":8}"", ""task_payment"": 1, ""task_version"": 1, ""internal_node_id"": ""0.0-11.0-0.0-4.0"", ""time_elapsed"": 513930, ""imgName"": ""/static/images/modifAE_linspace/attractive/136197_-0.32575757575757575.png"", ""questions"": ""[{\""prompt\"":\""<p>How <b>attractive</b> does this person look to <b>most people</b>? Rate from 1-9</p>\"",\""labels\"":[\""1 <br/>Not attractive at all\"",\""2\"",\""3\"",\""4\"",\""5\"",\""6\"",\""7\"",\""8\"",\""9  <br/>Extremely attractive\""],\""required\"":true}]"", ""task_unique_trial"": 100, ""task_name"": ""attractive-modifae-single"", ""trial_index"": 105, ""isRepeat"": 0}"
A2JBCLJVJ2VXVZ:3N1FSUEFL77FE3G0JSM8O611TSA4D9,106,1547968931758,"{""rt"": 4230, ""trial_type"": ""face-likert-amanda"", ""debug_mode"": ""live"", ""task_type"": ""face trials"", ""responses"": ""{\""Q0\"":8}"", ""task_payment"": 1, ""task_version"": 1, ""internal_node_id"": ""0.0-11.0-0.0-5.0"", ""time_elapsed"": 518163, ""imgName"": ""/static/images/modifAE_linspace/attractive/136183_-0.5378787878787878.png"", ""questions"": ""[{\""prompt\"":\""<p>How <b>attractive</b> does this person look to <b>most people</b>? Rate from 1-9</p>\"",\""labels\"":[\""1 <br/>Not attractive at all\"",\""2\"",\""3\"",\""4\"",\""5\"",\""6\"",\""7\"",\""8\"",\""9  <br/>Extremely attractive\""],\""required\"":true}]"", ""task_unique_trial"": 100, ""task_name"": ""attractive-modifae-single"", ""trial_index"": 106, ""isRepeat"": 0}"
A2JBCLJVJ2VXVZ:3N1FSUEFL77FE3G0JSM8O611TSA4D9,107,1547968933974,"{""rt"": 2214, ""trial_type"": ""face-likert-amanda"", ""debug_mode"": ""live"", ""task_type"": ""face trials"", ""responses"": ""{\""Q0\"":8}"", ""task_payment"": 1, ""task_version"": 1, ""internal_node_id"": ""0.0-11.0-0.0-6.0"", ""time_elapsed"": 520379, ""imgName"": ""/static/images/modifAE_linspace/attractive/136184_-0.5227272727272727.png"", ""questions"": ""[{\""prompt\"":\""<p>How <b>attractive</b> does this person look to <b>most people</b>? Rate from 1-9</p>\"",\""labels\"":[\""1 <br/>Not attractive at all\"",\""2\"",\""3\"",\""4\"",\""5\"",\""6\"",\""7\"",\""8\"",\""9  <br/>Extremely attractive\""],\""required\"":true}]"", ""task_unique_trial"": 100, ""task_name"": ""attractive-modifae-single"", ""trial_index"": 107, ""isRepeat"": 0}"
A2JBCLJVJ2VXVZ:3N1FSUEFL77FE3G0JSM8O611TSA4D9,108,1547968935885,"{""rt"": 1908, ""trial_type"": ""face-likert-amanda"", ""debug_mode"": ""live"", ""task_type"": ""face trials"", ""responses"": ""{\""Q0\"":8}"", ""task_payment"": 1, ""task_version"": 1, ""internal_node_id"": ""0.0-11.0-0.0-7.0"", ""time_elapsed"": 522290, ""imgName"": ""/static/images/modifAE_linspace/attractive/136187_-0.4772727272727273.png"", ""questions"": ""[{\""prompt\"":\""<p>How <b>attractive</b> does this person look to <b>most people</b>? Rate from 1-9</p>\"",\""labels\"":[\""1 <br/>Not attractive at all\"",\""2\"",\""3\"",\""4\"",\""5\"",\""6\"",\""7\"",\""8\"",\""9  <br/>Extremely attractive\""],\""required\"":true}]"", ""task_unique_trial"": 100, ""task_name"": ""attractive-modifae-single"", ""trial_index"": 108, ""isRepeat"": 0}"
A2JBCLJVJ2VXVZ:3N1FSUEFL77FE3G0JSM8O611TSA4D9,109,1547968938254,"{""rt"": 2365, ""trial_type"": ""face-likert-amanda"", ""debug_mode"": ""live"", ""task_type"": ""face trials"", ""responses"": ""{\""Q0\"":8}"", ""task_payment"": 1, ""task_version"": 1, ""internal_node_id"": ""0.0-11.0-0.0-8.0"", ""time_elapsed"": 524659, ""imgName"": ""/static/images/modifAE_linspace/attractive/136178_-0.6136363636363636.png"", ""questions"": ""[{\""prompt\"":\""<p>How <b>attractive</b> does this person look to <b>most people</b>? Rate from 1-9</p>\"",\""labels\"":[\""1 <br/>Not attractive at all\"",\""2\"",\""3\"",\""4\"",\""5\"",\""6\"",\""7\"",\""8\"",\""9  <br/>Extremely attractive\""],\""required\"":true}]"", ""task_unique_trial"": 100, ""task_name"": ""attractive-modifae-single"", ""trial_index"": 109, ""isRepeat"": 0}"
A2JBCLJVJ2VXVZ:3N1FSUEFL77FE3G0JSM8O611TSA4D9,110,1547968940741,"{""rt"": 2484, ""trial_type"": ""face-likert-amanda"", ""debug_mode"": ""live"", ""task_type"": ""face trials"", ""responses"": ""{\""Q0\"":8}"", ""task_payment"": 1, ""task_version"": 1, ""internal_node_id"": ""0.0-11.0-0.0-9.0"", ""time_elapsed"": 527146, ""imgName"": ""/static/images/modifAE_linspace/attractive/136218_-0.007575757575757569.png"", ""questions"": ""[{\""prompt\"":\""<p>How <b>attractive</b> does this person look to <b>most people</b>? Rate from 1-9</p>\"",\""labels\"":[\""1 <br/>Not attractive at all\"",\""2\"",\""3\"",\""4\"",\""5\"",\""6\"",\""7\"",\""8\"",\""9  <br/>Extremely attractive\""],\""required\"":true}]"", ""task_unique_trial"": 100, ""task_name"": ""attractive-modifae-single"", ""trial_index"": 110, ""isRepeat"": 0}"
A2JBCLJVJ2VXVZ:3N1FSUEFL77FE3G0JSM8O611TSA4D9,111,1547968942746,"{""rt"": null, ""trial_type"": ""html-keyboard-response"", ""task_unique_trial"": 100, ""stimulus"": ""<p>Good job!</p>"", ""task_version"": 1, ""internal_node_id"": ""0.0-11.0-1.0"", ""task_payment"": 1, ""time_elapsed"": 529151, ""debug_mode"": ""live"", ""key_press"": null, ""task_name"": ""attractive-modifae-single"", ""trial_index"": 111}"
A2JBCLJVJ2VXVZ:3N1FSUEFL77FE3G0JSM8O611TSA4D9,112,1547968983327,"{""rt"": 40573, ""trial_type"": ""survey-text-req"", ""task_type"": ""feedback for HIT"", ""responses"": ""{\""Q0\"":\""Very interested survey and making fun\""}"", ""task_payment"": 1, ""task_version"": 1, ""internal_node_id"": ""0.0-12.0"", ""time_elapsed"": 569732, ""debug_mode"": ""live"", ""task_name"": ""attractive-modifae-single"", ""task_unique_trial"": 100, ""trial_index"": 112}"
A2B0P5J56MW4V9:382M9COHEJMJN7OFUTOA7SHGSHZEUZ,0,1547968458017,"{""rt"": 30162, ""trial_type"": ""instructions"", ""view_history"": ""[{\""page_index\"":0,\""viewing_time\"":11059},{\""page_index\"":1,\""viewing_time\"":15407},{\""page_index\"":2,\""viewing_time\"":3696}]"", ""task_type"": ""instruction"", ""task_payment"": 1, ""task_version"": 1, ""internal_node_id"": ""0.0-0.0"", ""time_elapsed"": 30163, ""debug_mode"": ""live"", ""task_name"": ""attractive-modifae-single"", ""task_unique_trial"": 100, ""trial_index"": 0}"
A2B0P5J56MW4V9:382M9COHEJMJN7OFUTOA7SHGSHZEUZ,1,1547968484193,"{""rt"": 26160, ""trial_type"": ""survey-multi-choice"", ""task_type"": ""demographic-multichoice"", ""responses"": ""{\""Q0\"":\""36-45\"",\""Q1\"":\""Male\"",\""Q2\"":\""No\"",\""Q3\"":\""2\"",\""Q4\"":\""White\"",\""Q5\"":\""Some college, no degree\"",\""Q6\"":\""$75,000 and above\""}"", ""task_payment"": 1, ""task_version"": 1, ""time_elapsed"": 56340, ""sanity_check_1_continue"": true, ""random_num"": 2, ""debug_mode"": ""live"", ""questions"": ""[{\""prompt\"":\""What is your age?\"",\""options\"":[\""Under 18\"",\""18-25\"",\""26-35\"",\""36-45\"",\""46-55\"",\""56+\""],\""required\"":true},{\""prompt\"":\""What is your gender?\"",\""options\"":[\""Male\"",\""Female\"",\""Other/Prefer not to say\""],\""required\"":true},{\""prompt\"":\""Are you of Hispanic, Latino, or Spanish origin?\"",\""options\"":[\""Yes\"",\""No\""],\""required\"":true},{\""prompt\"":\""Please choose the option that matches the number here: 2\"",\""options\"":[\""1\"",\""2\"",\""3\"",\""4\""],\""required\"":true},{\""prompt\"":\""How would you describe yourself?\"",\""options\"":[\""American Indian or Alaskan Native\"",\""Asian\"",\""Black or African-American\"",\""Native Hawaiian or Other Pacific Islander\"",\""White\""],\""required\"":true},{\""prompt\"":\""What is the highest degree or level of school you have completed? (If you&#8217;re currently enrolled in school, please indicate the highest degree you have received)\"",\""options\"":[\""Less than a high school diploma\"",\""High school degree or equivalent (e.g. GED)\"",\""Some college, no degree\"",\""Associate degree (e.g. AA, AS)\"",\""Bachelor&#8217;s degree (e.g. BA, BS) or above\""],\""required\"":true},{\""prompt\"":\""What is the total income of all members of your household?\"",\""options\"":[\""Less than $20,000\"",\""$20,000  - $49,999\"",\""$50,000 - $74,999\"",\""$75,000 and above\""],\""required\"":true}]"", ""internal_node_id"": ""0.0-1.0-0.0"", ""task_unique_trial"": 100, ""task_name"": ""attractive-modifae-single"", ""trial_index"": 1}"
A2B0P5J56MW4V9:382M9COHEJMJN7OFUTOA7SHGSHZEUZ,2,1547968491841,"{""rt"": 7633, ""trial_type"": ""face-likert-amanda"", ""debug_mode"": ""live"", ""task_type"": ""face trials"", ""responses"": ""{\""Q0\"":5}"", ""task_payment"": 1, ""task_version"": 1, ""internal_node_id"": ""0.0-2.0-0.0-0.0"", ""time_elapsed"": 63988, ""imgName"": ""/static/images/modifAE_linspace/attractive/136256_0.5681818181818181.png"", ""questions"": ""[{\""prompt\"":\""<p>How <b>attractive</b> does this person look to <b>most people</b>? Rate from 1-9</p>\"",\""labels\"":[\""1 <br/>Not attractive at all\"",\""2\"",\""3\"",\""4\"",\""5\"",\""6\"",\""7\"",\""8\"",\""9  <br/>Extremely attractive\""],\""required\"":true}]"", ""task_unique_trial"": 100, ""task_name"": ""attractive-modifae-single"", ""trial_index"": 2, ""isRepeat"": 0}"
A2B0P5J56MW4V9:382M9COHEJMJN7OFUTOA7SHGSHZEUZ,3,1547968495497,"{""rt"": 3642, ""trial_type"": ""face-likert-amanda"", ""debug_mode"": ""live"", ""task_type"": ""face trials"", ""responses"": ""{\""Q0\"":5}"", ""task_payment"": 1, ""task_version"": 1, ""internal_node_id"": ""0.0-2.0-0.0-1.0"", ""time_elapsed"": 67644, ""imgName"": ""/static/images/modifAE_linspace/attractive/136205_-0.20454545454545459.png"", ""questions"": ""[{\""prompt\"":\""<p>How <b>attractive</b> does this person look to <b>most people</b>? Rate from 1-9</p>\"",\""labels\"":[\""1 <br/>Not attractive at all\"",\""2\"",\""3\"",\""4\"",\""5\"",\""6\"",\""7\"",\""8\"",\""9  <br/>Extremely attractive\""],\""required\"":true}]"", ""task_unique_trial"": 100, ""task_name"": ""attractive-modifae-single"", ""trial_index"": 3, ""isRepeat"": 0}"
A2B0P5J56MW4V9:382M9COHEJMJN7OFUTOA7SHGSHZEUZ,4,1547968499936,"{""rt"": 4425, ""trial_type"": ""face-likert-amanda"", ""debug_mode"": ""live"", ""task_type"": ""face trials"", ""responses"": ""{\""Q0\"":5}"", ""task_payment"": 1, ""task_version"": 1, ""internal_node_id"": ""0.0-2.0-0.0-2.0"", ""time_elapsed"": 72083, ""imgName"": ""/static/images/modifAE_linspace/attractive/136174_-0.6742424242424242.png"", ""questions"": ""[{\""prompt\"":\""<p>How <b>attractive</b> does this person look to <b>most people</b>? Rate from 1-9</p>\"",\""labels\"":[\""1 <br/>Not attractive at all\"",\""2\"",\""3\"",\""4\"",\""5\"",\""6\"",\""7\"",\""8\"",\""9  <br/>Extremely attractive\""],\""required\"":true}]"", ""task_unique_trial"": 100, ""task_name"": ""attractive-modifae-single"", ""trial_index"": 4, ""isRepeat"": 0}"
A2B0P5J56MW4V9:382M9COHEJMJN7OFUTOA7SHGSHZEUZ,5,1547968503456,"{""rt"": 3506, ""trial_type"": ""face-likert-amanda"", ""debug_mode"": ""live"", ""task_type"": ""face trials"", ""responses"": ""{\""Q0\"":6}"", ""task_payment"": 1, ""task_version"": 1, ""internal_node_id"": ""0.0-2.0-0.0-3.0"", ""time_elapsed"": 75603, ""imgName"": ""/static/images/modifAE_linspace/attractive/136179_-0.5984848484848485.png"", ""questions"": ""[{\""prompt\"":\""<p>How <b>attractive</b> does this person look to <b>most people</b>? Rate from 1-9</p>\"",\""labels\"":[\""1 <br/>Not attractive at all\"",\""2\"",\""3\"",\""4\"",\""5\"",\""6\"",\""7\"",\""8\"",\""9  <br/>Extremely attractive\""],\""required\"":true}]"", ""task_unique_trial"": 100, ""task_name"": ""attractive-modifae-single"", ""trial_index"": 5, ""isRepeat"": 0}"
A2B0P5J56MW4V9:382M9COHEJMJN7OFUTOA7SHGSHZEUZ,6,1547968507073,"{""rt"": 3601, ""trial_type"": ""face-likert-amanda"", ""debug_mode"": ""live"", ""task_type"": ""face trials"", ""responses"": ""{\""Q0\"":2}"", ""task_payment"": 1, ""task_version"": 1, ""internal_node_id"": ""0.0-2.0-0.0-4.0"", ""time_elapsed"": 79220, ""imgName"": ""/static/images/modifAE_linspace/attractive/136232_0.20454545454545459.png"", ""questions"": ""[{\""prompt\"":\""<p>How <b>attractive</b> does this person look to <b>most people</b>? Rate from 1-9</p>\"",\""labels\"":[\""1 <br/>Not attractive at all\"",\""2\"",\""3\"",\""4\"",\""5\"",\""6\"",\""7\"",\""8\"",\""9  <br/>Extremely attractive\""],\""required\"":true}]"", ""task_unique_trial"": 100, ""task_name"": ""attractive-modifae-single"", ""trial_index"": 6, ""isRepeat"": 0}"
A2B0P5J56MW4V9:382M9COHEJMJN7OFUTOA7SHGSHZEUZ,7,1547968510456,"{""rt"": 3367, ""trial_type"": ""face-likert-amanda"", ""debug_mode"": ""live"", ""task_type"": ""face trials"", ""responses"": ""{\""Q0\"":6}"", ""task_payment"": 1, ""task_version"": 1, ""internal_node_id"": ""0.0-2.0-0.0-5.0"", ""time_elapsed"": 82603, ""imgName"": ""/static/images/modifAE_linspace/attractive/136190_-0.4318181818181818.png"", ""questions"": ""[{\""prompt\"":\""<p>How <b>attractive</b> does this person look to <b>most people</b>? Rate from 1-9</p>\"",\""labels\"":[\""1 <br/>Not attractive at all\"",\""2\"",\""3\"",\""4\"",\""5\"",\""6\"",\""7\"",\""8\"",\""9  <br/>Extremely attractive\""],\""required\"":true}]"", ""task_unique_trial"": 100, ""task_name"": ""attractive-modifae-single"", ""trial_index"": 7, ""isRepeat"": 0}"
A2B0P5J56MW4V9:382M9COHEJMJN7OFUTOA7SHGSHZEUZ,8,1547968513577,"{""rt"": 3104, ""trial_type"": ""face-likert-amanda"", ""debug_mode"": ""live"", ""task_type"": ""face trials"", ""responses"": ""{\""Q0\"":2}"", ""task_payment"": 1, ""task_version"": 1, ""internal_node_id"": ""0.0-2.0-0.0-6.0"", ""time_elapsed"": 85724, ""imgName"": ""/static/images/modifAE_linspace/attractive/136198_-0.3106060606060606.png"", ""questions"": ""[{\""prompt\"":\""<p>How <b>attractive</b> does this person look to <b>most people</b>? Rate from 1-9</p>\"",\""labels\"":[\""1 <br/>Not attractive at all\"",\""2\"",\""3\"",\""4\"",\""5\"",\""6\"",\""7\"",\""8\"",\""9  <br/>Extremely attractive\""],\""required\"":true}]"", ""task_unique_trial"": 100, ""task_name"": ""attractive-modifae-single"", ""trial_index"": 8, ""isRepeat"": 0}"
A2B0P5J56MW4V9:382M9COHEJMJN7OFUTOA7SHGSHZEUZ,9,1547968516513,"{""rt"": 2922, ""trial_type"": ""face-likert-amanda"", ""debug_mode"": ""live"", ""task_type"": ""face trials"", ""responses"": ""{\""Q0\"":2}"", ""task_payment"": 1, ""task_version"": 1, ""internal_node_id"": ""0.0-2.0-0.0-7.0"", ""time_elapsed"": 88660, ""imgName"": ""/static/images/modifAE_linspace/attractive/136222_0.053030303030303094.png"", ""questions"": ""[{\""prompt\"":\""<p>How <b>attractive</b> does this person look to <b>most people</b>? Rate from 1-9</p>\"",\""labels\"":[\""1 <br/>Not attractive at all\"",\""2\"",\""3\"",\""4\"",\""5\"",\""6\"",\""7\"",\""8\"",\""9  <br/>Extremely attractive\""],\""required\"":true}]"", ""task_unique_trial"": 100, ""task_name"": ""attractive-modifae-single"", ""trial_index"": 9, ""isRepeat"": 0}"
A2B0P5J56MW4V9:382M9COHEJMJN7OFUTOA7SHGSHZEUZ,10,1547968519329,"{""rt"": 2800, ""trial_type"": ""face-likert-amanda"", ""debug_mode"": ""live"", ""task_type"": ""face trials"", ""responses"": ""{\""Q0\"":6}"", ""task_payment"": 1, ""task_version"": 1, ""internal_node_id"": ""0.0-2.0-0.0-8.0"", ""time_elapsed"": 91476, ""imgName"": ""/static/images/modifAE_linspace/attractive/136172_-0.7045454545454546.png"", ""questions"": ""[{\""prompt\"":\""<p>How <b>attractive</b> does this person look to <b>most people</b>? Rate from 1-9</p>\"",\""labels\"":[\""1 <br/>Not attractive at all\"",\""2\"",\""3\"",\""4\"",\""5\"",\""6\"",\""7\"",\""8\"",\""9  <br/>Extremely attractive\""],\""required\"":true}]"", ""task_unique_trial"": 100, ""task_name"": ""attractive-modifae-single"", ""trial_index"": 10, ""isRepeat"": 0}"
A2B0P5J56MW4V9:382M9COHEJMJN7OFUTOA7SHGSHZEUZ,11,1547968522520,"{""rt"": 3177, ""trial_type"": ""face-likert-amanda"", ""debug_mode"": ""live"", ""task_type"": ""face trials"", ""responses"": ""{\""Q0\"":6}"", ""task_payment"": 1, ""task_version"": 1, ""internal_node_id"": ""0.0-2.0-0.0-9.0"", ""time_elapsed"": 94667, ""imgName"": ""/static/images/modifAE_linspace/attractive/136185_-0.5075757575757576.png"", ""questions"": ""[{\""prompt\"":\""<p>How <b>attractive</b> does this person look to <b>most people</b>? Rate from 1-9</p>\"",\""labels\"":[\""1 <br/>Not attractive at all\"",\""2\"",\""3\"",\""4\"",\""5\"",\""6\"",\""7\"",\""8\"",\""9  <br/>Extremely attractive\""],\""required\"":true}]"", ""task_unique_trial"": 100, ""task_name"": ""attractive-modifae-single"", ""trial_index"": 11, ""isRepeat"": 0}"
