AHDY3BLTTUYFG:37U1UTWH9XTAYEM7DW75A7YAAAG8RZ,0,1547850770650,"{""rt"": 32444, ""trial_type"": ""instructions"", ""view_history"": ""[{\""page_index\"":0,\""viewing_time\"":21123},{\""page_index\"":1,\""viewing_time\"":7440},{\""page_index\"":2,\""viewing_time\"":3881}]"", ""task_type"": ""instruction"", ""task_payment"": 1, ""task_version"": 1, ""internal_node_id"": ""0.0-0.0"", ""time_elapsed"": 32448, ""debug_mode"": ""live"", ""task_name"": ""trustworthy-gt"", ""task_unique_trial"": 100, ""trial_index"": 0}"
AHDY3BLTTUYFG:37U1UTWH9XTAYEM7DW75A7YAAAG8RZ,1,1547850795691,"{""rt"": 25024, ""trial_type"": ""survey-multi-choice"", ""task_type"": ""demographic-multichoice"", ""responses"": ""{\""Q0\"":\""18-25\"",\""Q1\"":\""Female\"",\""Q2\"":\""No\"",\""Q3\"":\""3\"",\""Q4\"":\""White\"",\""Q5\"":\""Bachelor&#8217;s degree (e.g. BA, BS) or above\"",\""Q6\"":\""$50,000 - $74,999\""}"", ""task_payment"": 1, ""task_version"": 1, ""time_elapsed"": 57491, ""sanity_check_1_continue"": true, ""random_num"": 3, ""debug_mode"": ""live"", ""questions"": ""[{\""prompt\"":\""What is your age?\"",\""options\"":[\""Under 18\"",\""18-25\"",\""26-35\"",\""36-45\"",\""46-55\"",\""56+\""],\""required\"":true},{\""prompt\"":\""What is your gender?\"",\""options\"":[\""Male\"",\""Female\"",\""Other/Prefer not to say\""],\""required\"":true},{\""prompt\"":\""Are you of Hispanic, Latino, or Spanish origin?\"",\""options\"":[\""Yes\"",\""No\""],\""required\"":true},{\""prompt\"":\""Please choose the option that matches the number here: 3\"",\""options\"":[\""1\"",\""2\"",\""3\"",\""4\""],\""required\"":true},{\""prompt\"":\""How would you describe yourself?\"",\""options\"":[\""American Indian or Alaskan Native\"",\""Asian\"",\""Black or African-American\"",\""Native Hawaiian or Other Pacific Islander\"",\""White\""],\""required\"":true},{\""prompt\"":\""What is the highest degree or level of school you have completed? (If you&#8217;re currently enrolled in school, please indicate the highest degree you have received)\"",\""options\"":[\""Less than a high school diploma\"",\""High school degree or equivalent (e.g. GED)\"",\""Some college, no degree\"",\""Associate degree (e.g. AA, AS)\"",\""Bachelor&#8217;s degree (e.g. BA, BS) or above\""],\""required\"":true},{\""prompt\"":\""What is the total income of all members of your household?\"",\""options\"":[\""Less than $20,000\"",\""$20,000  - $49,999\"",\""$50,000 - $74,999\"",\""$75,000 and above\""],\""required\"":true}]"", ""internal_node_id"": ""0.0-1.0-0.0"", ""task_unique_trial"": 100, ""task_name"": ""trustworthy-gt"", ""trial_index"": 1}"
AHDY3BLTTUYFG:37U1UTWH9XTAYEM7DW75A7YAAAG8RZ,2,1547850801226,"{""rt"": 5531, ""trial_type"": ""face-likert-amanda"", ""debug_mode"": ""live"", ""task_type"": ""face trials"", ""responses"": ""{\""Q0\"":6}"", ""task_payment"": 1, ""task_version"": 1, ""internal_node_id"": ""0.0-2.0-0.0-0.0"", ""time_elapsed"": 63025, ""imgName"": ""/static/images/celeba_gt_crop/trustworthy/183037.jpg"", ""questions"": ""[{\""prompt\"":\""<p>How <b>trustworthy</b> does this person look to <b>most people</b>? Rate from 1-9</p>\"",\""labels\"":[\""1 <br/>Not trustworthy at all\"",\""2\"",\""3\"",\""4\"",\""5\"",\""6\"",\""7\"",\""8\"",\""9  <br/>Extremely trustworthy\""],\""required\"":true}]"", ""task_unique_trial"": 100, ""task_name"": ""trustworthy-gt"", ""trial_index"": 2, ""isRepeat"": 0}"
AHDY3BLTTUYFG:37U1UTWH9XTAYEM7DW75A7YAAAG8RZ,3,1547850805001,"{""rt"": 3772, ""trial_type"": ""face-likert-amanda"", ""debug_mode"": ""live"", ""task_type"": ""face trials"", ""responses"": ""{\""Q0\"":8}"", ""task_payment"": 1, ""task_version"": 1, ""internal_node_id"": ""0.0-2.0-0.0-1.0"", ""time_elapsed"": 66801, ""imgName"": ""/static/images/celeba_gt_crop/trustworthy/136140.jpg"", ""questions"": ""[{\""prompt\"":\""<p>How <b>trustworthy</b> does this person look to <b>most people</b>? Rate from 1-9</p>\"",\""labels\"":[\""1 <br/>Not trustworthy at all\"",\""2\"",\""3\"",\""4\"",\""5\"",\""6\"",\""7\"",\""8\"",\""9  <br/>Extremely trustworthy\""],\""required\"":true}]"", ""task_unique_trial"": 100, ""task_name"": ""trustworthy-gt"", ""trial_index"": 3, ""isRepeat"": 0}"
AHDY3BLTTUYFG:37U1UTWH9XTAYEM7DW75A7YAAAG8RZ,4,1547850811628,"{""rt"": 6626, ""trial_type"": ""face-likert-amanda"", ""debug_mode"": ""live"", ""task_type"": ""face trials"", ""responses"": ""{\""Q0\"":8}"", ""task_payment"": 1, ""task_version"": 1, ""internal_node_id"": ""0.0-2.0-0.0-2.0"", ""time_elapsed"": 73428, ""imgName"": ""/static/images/celeba_gt_crop/trustworthy/108522.jpg"", ""questions"": ""[{\""prompt\"":\""<p>How <b>trustworthy</b> does this person look to <b>most people</b>? Rate from 1-9</p>\"",\""labels\"":[\""1 <br/>Not trustworthy at all\"",\""2\"",\""3\"",\""4\"",\""5\"",\""6\"",\""7\"",\""8\"",\""9  <br/>Extremely trustworthy\""],\""required\"":true}]"", ""task_unique_trial"": 100, ""task_name"": ""trustworthy-gt"", ""trial_index"": 4, ""isRepeat"": 0}"
AHDY3BLTTUYFG:37U1UTWH9XTAYEM7DW75A7YAAAG8RZ,5,1547850818977,"{""rt"": 7347, ""trial_type"": ""face-likert-amanda"", ""debug_mode"": ""live"", ""task_type"": ""face trials"", ""responses"": ""{\""Q0\"":7}"", ""task_payment"": 1, ""task_version"": 1, ""internal_node_id"": ""0.0-2.0-0.0-3.0"", ""time_elapsed"": 80777, ""imgName"": ""/static/images/celeba_gt_crop/trustworthy/108821.jpg"", ""questions"": ""[{\""prompt\"":\""<p>How <b>trustworthy</b> does this person look to <b>most people</b>? Rate from 1-9</p>\"",\""labels\"":[\""1 <br/>Not trustworthy at all\"",\""2\"",\""3\"",\""4\"",\""5\"",\""6\"",\""7\"",\""8\"",\""9  <br/>Extremely trustworthy\""],\""required\"":true}]"", ""task_unique_trial"": 100, ""task_name"": ""trustworthy-gt"", ""trial_index"": 5, ""isRepeat"": 0}"
AHDY3BLTTUYFG:37U1UTWH9XTAYEM7DW75A7YAAAG8RZ,6,1547850822681,"{""rt"": 3702, ""trial_type"": ""face-likert-amanda"", ""debug_mode"": ""live"", ""task_type"": ""face trials"", ""responses"": ""{\""Q0\"":7}"", ""task_payment"": 1, ""task_version"": 1, ""internal_node_id"": ""0.0-2.0-0.0-4.0"", ""time_elapsed"": 84481, ""imgName"": ""/static/images/celeba_gt_crop/trustworthy/122676.jpg"", ""questions"": ""[{\""prompt\"":\""<p>How <b>trustworthy</b> does this person look to <b>most people</b>? Rate from 1-9</p>\"",\""labels\"":[\""1 <br/>Not trustworthy at all\"",\""2\"",\""3\"",\""4\"",\""5\"",\""6\"",\""7\"",\""8\"",\""9  <br/>Extremely trustworthy\""],\""required\"":true}]"", ""task_unique_trial"": 100, ""task_name"": ""trustworthy-gt"", ""trial_index"": 6, ""isRepeat"": 0}"
AHDY3BLTTUYFG:37U1UTWH9XTAYEM7DW75A7YAAAG8RZ,7,1547850826178,"{""rt"": 3496, ""trial_type"": ""face-likert-amanda"", ""debug_mode"": ""live"", ""task_type"": ""face trials"", ""responses"": ""{\""Q0\"":6}"", ""task_payment"": 1, ""task_version"": 1, ""internal_node_id"": ""0.0-2.0-0.0-5.0"", ""time_elapsed"": 87978, ""imgName"": ""/static/images/celeba_gt_crop/trustworthy/059649.jpg"", ""questions"": ""[{\""prompt\"":\""<p>How <b>trustworthy</b> does this person look to <b>most people</b>? Rate from 1-9</p>\"",\""labels\"":[\""1 <br/>Not trustworthy at all\"",\""2\"",\""3\"",\""4\"",\""5\"",\""6\"",\""7\"",\""8\"",\""9  <br/>Extremely trustworthy\""],\""required\"":true}]"", ""task_unique_trial"": 100, ""task_name"": ""trustworthy-gt"", ""trial_index"": 7, ""isRepeat"": 0}"
AHDY3BLTTUYFG:37U1UTWH9XTAYEM7DW75A7YAAAG8RZ,8,1547850830730,"{""rt"": 4549, ""trial_type"": ""face-likert-amanda"", ""debug_mode"": ""live"", ""task_type"": ""face trials"", ""responses"": ""{\""Q0\"":6}"", ""task_payment"": 1, ""task_version"": 1, ""internal_node_id"": ""0.0-2.0-0.0-6.0"", ""time_elapsed"": 92530, ""imgName"": ""/static/images/celeba_gt_crop/trustworthy/049175.jpg"", ""questions"": ""[{\""prompt\"":\""<p>How <b>trustworthy</b> does this person look to <b>most people</b>? Rate from 1-9</p>\"",\""labels\"":[\""1 <br/>Not trustworthy at all\"",\""2\"",\""3\"",\""4\"",\""5\"",\""6\"",\""7\"",\""8\"",\""9  <br/>Extremely trustworthy\""],\""required\"":true}]"", ""task_unique_trial"": 100, ""task_name"": ""trustworthy-gt"", ""trial_index"": 8, ""isRepeat"": 0}"
AHDY3BLTTUYFG:37U1UTWH9XTAYEM7DW75A7YAAAG8RZ,9,1547850835593,"{""rt"": 4862, ""trial_type"": ""face-likert-amanda"", ""debug_mode"": ""live"", ""task_type"": ""face trials"", ""responses"": ""{\""Q0\"":7}"", ""task_payment"": 1, ""task_version"": 1, ""internal_node_id"": ""0.0-2.0-0.0-7.0"", ""time_elapsed"": 97392, ""imgName"": ""/static/images/celeba_gt_crop/trustworthy/003704.jpg"", ""questions"": ""[{\""prompt\"":\""<p>How <b>trustworthy</b> does this person look to <b>most people</b>? Rate from 1-9</p>\"",\""labels\"":[\""1 <br/>Not trustworthy at all\"",\""2\"",\""3\"",\""4\"",\""5\"",\""6\"",\""7\"",\""8\"",\""9  <br/>Extremely trustworthy\""],\""required\"":true}]"", ""task_unique_trial"": 100, ""task_name"": ""trustworthy-gt"", ""trial_index"": 9, ""isRepeat"": 0}"
AHDY3BLTTUYFG:37U1UTWH9XTAYEM7DW75A7YAAAG8RZ,10,1547850838321,"{""rt"": 2728, ""trial_type"": ""face-likert-amanda"", ""debug_mode"": ""live"", ""task_type"": ""face trials"", ""responses"": ""{\""Q0\"":8}"", ""task_payment"": 1, ""task_version"": 1, ""internal_node_id"": ""0.0-2.0-0.0-8.0"", ""time_elapsed"": 100121, ""imgName"": ""/static/images/celeba_gt_crop/trustworthy/111710.jpg"", ""questions"": ""[{\""prompt\"":\""<p>How <b>trustworthy</b> does this person look to <b>most people</b>? Rate from 1-9</p>\"",\""labels\"":[\""1 <br/>Not trustworthy at all\"",\""2\"",\""3\"",\""4\"",\""5\"",\""6\"",\""7\"",\""8\"",\""9  <br/>Extremely trustworthy\""],\""required\"":true}]"", ""task_unique_trial"": 100, ""task_name"": ""trustworthy-gt"", ""trial_index"": 10, ""isRepeat"": 0}"
AHDY3BLTTUYFG:37U1UTWH9XTAYEM7DW75A7YAAAG8RZ,11,1547850842490,"{""rt"": 4168, ""trial_type"": ""face-likert-amanda"", ""debug_mode"": ""live"", ""task_type"": ""face trials"", ""responses"": ""{\""Q0\"":6}"", ""task_payment"": 1, ""task_version"": 1, ""internal_node_id"": ""0.0-2.0-0.0-9.0"", ""time_elapsed"": 104290, ""imgName"": ""/static/images/celeba_gt_crop/trustworthy/051469.jpg"", ""questions"": ""[{\""prompt\"":\""<p>How <b>trustworthy</b> does this person look to <b>most people</b>? Rate from 1-9</p>\"",\""labels\"":[\""1 <br/>Not trustworthy at all\"",\""2\"",\""3\"",\""4\"",\""5\"",\""6\"",\""7\"",\""8\"",\""9  <br/>Extremely trustworthy\""],\""required\"":true}]"", ""task_unique_trial"": 100, ""task_name"": ""trustworthy-gt"", ""trial_index"": 11, ""isRepeat"": 0}"
AHDY3BLTTUYFG:37U1UTWH9XTAYEM7DW75A7YAAAG8RZ,12,1547850843492,"{""rt"": null, ""trial_type"": ""html-keyboard-response"", ""task_unique_trial"": 100, ""stimulus"": ""<p>Good job!</p>"", ""task_version"": 1, ""internal_node_id"": ""0.0-2.0-1.0"", ""task_payment"": 1, ""time_elapsed"": 105291, ""debug_mode"": ""live"", ""key_press"": null, ""task_name"": ""trustworthy-gt"", ""trial_index"": 12}"
AHDY3BLTTUYFG:37U1UTWH9XTAYEM7DW75A7YAAAG8RZ,13,1547850846369,"{""rt"": 2877, ""trial_type"": ""face-likert-amanda"", ""debug_mode"": ""live"", ""task_type"": ""face trials"", ""responses"": ""{\""Q0\"":7}"", ""task_payment"": 1, ""task_version"": 1, ""internal_node_id"": ""0.0-3.0-0.0-0.0"", ""time_elapsed"": 108169, ""imgName"": ""/static/images/celeba_gt_crop/trustworthy/059649.jpg"", ""questions"": ""[{\""prompt\"":\""<p>How <b>trustworthy</b> does this person look to <b>most people</b>? Rate from 1-9</p>\"",\""labels\"":[\""1 <br/>Not trustworthy at all\"",\""2\"",\""3\"",\""4\"",\""5\"",\""6\"",\""7\"",\""8\"",\""9  <br/>Extremely trustworthy\""],\""required\"":true}]"", ""task_unique_trial"": 100, ""task_name"": ""trustworthy-gt"", ""trial_index"": 13, ""isRepeat"": 0}"
AHDY3BLTTUYFG:37U1UTWH9XTAYEM7DW75A7YAAAG8RZ,14,1547850849194,"{""rt"": 2823, ""trial_type"": ""face-likert-amanda"", ""debug_mode"": ""live"", ""task_type"": ""face trials"", ""responses"": ""{\""Q0\"":7}"", ""task_payment"": 1, ""task_version"": 1, ""internal_node_id"": ""0.0-3.0-0.0-1.0"", ""time_elapsed"": 110994, ""imgName"": ""/static/images/celeba_gt_crop/trustworthy/127983.jpg"", ""questions"": ""[{\""prompt\"":\""<p>How <b>trustworthy</b> does this person look to <b>most people</b>? Rate from 1-9</p>\"",\""labels\"":[\""1 <br/>Not trustworthy at all\"",\""2\"",\""3\"",\""4\"",\""5\"",\""6\"",\""7\"",\""8\"",\""9  <br/>Extremely trustworthy\""],\""required\"":true}]"", ""task_unique_trial"": 100, ""task_name"": ""trustworthy-gt"", ""trial_index"": 14, ""isRepeat"": 0}"
AHDY3BLTTUYFG:37U1UTWH9XTAYEM7DW75A7YAAAG8RZ,15,1547850857562,"{""rt"": 8366, ""trial_type"": ""face-likert-amanda"", ""debug_mode"": ""live"", ""task_type"": ""face trials"", ""responses"": ""{\""Q0\"":7}"", ""task_payment"": 1, ""task_version"": 1, ""internal_node_id"": ""0.0-3.0-0.0-2.0"", ""time_elapsed"": 119362, ""imgName"": ""/static/images/celeba_gt_crop/trustworthy/101536.jpg"", ""questions"": ""[{\""prompt\"":\""<p>How <b>trustworthy</b> does this person look to <b>most people</b>? Rate from 1-9</p>\"",\""labels\"":[\""1 <br/>Not trustworthy at all\"",\""2\"",\""3\"",\""4\"",\""5\"",\""6\"",\""7\"",\""8\"",\""9  <br/>Extremely trustworthy\""],\""required\"":true}]"", ""task_unique_trial"": 100, ""task_name"": ""trustworthy-gt"", ""trial_index"": 15, ""isRepeat"": 0}"
AHDY3BLTTUYFG:37U1UTWH9XTAYEM7DW75A7YAAAG8RZ,16,1547850863363,"{""rt"": 5800, ""trial_type"": ""face-likert-amanda"", ""debug_mode"": ""live"", ""task_type"": ""face trials"", ""responses"": ""{\""Q0\"":7}"", ""task_payment"": 1, ""task_version"": 1, ""internal_node_id"": ""0.0-3.0-0.0-3.0"", ""time_elapsed"": 125163, ""imgName"": ""/static/images/celeba_gt_crop/trustworthy/061668.jpg"", ""questions"": ""[{\""prompt\"":\""<p>How <b>trustworthy</b> does this person look to <b>most people</b>? Rate from 1-9</p>\"",\""labels\"":[\""1 <br/>Not trustworthy at all\"",\""2\"",\""3\"",\""4\"",\""5\"",\""6\"",\""7\"",\""8\"",\""9  <br/>Extremely trustworthy\""],\""required\"":true}]"", ""task_unique_trial"": 100, ""task_name"": ""trustworthy-gt"", ""trial_index"": 16, ""isRepeat"": 0}"
AHDY3BLTTUYFG:37U1UTWH9XTAYEM7DW75A7YAAAG8RZ,17,1547850867811,"{""rt"": 4446, ""trial_type"": ""face-likert-amanda"", ""debug_mode"": ""live"", ""task_type"": ""face trials"", ""responses"": ""{\""Q0\"":6}"", ""task_payment"": 1, ""task_version"": 1, ""internal_node_id"": ""0.0-3.0-0.0-4.0"", ""time_elapsed"": 129611, ""imgName"": ""/static/images/celeba_gt_crop/trustworthy/049175.jpg"", ""questions"": ""[{\""prompt\"":\""<p>How <b>trustworthy</b> does this person look to <b>most people</b>? Rate from 1-9</p>\"",\""labels\"":[\""1 <br/>Not trustworthy at all\"",\""2\"",\""3\"",\""4\"",\""5\"",\""6\"",\""7\"",\""8\"",\""9  <br/>Extremely trustworthy\""],\""required\"":true}]"", ""task_unique_trial"": 100, ""task_name"": ""trustworthy-gt"", ""trial_index"": 17, ""isRepeat"": 0}"
AHDY3BLTTUYFG:37U1UTWH9XTAYEM7DW75A7YAAAG8RZ,18,1547850876819,"{""rt"": 9006, ""trial_type"": ""face-likert-amanda"", ""debug_mode"": ""live"", ""task_type"": ""face trials"", ""responses"": ""{\""Q0\"":7}"", ""task_payment"": 1, ""task_version"": 1, ""internal_node_id"": ""0.0-3.0-0.0-5.0"", ""time_elapsed"": 138619, ""imgName"": ""/static/images/celeba_gt_crop/trustworthy/027045.jpg"", ""questions"": ""[{\""prompt\"":\""<p>How <b>trustworthy</b> does this person look to <b>most people</b>? Rate from 1-9</p>\"",\""labels\"":[\""1 <br/>Not trustworthy at all\"",\""2\"",\""3\"",\""4\"",\""5\"",\""6\"",\""7\"",\""8\"",\""9  <br/>Extremely trustworthy\""],\""required\"":true}]"", ""task_unique_trial"": 100, ""task_name"": ""trustworthy-gt"", ""trial_index"": 18, ""isRepeat"": 0}"
AHDY3BLTTUYFG:37U1UTWH9XTAYEM7DW75A7YAAAG8RZ,19,1547850884618,"{""rt"": 7799, ""trial_type"": ""face-likert-amanda"", ""debug_mode"": ""live"", ""task_type"": ""face trials"", ""responses"": ""{\""Q0\"":7}"", ""task_payment"": 1, ""task_version"": 1, ""internal_node_id"": ""0.0-3.0-0.0-6.0"", ""time_elapsed"": 146418, ""imgName"": ""/static/images/celeba_gt_crop/trustworthy/075690.jpg"", ""questions"": ""[{\""prompt\"":\""<p>How <b>trustworthy</b> does this person look to <b>most people</b>? Rate from 1-9</p>\"",\""labels\"":[\""1 <br/>Not trustworthy at all\"",\""2\"",\""3\"",\""4\"",\""5\"",\""6\"",\""7\"",\""8\"",\""9  <br/>Extremely trustworthy\""],\""required\"":true}]"", ""task_unique_trial"": 100, ""task_name"": ""trustworthy-gt"", ""trial_index"": 19, ""isRepeat"": 0}"
AHDY3BLTTUYFG:37U1UTWH9XTAYEM7DW75A7YAAAG8RZ,20,1547850889451,"{""rt"": 4831, ""trial_type"": ""face-likert-amanda"", ""debug_mode"": ""live"", ""task_type"": ""face trials"", ""responses"": ""{\""Q0\"":7}"", ""task_payment"": 1, ""task_version"": 1, ""internal_node_id"": ""0.0-3.0-0.0-7.0"", ""time_elapsed"": 151251, ""imgName"": ""/static/images/celeba_gt_crop/trustworthy/043890.jpg"", ""questions"": ""[{\""prompt\"":\""<p>How <b>trustworthy</b> does this person look to <b>most people</b>? Rate from 1-9</p>\"",\""labels\"":[\""1 <br/>Not trustworthy at all\"",\""2\"",\""3\"",\""4\"",\""5\"",\""6\"",\""7\"",\""8\"",\""9  <br/>Extremely trustworthy\""],\""required\"":true}]"", ""task_unique_trial"": 100, ""task_name"": ""trustworthy-gt"", ""trial_index"": 20, ""isRepeat"": 0}"
AHDY3BLTTUYFG:37U1UTWH9XTAYEM7DW75A7YAAAG8RZ,21,1547850892555,"{""rt"": 3101, ""trial_type"": ""face-likert-amanda"", ""debug_mode"": ""live"", ""task_type"": ""face trials"", ""responses"": ""{\""Q0\"":6}"", ""task_payment"": 1, ""task_version"": 1, ""internal_node_id"": ""0.0-3.0-0.0-8.0"", ""time_elapsed"": 154355, ""imgName"": ""/static/images/celeba_gt_crop/trustworthy/182463.jpg"", ""questions"": ""[{\""prompt\"":\""<p>How <b>trustworthy</b> does this person look to <b>most people</b>? Rate from 1-9</p>\"",\""labels\"":[\""1 <br/>Not trustworthy at all\"",\""2\"",\""3\"",\""4\"",\""5\"",\""6\"",\""7\"",\""8\"",\""9  <br/>Extremely trustworthy\""],\""required\"":true}]"", ""task_unique_trial"": 100, ""task_name"": ""trustworthy-gt"", ""trial_index"": 21, ""isRepeat"": 0}"
AHDY3BLTTUYFG:37U1UTWH9XTAYEM7DW75A7YAAAG8RZ,22,1547850916197,"{""rt"": 23640, ""trial_type"": ""face-likert-amanda"", ""debug_mode"": ""live"", ""task_type"": ""face trials"", ""responses"": ""{\""Q0\"":7}"", ""task_payment"": 1, ""task_version"": 1, ""internal_node_id"": ""0.0-3.0-0.0-9.0"", ""time_elapsed"": 177997, ""imgName"": ""/static/images/celeba_gt_crop/trustworthy/126447.jpg"", ""questions"": ""[{\""prompt\"":\""<p>How <b>trustworthy</b> does this person look to <b>most people</b>? Rate from 1-9</p>\"",\""labels\"":[\""1 <br/>Not trustworthy at all\"",\""2\"",\""3\"",\""4\"",\""5\"",\""6\"",\""7\"",\""8\"",\""9  <br/>Extremely trustworthy\""],\""required\"":true}]"", ""task_unique_trial"": 100, ""task_name"": ""trustworthy-gt"", ""trial_index"": 22, ""isRepeat"": 0}"
AHDY3BLTTUYFG:37U1UTWH9XTAYEM7DW75A7YAAAG8RZ,23,1547850917699,"{""rt"": null, ""trial_type"": ""html-keyboard-response"", ""task_unique_trial"": 100, ""stimulus"": ""<p>Good job!</p>"", ""task_version"": 1, ""internal_node_id"": ""0.0-3.0-1.0"", ""task_payment"": 1, ""time_elapsed"": 179499, ""debug_mode"": ""live"", ""key_press"": null, ""task_name"": ""trustworthy-gt"", ""trial_index"": 23}"
AHDY3BLTTUYFG:37U1UTWH9XTAYEM7DW75A7YAAAG8RZ,24,1547850920085,"{""rt"": 2384, ""trial_type"": ""face-likert-amanda"", ""debug_mode"": ""live"", ""task_type"": ""face trials"", ""responses"": ""{\""Q0\"":7}"", ""task_payment"": 1, ""task_version"": 1, ""internal_node_id"": ""0.0-4.0-0.0-0.0"", ""time_elapsed"": 181884, ""imgName"": ""/static/images/celeba_gt_crop/trustworthy/104972.jpg"", ""questions"": ""[{\""prompt\"":\""<p>How <b>trustworthy</b> does this person look to <b>most people</b>? Rate from 1-9</p>\"",\""labels\"":[\""1 <br/>Not trustworthy at all\"",\""2\"",\""3\"",\""4\"",\""5\"",\""6\"",\""7\"",\""8\"",\""9  <br/>Extremely trustworthy\""],\""required\"":true}]"", ""task_unique_trial"": 100, ""task_name"": ""trustworthy-gt"", ""trial_index"": 24, ""isRepeat"": 0}"
AHDY3BLTTUYFG:37U1UTWH9XTAYEM7DW75A7YAAAG8RZ,25,1547850922700,"{""rt"": 2614, ""trial_type"": ""face-likert-amanda"", ""debug_mode"": ""live"", ""task_type"": ""face trials"", ""responses"": ""{\""Q0\"":7}"", ""task_payment"": 1, ""task_version"": 1, ""internal_node_id"": ""0.0-4.0-0.0-1.0"", ""time_elapsed"": 184500, ""imgName"": ""/static/images/celeba_gt_crop/trustworthy/148109.jpg"", ""questions"": ""[{\""prompt\"":\""<p>How <b>trustworthy</b> does this person look to <b>most people</b>? Rate from 1-9</p>\"",\""labels\"":[\""1 <br/>Not trustworthy at all\"",\""2\"",\""3\"",\""4\"",\""5\"",\""6\"",\""7\"",\""8\"",\""9  <br/>Extremely trustworthy\""],\""required\"":true}]"", ""task_unique_trial"": 100, ""task_name"": ""trustworthy-gt"", ""trial_index"": 25, ""isRepeat"": 0}"
AHDY3BLTTUYFG:37U1UTWH9XTAYEM7DW75A7YAAAG8RZ,26,1547850926421,"{""rt"": 3718, ""trial_type"": ""face-likert-amanda"", ""debug_mode"": ""live"", ""task_type"": ""face trials"", ""responses"": ""{\""Q0\"":8}"", ""task_payment"": 1, ""task_version"": 1, ""internal_node_id"": ""0.0-4.0-0.0-2.0"", ""time_elapsed"": 188221, ""imgName"": ""/static/images/celeba_gt_crop/trustworthy/105842.jpg"", ""questions"": ""[{\""prompt\"":\""<p>How <b>trustworthy</b> does this person look to <b>most people</b>? Rate from 1-9</p>\"",\""labels\"":[\""1 <br/>Not trustworthy at all\"",\""2\"",\""3\"",\""4\"",\""5\"",\""6\"",\""7\"",\""8\"",\""9  <br/>Extremely trustworthy\""],\""required\"":true}]"", ""task_unique_trial"": 100, ""task_name"": ""trustworthy-gt"", ""trial_index"": 26, ""isRepeat"": 0}"
AHDY3BLTTUYFG:37U1UTWH9XTAYEM7DW75A7YAAAG8RZ,27,1547850929244,"{""rt"": 2822, ""trial_type"": ""face-likert-amanda"", ""debug_mode"": ""live"", ""task_type"": ""face trials"", ""responses"": ""{\""Q0\"":8}"", ""task_payment"": 1, ""task_version"": 1, ""internal_node_id"": ""0.0-4.0-0.0-3.0"", ""time_elapsed"": 191044, ""imgName"": ""/static/images/celeba_gt_crop/trustworthy/142336.jpg"", ""questions"": ""[{\""prompt\"":\""<p>How <b>trustworthy</b> does this person look to <b>most people</b>? Rate from 1-9</p>\"",\""labels\"":[\""1 <br/>Not trustworthy at all\"",\""2\"",\""3\"",\""4\"",\""5\"",\""6\"",\""7\"",\""8\"",\""9  <br/>Extremely trustworthy\""],\""required\"":true}]"", ""task_unique_trial"": 100, ""task_name"": ""trustworthy-gt"", ""trial_index"": 27, ""isRepeat"": 0}"
AHDY3BLTTUYFG:37U1UTWH9XTAYEM7DW75A7YAAAG8RZ,28,1547850933837,"{""rt"": 4591, ""trial_type"": ""face-likert-amanda"", ""debug_mode"": ""live"", ""task_type"": ""face trials"", ""responses"": ""{\""Q0\"":7}"", ""task_payment"": 1, ""task_version"": 1, ""internal_node_id"": ""0.0-4.0-0.0-4.0"", ""time_elapsed"": 195637, ""imgName"": ""/static/images/celeba_gt_crop/trustworthy/018905.jpg"", ""questions"": ""[{\""prompt\"":\""<p>How <b>trustworthy</b> does this person look to <b>most people</b>? Rate from 1-9</p>\"",\""labels\"":[\""1 <br/>Not trustworthy at all\"",\""2\"",\""3\"",\""4\"",\""5\"",\""6\"",\""7\"",\""8\"",\""9  <br/>Extremely trustworthy\""],\""required\"":true}]"", ""task_unique_trial"": 100, ""task_name"": ""trustworthy-gt"", ""trial_index"": 28, ""isRepeat"": 0}"
AHDY3BLTTUYFG:37U1UTWH9XTAYEM7DW75A7YAAAG8RZ,29,1547850936389,"{""rt"": 2549, ""trial_type"": ""face-likert-amanda"", ""debug_mode"": ""live"", ""task_type"": ""face trials"", ""responses"": ""{\""Q0\"":6}"", ""task_payment"": 1, ""task_version"": 1, ""internal_node_id"": ""0.0-4.0-0.0-5.0"", ""time_elapsed"": 198189, ""imgName"": ""/static/images/celeba_gt_crop/trustworthy/122676.jpg"", ""questions"": ""[{\""prompt\"":\""<p>How <b>trustworthy</b> does this person look to <b>most people</b>? Rate from 1-9</p>\"",\""labels\"":[\""1 <br/>Not trustworthy at all\"",\""2\"",\""3\"",\""4\"",\""5\"",\""6\"",\""7\"",\""8\"",\""9  <br/>Extremely trustworthy\""],\""required\"":true}]"", ""task_unique_trial"": 100, ""task_name"": ""trustworthy-gt"", ""trial_index"": 29, ""isRepeat"": 0}"
AHDY3BLTTUYFG:37U1UTWH9XTAYEM7DW75A7YAAAG8RZ,30,1547850939206,"{""rt"": 2815, ""trial_type"": ""face-likert-amanda"", ""debug_mode"": ""live"", ""task_type"": ""face trials"", ""responses"": ""{\""Q0\"":6}"", ""task_payment"": 1, ""task_version"": 1, ""internal_node_id"": ""0.0-4.0-0.0-6.0"", ""time_elapsed"": 201005, ""imgName"": ""/static/images/celeba_gt_crop/trustworthy/171858.jpg"", ""questions"": ""[{\""prompt\"":\""<p>How <b>trustworthy</b> does this person look to <b>most people</b>? Rate from 1-9</p>\"",\""labels\"":[\""1 <br/>Not trustworthy at all\"",\""2\"",\""3\"",\""4\"",\""5\"",\""6\"",\""7\"",\""8\"",\""9  <br/>Extremely trustworthy\""],\""required\"":true}]"", ""task_unique_trial"": 100, ""task_name"": ""trustworthy-gt"", ""trial_index"": 30, ""isRepeat"": 0}"
AHDY3BLTTUYFG:37U1UTWH9XTAYEM7DW75A7YAAAG8RZ,31,1547850941189,"{""rt"": 1981, ""trial_type"": ""face-likert-amanda"", ""debug_mode"": ""live"", ""task_type"": ""face trials"", ""responses"": ""{\""Q0\"":7}"", ""task_payment"": 1, ""task_version"": 1, ""internal_node_id"": ""0.0-4.0-0.0-7.0"", ""time_elapsed"": 202989, ""imgName"": ""/static/images/celeba_gt_crop/trustworthy/148852.jpg"", ""questions"": ""[{\""prompt\"":\""<p>How <b>trustworthy</b> does this person look to <b>most people</b>? Rate from 1-9</p>\"",\""labels\"":[\""1 <br/>Not trustworthy at all\"",\""2\"",\""3\"",\""4\"",\""5\"",\""6\"",\""7\"",\""8\"",\""9  <br/>Extremely trustworthy\""],\""required\"":true}]"", ""task_unique_trial"": 100, ""task_name"": ""trustworthy-gt"", ""trial_index"": 31, ""isRepeat"": 0}"
AHDY3BLTTUYFG:37U1UTWH9XTAYEM7DW75A7YAAAG8RZ,32,1547850943869,"{""rt"": 2678, ""trial_type"": ""face-likert-amanda"", ""debug_mode"": ""live"", ""task_type"": ""face trials"", ""responses"": ""{\""Q0\"":8}"", ""task_payment"": 1, ""task_version"": 1, ""internal_node_id"": ""0.0-4.0-0.0-8.0"", ""time_elapsed"": 205669, ""imgName"": ""/static/images/celeba_gt_crop/trustworthy/139088.jpg"", ""questions"": ""[{\""prompt\"":\""<p>How <b>trustworthy</b> does this person look to <b>most people</b>? Rate from 1-9</p>\"",\""labels\"":[\""1 <br/>Not trustworthy at all\"",\""2\"",\""3\"",\""4\"",\""5\"",\""6\"",\""7\"",\""8\"",\""9  <br/>Extremely trustworthy\""],\""required\"":true}]"", ""task_unique_trial"": 100, ""task_name"": ""trustworthy-gt"", ""trial_index"": 32, ""isRepeat"": 0}"
AHDY3BLTTUYFG:37U1UTWH9XTAYEM7DW75A7YAAAG8RZ,33,1547850945829,"{""rt"": 1959, ""trial_type"": ""face-likert-amanda"", ""debug_mode"": ""live"", ""task_type"": ""face trials"", ""responses"": ""{\""Q0\"":6}"", ""task_payment"": 1, ""task_version"": 1, ""internal_node_id"": ""0.0-4.0-0.0-9.0"", ""time_elapsed"": 207629, ""imgName"": ""/static/images/celeba_gt_crop/trustworthy/002906.jpg"", ""questions"": ""[{\""prompt\"":\""<p>How <b>trustworthy</b> does this person look to <b>most people</b>? Rate from 1-9</p>\"",\""labels\"":[\""1 <br/>Not trustworthy at all\"",\""2\"",\""3\"",\""4\"",\""5\"",\""6\"",\""7\"",\""8\"",\""9  <br/>Extremely trustworthy\""],\""required\"":true}]"", ""task_unique_trial"": 100, ""task_name"": ""trustworthy-gt"", ""trial_index"": 33, ""isRepeat"": 0}"
AHDY3BLTTUYFG:37U1UTWH9XTAYEM7DW75A7YAAAG8RZ,34,1547850947841,"{""rt"": null, ""trial_type"": ""html-keyboard-response"", ""task_unique_trial"": 100, ""stimulus"": ""<p>Good job!</p>"", ""task_version"": 1, ""internal_node_id"": ""0.0-4.0-1.0"", ""task_payment"": 1, ""time_elapsed"": 209641, ""debug_mode"": ""live"", ""key_press"": null, ""task_name"": ""trustworthy-gt"", ""trial_index"": 34}"
AHDY3BLTTUYFG:37U1UTWH9XTAYEM7DW75A7YAAAG8RZ,35,1547850951429,"{""rt"": 3587, ""trial_type"": ""face-likert-amanda"", ""debug_mode"": ""live"", ""task_type"": ""face trials"", ""responses"": ""{\""Q0\"":7}"", ""task_payment"": 1, ""task_version"": 1, ""internal_node_id"": ""0.0-5.0-0.0-0.0"", ""time_elapsed"": 213229, ""imgName"": ""/static/images/celeba_gt_crop/trustworthy/109934.jpg"", ""questions"": ""[{\""prompt\"":\""<p>How <b>trustworthy</b> does this person look to <b>most people</b>? Rate from 1-9</p>\"",\""labels\"":[\""1 <br/>Not trustworthy at all\"",\""2\"",\""3\"",\""4\"",\""5\"",\""6\"",\""7\"",\""8\"",\""9  <br/>Extremely trustworthy\""],\""required\"":true}]"", ""task_unique_trial"": 100, ""task_name"": ""trustworthy-gt"", ""trial_index"": 35, ""isRepeat"": 0}"
AHDY3BLTTUYFG:37U1UTWH9XTAYEM7DW75A7YAAAG8RZ,36,1547850954326,"{""rt"": 2893, ""trial_type"": ""face-likert-amanda"", ""debug_mode"": ""live"", ""task_type"": ""face trials"", ""responses"": ""{\""Q0\"":7}"", ""task_payment"": 1, ""task_version"": 1, ""internal_node_id"": ""0.0-5.0-0.0-1.0"", ""time_elapsed"": 216126, ""imgName"": ""/static/images/celeba_gt_crop/trustworthy/139565.jpg"", ""questions"": ""[{\""prompt\"":\""<p>How <b>trustworthy</b> does this person look to <b>most people</b>? Rate from 1-9</p>\"",\""labels\"":[\""1 <br/>Not trustworthy at all\"",\""2\"",\""3\"",\""4\"",\""5\"",\""6\"",\""7\"",\""8\"",\""9  <br/>Extremely trustworthy\""],\""required\"":true}]"", ""task_unique_trial"": 100, ""task_name"": ""trustworthy-gt"", ""trial_index"": 36, ""isRepeat"": 0}"
AHDY3BLTTUYFG:37U1UTWH9XTAYEM7DW75A7YAAAG8RZ,37,1547850957366,"{""rt"": 3037, ""trial_type"": ""face-likert-amanda"", ""debug_mode"": ""live"", ""task_type"": ""face trials"", ""responses"": ""{\""Q0\"":5}"", ""task_payment"": 1, ""task_version"": 1, ""internal_node_id"": ""0.0-5.0-0.0-2.0"", ""time_elapsed"": 219164, ""imgName"": ""/static/images/celeba_gt_crop/trustworthy/143688.jpg"", ""questions"": ""[{\""prompt\"":\""<p>How <b>trustworthy</b> does this person look to <b>most people</b>? Rate from 1-9</p>\"",\""labels\"":[\""1 <br/>Not trustworthy at all\"",\""2\"",\""3\"",\""4\"",\""5\"",\""6\"",\""7\"",\""8\"",\""9  <br/>Extremely trustworthy\""],\""required\"":true}]"", ""task_unique_trial"": 100, ""task_name"": ""trustworthy-gt"", ""trial_index"": 37, ""isRepeat"": 0}"
AHDY3BLTTUYFG:37U1UTWH9XTAYEM7DW75A7YAAAG8RZ,38,1547850959765,"{""rt"": 2398, ""trial_type"": ""face-likert-amanda"", ""debug_mode"": ""live"", ""task_type"": ""face trials"", ""responses"": ""{\""Q0\"":6}"", ""task_payment"": 1, ""task_version"": 1, ""internal_node_id"": ""0.0-5.0-0.0-3.0"", ""time_elapsed"": 221564, ""imgName"": ""/static/images/celeba_gt_crop/trustworthy/053040.jpg"", ""questions"": ""[{\""prompt\"":\""<p>How <b>trustworthy</b> does this person look to <b>most people</b>? Rate from 1-9</p>\"",\""labels\"":[\""1 <br/>Not trustworthy at all\"",\""2\"",\""3\"",\""4\"",\""5\"",\""6\"",\""7\"",\""8\"",\""9  <br/>Extremely trustworthy\""],\""required\"":true}]"", ""task_unique_trial"": 100, ""task_name"": ""trustworthy-gt"", ""trial_index"": 38, ""isRepeat"": 0}"
AHDY3BLTTUYFG:37U1UTWH9XTAYEM7DW75A7YAAAG8RZ,39,1547850962126,"{""rt"": 2358, ""trial_type"": ""face-likert-amanda"", ""debug_mode"": ""live"", ""task_type"": ""face trials"", ""responses"": ""{\""Q0\"":7}"", ""task_payment"": 1, ""task_version"": 1, ""internal_node_id"": ""0.0-5.0-0.0-4.0"", ""time_elapsed"": 223924, ""imgName"": ""/static/images/celeba_gt_crop/trustworthy/023754.jpg"", ""questions"": ""[{\""prompt\"":\""<p>How <b>trustworthy</b> does this person look to <b>most people</b>? Rate from 1-9</p>\"",\""labels\"":[\""1 <br/>Not trustworthy at all\"",\""2\"",\""3\"",\""4\"",\""5\"",\""6\"",\""7\"",\""8\"",\""9  <br/>Extremely trustworthy\""],\""required\"":true}]"", ""task_unique_trial"": 100, ""task_name"": ""trustworthy-gt"", ""trial_index"": 39, ""isRepeat"": 0}"
AHDY3BLTTUYFG:37U1UTWH9XTAYEM7DW75A7YAAAG8RZ,40,1547850966007,"{""rt"": 3878, ""trial_type"": ""face-likert-amanda"", ""debug_mode"": ""live"", ""task_type"": ""face trials"", ""responses"": ""{\""Q0\"":8}"", ""task_payment"": 1, ""task_version"": 1, ""internal_node_id"": ""0.0-5.0-0.0-5.0"", ""time_elapsed"": 227807, ""imgName"": ""/static/images/celeba_gt_crop/trustworthy/018905.jpg"", ""questions"": ""[{\""prompt\"":\""<p>How <b>trustworthy</b> does this person look to <b>most people</b>? Rate from 1-9</p>\"",\""labels\"":[\""1 <br/>Not trustworthy at all\"",\""2\"",\""3\"",\""4\"",\""5\"",\""6\"",\""7\"",\""8\"",\""9  <br/>Extremely trustworthy\""],\""required\"":true}]"", ""task_unique_trial"": 100, ""task_name"": ""trustworthy-gt"", ""trial_index"": 40, ""isRepeat"": 0}"
AHDY3BLTTUYFG:37U1UTWH9XTAYEM7DW75A7YAAAG8RZ,41,1547850968429,"{""rt"": 2421, ""trial_type"": ""face-likert-amanda"", ""debug_mode"": ""live"", ""task_type"": ""face trials"", ""responses"": ""{\""Q0\"":7}"", ""task_payment"": 1, ""task_version"": 1, ""internal_node_id"": ""0.0-5.0-0.0-6.0"", ""time_elapsed"": 230229, ""imgName"": ""/static/images/celeba_gt_crop/trustworthy/163934.jpg"", ""questions"": ""[{\""prompt\"":\""<p>How <b>trustworthy</b> does this person look to <b>most people</b>? Rate from 1-9</p>\"",\""labels\"":[\""1 <br/>Not trustworthy at all\"",\""2\"",\""3\"",\""4\"",\""5\"",\""6\"",\""7\"",\""8\"",\""9  <br/>Extremely trustworthy\""],\""required\"":true}]"", ""task_unique_trial"": 100, ""task_name"": ""trustworthy-gt"", ""trial_index"": 41, ""isRepeat"": 0}"
AHDY3BLTTUYFG:37U1UTWH9XTAYEM7DW75A7YAAAG8RZ,42,1547850970397,"{""rt"": 1966, ""trial_type"": ""face-likert-amanda"", ""debug_mode"": ""live"", ""task_type"": ""face trials"", ""responses"": ""{\""Q0\"":7}"", ""task_payment"": 1, ""task_version"": 1, ""internal_node_id"": ""0.0-5.0-0.0-7.0"", ""time_elapsed"": 232197, ""imgName"": ""/static/images/celeba_gt_crop/trustworthy/159382.jpg"", ""questions"": ""[{\""prompt\"":\""<p>How <b>trustworthy</b> does this person look to <b>most people</b>? Rate from 1-9</p>\"",\""labels\"":[\""1 <br/>Not trustworthy at all\"",\""2\"",\""3\"",\""4\"",\""5\"",\""6\"",\""7\"",\""8\"",\""9  <br/>Extremely trustworthy\""],\""required\"":true}]"", ""task_unique_trial"": 100, ""task_name"": ""trustworthy-gt"", ""trial_index"": 42, ""isRepeat"": 0}"
AHDY3BLTTUYFG:37U1UTWH9XTAYEM7DW75A7YAAAG8RZ,43,1547850973614,"{""rt"": 3214, ""trial_type"": ""face-likert-amanda"", ""debug_mode"": ""live"", ""task_type"": ""face trials"", ""responses"": ""{\""Q0\"":7}"", ""task_payment"": 1, ""task_version"": 1, ""internal_node_id"": ""0.0-5.0-0.0-8.0"", ""time_elapsed"": 235414, ""imgName"": ""/static/images/celeba_gt_crop/trustworthy/095854.jpg"", ""questions"": ""[{\""prompt\"":\""<p>How <b>trustworthy</b> does this person look to <b>most people</b>? Rate from 1-9</p>\"",\""labels\"":[\""1 <br/>Not trustworthy at all\"",\""2\"",\""3\"",\""4\"",\""5\"",\""6\"",\""7\"",\""8\"",\""9  <br/>Extremely trustworthy\""],\""required\"":true}]"", ""task_unique_trial"": 100, ""task_name"": ""trustworthy-gt"", ""trial_index"": 43, ""isRepeat"": 0}"
AHDY3BLTTUYFG:37U1UTWH9XTAYEM7DW75A7YAAAG8RZ,44,1547850976230,"{""rt"": 2614, ""trial_type"": ""face-likert-amanda"", ""debug_mode"": ""live"", ""task_type"": ""face trials"", ""responses"": ""{\""Q0\"":7}"", ""task_payment"": 1, ""task_version"": 1, ""internal_node_id"": ""0.0-5.0-0.0-9.0"", ""time_elapsed"": 238030, ""imgName"": ""/static/images/celeba_gt_crop/trustworthy/051409.jpg"", ""questions"": ""[{\""prompt\"":\""<p>How <b>trustworthy</b> does this person look to <b>most people</b>? Rate from 1-9</p>\"",\""labels\"":[\""1 <br/>Not trustworthy at all\"",\""2\"",\""3\"",\""4\"",\""5\"",\""6\"",\""7\"",\""8\"",\""9  <br/>Extremely trustworthy\""],\""required\"":true}]"", ""task_unique_trial"": 100, ""task_name"": ""trustworthy-gt"", ""trial_index"": 44, ""isRepeat"": 0}"
AHDY3BLTTUYFG:37U1UTWH9XTAYEM7DW75A7YAAAG8RZ,45,1547850977730,"{""rt"": null, ""trial_type"": ""html-keyboard-response"", ""task_unique_trial"": 100, ""stimulus"": ""<p>Good job!</p>"", ""task_version"": 1, ""internal_node_id"": ""0.0-5.0-1.0"", ""task_payment"": 1, ""time_elapsed"": 239530, ""debug_mode"": ""live"", ""key_press"": null, ""task_name"": ""trustworthy-gt"", ""trial_index"": 45}"
AHDY3BLTTUYFG:37U1UTWH9XTAYEM7DW75A7YAAAG8RZ,46,1547850980317,"{""rt"": 2584, ""trial_type"": ""face-likert-amanda"", ""debug_mode"": ""live"", ""task_type"": ""face trials"", ""responses"": ""{\""Q0\"":7}"", ""task_payment"": 1, ""task_version"": 1, ""internal_node_id"": ""0.0-6.0-0.0-0.0"", ""time_elapsed"": 242117, ""imgName"": ""/static/images/celeba_gt_crop/trustworthy/137367.jpg"", ""questions"": ""[{\""prompt\"":\""<p>How <b>trustworthy</b> does this person look to <b>most people</b>? Rate from 1-9</p>\"",\""labels\"":[\""1 <br/>Not trustworthy at all\"",\""2\"",\""3\"",\""4\"",\""5\"",\""6\"",\""7\"",\""8\"",\""9  <br/>Extremely trustworthy\""],\""required\"":true}]"", ""task_unique_trial"": 100, ""task_name"": ""trustworthy-gt"", ""trial_index"": 46, ""isRepeat"": 0}"
AHDY3BLTTUYFG:37U1UTWH9XTAYEM7DW75A7YAAAG8RZ,47,1547850982999,"{""rt"": 2677, ""trial_type"": ""face-likert-amanda"", ""debug_mode"": ""live"", ""task_type"": ""face trials"", ""responses"": ""{\""Q0\"":8}"", ""task_payment"": 1, ""task_version"": 1, ""internal_node_id"": ""0.0-6.0-0.0-1.0"", ""time_elapsed"": 244799, ""imgName"": ""/static/images/celeba_gt_crop/trustworthy/132670.jpg"", ""questions"": ""[{\""prompt\"":\""<p>How <b>trustworthy</b> does this person look to <b>most people</b>? Rate from 1-9</p>\"",\""labels\"":[\""1 <br/>Not trustworthy at all\"",\""2\"",\""3\"",\""4\"",\""5\"",\""6\"",\""7\"",\""8\"",\""9  <br/>Extremely trustworthy\""],\""required\"":true}]"", ""task_unique_trial"": 100, ""task_name"": ""trustworthy-gt"", ""trial_index"": 47, ""isRepeat"": 0}"
AHDY3BLTTUYFG:37U1UTWH9XTAYEM7DW75A7YAAAG8RZ,48,1547850985566,"{""rt"": 2567, ""trial_type"": ""face-likert-amanda"", ""debug_mode"": ""live"", ""task_type"": ""face trials"", ""responses"": ""{\""Q0\"":7}"", ""task_payment"": 1, ""task_version"": 1, ""internal_node_id"": ""0.0-6.0-0.0-2.0"", ""time_elapsed"": 247366, ""imgName"": ""/static/images/celeba_gt_crop/trustworthy/171858.jpg"", ""questions"": ""[{\""prompt\"":\""<p>How <b>trustworthy</b> does this person look to <b>most people</b>? Rate from 1-9</p>\"",\""labels\"":[\""1 <br/>Not trustworthy at all\"",\""2\"",\""3\"",\""4\"",\""5\"",\""6\"",\""7\"",\""8\"",\""9  <br/>Extremely trustworthy\""],\""required\"":true}]"", ""task_unique_trial"": 100, ""task_name"": ""trustworthy-gt"", ""trial_index"": 48, ""isRepeat"": 0}"
AHDY3BLTTUYFG:37U1UTWH9XTAYEM7DW75A7YAAAG8RZ,49,1547850989215,"{""rt"": 3647, ""trial_type"": ""face-likert-amanda"", ""debug_mode"": ""live"", ""task_type"": ""face trials"", ""responses"": ""{\""Q0\"":7}"", ""task_payment"": 1, ""task_version"": 1, ""internal_node_id"": ""0.0-6.0-0.0-3.0"", ""time_elapsed"": 251015, ""imgName"": ""/static/images/celeba_gt_crop/trustworthy/105666.jpg"", ""questions"": ""[{\""prompt\"":\""<p>How <b>trustworthy</b> does this person look to <b>most people</b>? Rate from 1-9</p>\"",\""labels\"":[\""1 <br/>Not trustworthy at all\"",\""2\"",\""3\"",\""4\"",\""5\"",\""6\"",\""7\"",\""8\"",\""9  <br/>Extremely trustworthy\""],\""required\"":true}]"", ""task_unique_trial"": 100, ""task_name"": ""trustworthy-gt"", ""trial_index"": 49, ""isRepeat"": 0}"
AHDY3BLTTUYFG:37U1UTWH9XTAYEM7DW75A7YAAAG8RZ,50,1547850993143,"{""rt"": 3926, ""trial_type"": ""face-likert-amanda"", ""debug_mode"": ""live"", ""task_type"": ""face trials"", ""responses"": ""{\""Q0\"":7}"", ""task_payment"": 1, ""task_version"": 1, ""internal_node_id"": ""0.0-6.0-0.0-4.0"", ""time_elapsed"": 254943, ""imgName"": ""/static/images/celeba_gt_crop/trustworthy/007374.jpg"", ""questions"": ""[{\""prompt\"":\""<p>How <b>trustworthy</b> does this person look to <b>most people</b>? Rate from 1-9</p>\"",\""labels\"":[\""1 <br/>Not trustworthy at all\"",\""2\"",\""3\"",\""4\"",\""5\"",\""6\"",\""7\"",\""8\"",\""9  <br/>Extremely trustworthy\""],\""required\"":true}]"", ""task_unique_trial"": 100, ""task_name"": ""trustworthy-gt"", ""trial_index"": 50, ""isRepeat"": 0}"
AHDY3BLTTUYFG:37U1UTWH9XTAYEM7DW75A7YAAAG8RZ,51,1547850995495,"{""rt"": 2349, ""trial_type"": ""face-likert-amanda"", ""debug_mode"": ""live"", ""task_type"": ""face trials"", ""responses"": ""{\""Q0\"":7}"", ""task_payment"": 1, ""task_version"": 1, ""internal_node_id"": ""0.0-6.0-0.0-5.0"", ""time_elapsed"": 257295, ""imgName"": ""/static/images/celeba_gt_crop/trustworthy/042749.jpg"", ""questions"": ""[{\""prompt\"":\""<p>How <b>trustworthy</b> does this person look to <b>most people</b>? Rate from 1-9</p>\"",\""labels\"":[\""1 <br/>Not trustworthy at all\"",\""2\"",\""3\"",\""4\"",\""5\"",\""6\"",\""7\"",\""8\"",\""9  <br/>Extremely trustworthy\""],\""required\"":true}]"", ""task_unique_trial"": 100, ""task_name"": ""trustworthy-gt"", ""trial_index"": 51, ""isRepeat"": 0}"
AHDY3BLTTUYFG:37U1UTWH9XTAYEM7DW75A7YAAAG8RZ,52,1547850997959,"{""rt"": 2463, ""trial_type"": ""face-likert-amanda"", ""debug_mode"": ""live"", ""task_type"": ""face trials"", ""responses"": ""{\""Q0\"":7}"", ""task_payment"": 1, ""task_version"": 1, ""internal_node_id"": ""0.0-6.0-0.0-6.0"", ""time_elapsed"": 259759, ""imgName"": ""/static/images/celeba_gt_crop/trustworthy/028757.jpg"", ""questions"": ""[{\""prompt\"":\""<p>How <b>trustworthy</b> does this person look to <b>most people</b>? Rate from 1-9</p>\"",\""labels\"":[\""1 <br/>Not trustworthy at all\"",\""2\"",\""3\"",\""4\"",\""5\"",\""6\"",\""7\"",\""8\"",\""9  <br/>Extremely trustworthy\""],\""required\"":true}]"", ""task_unique_trial"": 100, ""task_name"": ""trustworthy-gt"", ""trial_index"": 52, ""isRepeat"": 0}"
AHDY3BLTTUYFG:37U1UTWH9XTAYEM7DW75A7YAAAG8RZ,53,1547851000296,"{""rt"": 2334, ""trial_type"": ""face-likert-amanda"", ""debug_mode"": ""live"", ""task_type"": ""face trials"", ""responses"": ""{\""Q0\"":7}"", ""task_payment"": 1, ""task_version"": 1, ""internal_node_id"": ""0.0-6.0-0.0-7.0"", ""time_elapsed"": 262095, ""imgName"": ""/static/images/celeba_gt_crop/trustworthy/149194.jpg"", ""questions"": ""[{\""prompt\"":\""<p>How <b>trustworthy</b> does this person look to <b>most people</b>? Rate from 1-9</p>\"",\""labels\"":[\""1 <br/>Not trustworthy at all\"",\""2\"",\""3\"",\""4\"",\""5\"",\""6\"",\""7\"",\""8\"",\""9  <br/>Extremely trustworthy\""],\""required\"":true}]"", ""task_unique_trial"": 100, ""task_name"": ""trustworthy-gt"", ""trial_index"": 53, ""isRepeat"": 0}"
AHDY3BLTTUYFG:37U1UTWH9XTAYEM7DW75A7YAAAG8RZ,54,1547851003591,"{""rt"": 3295, ""trial_type"": ""face-likert-amanda"", ""debug_mode"": ""live"", ""task_type"": ""face trials"", ""responses"": ""{\""Q0\"":7}"", ""task_payment"": 1, ""task_version"": 1, ""internal_node_id"": ""0.0-6.0-0.0-8.0"", ""time_elapsed"": 265391, ""imgName"": ""/static/images/celeba_gt_crop/trustworthy/148109.jpg"", ""questions"": ""[{\""prompt\"":\""<p>How <b>trustworthy</b> does this person look to <b>most people</b>? Rate from 1-9</p>\"",\""labels\"":[\""1 <br/>Not trustworthy at all\"",\""2\"",\""3\"",\""4\"",\""5\"",\""6\"",\""7\"",\""8\"",\""9  <br/>Extremely trustworthy\""],\""required\"":true}]"", ""task_unique_trial"": 100, ""task_name"": ""trustworthy-gt"", ""trial_index"": 54, ""isRepeat"": 0}"
AHDY3BLTTUYFG:37U1UTWH9XTAYEM7DW75A7YAAAG8RZ,55,1547851005671,"{""rt"": 2077, ""trial_type"": ""face-likert-amanda"", ""debug_mode"": ""live"", ""task_type"": ""face trials"", ""responses"": ""{\""Q0\"":7}"", ""task_payment"": 1, ""task_version"": 1, ""internal_node_id"": ""0.0-6.0-0.0-9.0"", ""time_elapsed"": 267470, ""imgName"": ""/static/images/celeba_gt_crop/trustworthy/003704.jpg"", ""questions"": ""[{\""prompt\"":\""<p>How <b>trustworthy</b> does this person look to <b>most people</b>? Rate from 1-9</p>\"",\""labels\"":[\""1 <br/>Not trustworthy at all\"",\""2\"",\""3\"",\""4\"",\""5\"",\""6\"",\""7\"",\""8\"",\""9  <br/>Extremely trustworthy\""],\""required\"":true}]"", ""task_unique_trial"": 100, ""task_name"": ""trustworthy-gt"", ""trial_index"": 55, ""isRepeat"": 0}"
AHDY3BLTTUYFG:37U1UTWH9XTAYEM7DW75A7YAAAG8RZ,56,1547851006672,"{""rt"": null, ""trial_type"": ""html-keyboard-response"", ""task_unique_trial"": 100, ""stimulus"": ""<p>Good job!</p>"", ""task_version"": 1, ""internal_node_id"": ""0.0-6.0-1.0"", ""task_payment"": 1, ""time_elapsed"": 268472, ""debug_mode"": ""live"", ""key_press"": null, ""task_name"": ""trustworthy-gt"", ""trial_index"": 56}"
AHDY3BLTTUYFG:37U1UTWH9XTAYEM7DW75A7YAAAG8RZ,57,1547851008775,"{""rt"": 2101, ""trial_type"": ""face-likert-amanda"", ""debug_mode"": ""live"", ""task_type"": ""face trials"", ""responses"": ""{\""Q0\"":7}"", ""task_payment"": 1, ""task_version"": 1, ""internal_node_id"": ""0.0-7.0-0.0-0.0"", ""time_elapsed"": 270575, ""imgName"": ""/static/images/celeba_gt_crop/trustworthy/161399.jpg"", ""questions"": ""[{\""prompt\"":\""<p>How <b>trustworthy</b> does this person look to <b>most people</b>? Rate from 1-9</p>\"",\""labels\"":[\""1 <br/>Not trustworthy at all\"",\""2\"",\""3\"",\""4\"",\""5\"",\""6\"",\""7\"",\""8\"",\""9  <br/>Extremely trustworthy\""],\""required\"":true}]"", ""task_unique_trial"": 100, ""task_name"": ""trustworthy-gt"", ""trial_index"": 57, ""isRepeat"": 0}"
AHDY3BLTTUYFG:37U1UTWH9XTAYEM7DW75A7YAAAG8RZ,58,1547851011263,"{""rt"": 2486, ""trial_type"": ""face-likert-amanda"", ""debug_mode"": ""live"", ""task_type"": ""face trials"", ""responses"": ""{\""Q0\"":6}"", ""task_payment"": 1, ""task_version"": 1, ""internal_node_id"": ""0.0-7.0-0.0-1.0"", ""time_elapsed"": 273063, ""imgName"": ""/static/images/celeba_gt_crop/trustworthy/080434.jpg"", ""questions"": ""[{\""prompt\"":\""<p>How <b>trustworthy</b> does this person look to <b>most people</b>? Rate from 1-9</p>\"",\""labels\"":[\""1 <br/>Not trustworthy at all\"",\""2\"",\""3\"",\""4\"",\""5\"",\""6\"",\""7\"",\""8\"",\""9  <br/>Extremely trustworthy\""],\""required\"":true}]"", ""task_unique_trial"": 100, ""task_name"": ""trustworthy-gt"", ""trial_index"": 58, ""isRepeat"": 0}"
AHDY3BLTTUYFG:37U1UTWH9XTAYEM7DW75A7YAAAG8RZ,59,1547851014447,"{""rt"": 3182, ""trial_type"": ""face-likert-amanda"", ""debug_mode"": ""live"", ""task_type"": ""face trials"", ""responses"": ""{\""Q0\"":7}"", ""task_payment"": 1, ""task_version"": 1, ""internal_node_id"": ""0.0-7.0-0.0-2.0"", ""time_elapsed"": 276247, ""imgName"": ""/static/images/celeba_gt_crop/trustworthy/057257.jpg"", ""questions"": ""[{\""prompt\"":\""<p>How <b>trustworthy</b> does this person look to <b>most people</b>? Rate from 1-9</p>\"",\""labels\"":[\""1 <br/>Not trustworthy at all\"",\""2\"",\""3\"",\""4\"",\""5\"",\""6\"",\""7\"",\""8\"",\""9  <br/>Extremely trustworthy\""],\""required\"":true}]"", ""task_unique_trial"": 100, ""task_name"": ""trustworthy-gt"", ""trial_index"": 59, ""isRepeat"": 0}"
AHDY3BLTTUYFG:37U1UTWH9XTAYEM7DW75A7YAAAG8RZ,60,1547851016992,"{""rt"": 2542, ""trial_type"": ""face-likert-amanda"", ""debug_mode"": ""live"", ""task_type"": ""face trials"", ""responses"": ""{\""Q0\"":7}"", ""task_payment"": 1, ""task_version"": 1, ""internal_node_id"": ""0.0-7.0-0.0-3.0"", ""time_elapsed"": 278792, ""imgName"": ""/static/images/celeba_gt_crop/trustworthy/128593.jpg"", ""questions"": ""[{\""prompt\"":\""<p>How <b>trustworthy</b> does this person look to <b>most people</b>? Rate from 1-9</p>\"",\""labels\"":[\""1 <br/>Not trustworthy at all\"",\""2\"",\""3\"",\""4\"",\""5\"",\""6\"",\""7\"",\""8\"",\""9  <br/>Extremely trustworthy\""],\""required\"":true}]"", ""task_unique_trial"": 100, ""task_name"": ""trustworthy-gt"", ""trial_index"": 60, ""isRepeat"": 0}"
AHDY3BLTTUYFG:37U1UTWH9XTAYEM7DW75A7YAAAG8RZ,61,1547851019089,"{""rt"": 2094, ""trial_type"": ""face-likert-amanda"", ""debug_mode"": ""live"", ""task_type"": ""face trials"", ""responses"": ""{\""Q0\"":7}"", ""task_payment"": 1, ""task_version"": 1, ""internal_node_id"": ""0.0-7.0-0.0-4.0"", ""time_elapsed"": 280888, ""imgName"": ""/static/images/celeba_gt_crop/trustworthy/131025.jpg"", ""questions"": ""[{\""prompt\"":\""<p>How <b>trustworthy</b> does this person look to <b>most people</b>? Rate from 1-9</p>\"",\""labels\"":[\""1 <br/>Not trustworthy at all\"",\""2\"",\""3\"",\""4\"",\""5\"",\""6\"",\""7\"",\""8\"",\""9  <br/>Extremely trustworthy\""],\""required\"":true}]"", ""task_unique_trial"": 100, ""task_name"": ""trustworthy-gt"", ""trial_index"": 61, ""isRepeat"": 0}"
AHDY3BLTTUYFG:37U1UTWH9XTAYEM7DW75A7YAAAG8RZ,62,1547851021393,"{""rt"": 2302, ""trial_type"": ""face-likert-amanda"", ""debug_mode"": ""live"", ""task_type"": ""face trials"", ""responses"": ""{\""Q0\"":7}"", ""task_payment"": 1, ""task_version"": 1, ""internal_node_id"": ""0.0-7.0-0.0-5.0"", ""time_elapsed"": 283193, ""imgName"": ""/static/images/celeba_gt_crop/trustworthy/007208.jpg"", ""questions"": ""[{\""prompt\"":\""<p>How <b>trustworthy</b> does this person look to <b>most people</b>? Rate from 1-9</p>\"",\""labels\"":[\""1 <br/>Not trustworthy at all\"",\""2\"",\""3\"",\""4\"",\""5\"",\""6\"",\""7\"",\""8\"",\""9  <br/>Extremely trustworthy\""],\""required\"":true}]"", ""task_unique_trial"": 100, ""task_name"": ""trustworthy-gt"", ""trial_index"": 62, ""isRepeat"": 0}"
AHDY3BLTTUYFG:37U1UTWH9XTAYEM7DW75A7YAAAG8RZ,63,1547851023296,"{""rt"": 1900, ""trial_type"": ""face-likert-amanda"", ""debug_mode"": ""live"", ""task_type"": ""face trials"", ""responses"": ""{\""Q0\"":7}"", ""task_payment"": 1, ""task_version"": 1, ""internal_node_id"": ""0.0-7.0-0.0-6.0"", ""time_elapsed"": 285096, ""imgName"": ""/static/images/celeba_gt_crop/trustworthy/016389.jpg"", ""questions"": ""[{\""prompt\"":\""<p>How <b>trustworthy</b> does this person look to <b>most people</b>? Rate from 1-9</p>\"",\""labels\"":[\""1 <br/>Not trustworthy at all\"",\""2\"",\""3\"",\""4\"",\""5\"",\""6\"",\""7\"",\""8\"",\""9  <br/>Extremely trustworthy\""],\""required\"":true}]"", ""task_unique_trial"": 100, ""task_name"": ""trustworthy-gt"", ""trial_index"": 63, ""isRepeat"": 0}"
AHDY3BLTTUYFG:37U1UTWH9XTAYEM7DW75A7YAAAG8RZ,64,1547851026593,"{""rt"": 3295, ""trial_type"": ""face-likert-amanda"", ""debug_mode"": ""live"", ""task_type"": ""face trials"", ""responses"": ""{\""Q0\"":6}"", ""task_payment"": 1, ""task_version"": 1, ""internal_node_id"": ""0.0-7.0-0.0-7.0"", ""time_elapsed"": 288393, ""imgName"": ""/static/images/celeba_gt_crop/trustworthy/078487.jpg"", ""questions"": ""[{\""prompt\"":\""<p>How <b>trustworthy</b> does this person look to <b>most people</b>? Rate from 1-9</p>\"",\""labels\"":[\""1 <br/>Not trustworthy at all\"",\""2\"",\""3\"",\""4\"",\""5\"",\""6\"",\""7\"",\""8\"",\""9  <br/>Extremely trustworthy\""],\""required\"":true}]"", ""task_unique_trial"": 100, ""task_name"": ""trustworthy-gt"", ""trial_index"": 64, ""isRepeat"": 0}"
AHDY3BLTTUYFG:37U1UTWH9XTAYEM7DW75A7YAAAG8RZ,65,1547851028624,"{""rt"": 2030, ""trial_type"": ""face-likert-amanda"", ""debug_mode"": ""live"", ""task_type"": ""face trials"", ""responses"": ""{\""Q0\"":7}"", ""task_payment"": 1, ""task_version"": 1, ""internal_node_id"": ""0.0-7.0-0.0-8.0"", ""time_elapsed"": 290424, ""imgName"": ""/static/images/celeba_gt_crop/trustworthy/153416.jpg"", ""questions"": ""[{\""prompt\"":\""<p>How <b>trustworthy</b> does this person look to <b>most people</b>? Rate from 1-9</p>\"",\""labels\"":[\""1 <br/>Not trustworthy at all\"",\""2\"",\""3\"",\""4\"",\""5\"",\""6\"",\""7\"",\""8\"",\""9  <br/>Extremely trustworthy\""],\""required\"":true}]"", ""task_unique_trial"": 100, ""task_name"": ""trustworthy-gt"", ""trial_index"": 65, ""isRepeat"": 0}"
AHDY3BLTTUYFG:37U1UTWH9XTAYEM7DW75A7YAAAG8RZ,66,1547851030992,"{""rt"": 2366, ""trial_type"": ""face-likert-amanda"", ""debug_mode"": ""live"", ""task_type"": ""face trials"", ""responses"": ""{\""Q0\"":7}"", ""task_payment"": 1, ""task_version"": 1, ""internal_node_id"": ""0.0-7.0-0.0-9.0"", ""time_elapsed"": 292792, ""imgName"": ""/static/images/celeba_gt_crop/trustworthy/062808.jpg"", ""questions"": ""[{\""prompt\"":\""<p>How <b>trustworthy</b> does this person look to <b>most people</b>? Rate from 1-9</p>\"",\""labels\"":[\""1 <br/>Not trustworthy at all\"",\""2\"",\""3\"",\""4\"",\""5\"",\""6\"",\""7\"",\""8\"",\""9  <br/>Extremely trustworthy\""],\""required\"":true}]"", ""task_unique_trial"": 100, ""task_name"": ""trustworthy-gt"", ""trial_index"": 66, ""isRepeat"": 0}"
AHDY3BLTTUYFG:37U1UTWH9XTAYEM7DW75A7YAAAG8RZ,67,1547851031993,"{""rt"": null, ""trial_type"": ""html-keyboard-response"", ""task_unique_trial"": 100, ""stimulus"": ""<p>Good job!</p>"", ""task_version"": 1, ""internal_node_id"": ""0.0-7.0-1.0"", ""task_payment"": 1, ""time_elapsed"": 293793, ""debug_mode"": ""live"", ""key_press"": null, ""task_name"": ""trustworthy-gt"", ""trial_index"": 67}"
AHDY3BLTTUYFG:37U1UTWH9XTAYEM7DW75A7YAAAG8RZ,68,1547851037754,"{""rt"": 5758, ""trial_type"": ""face-likert-amanda"", ""debug_mode"": ""live"", ""task_type"": ""face trials"", ""responses"": ""{\""Q0\"":6}"", ""task_payment"": 1, ""task_version"": 1, ""internal_node_id"": ""0.0-8.0-0.0-0.0"", ""time_elapsed"": 299552, ""imgName"": ""/static/images/celeba_gt_crop/trustworthy/148547.jpg"", ""questions"": ""[{\""prompt\"":\""<p>How <b>trustworthy</b> does this person look to <b>most people</b>? Rate from 1-9</p>\"",\""labels\"":[\""1 <br/>Not trustworthy at all\"",\""2\"",\""3\"",\""4\"",\""5\"",\""6\"",\""7\"",\""8\"",\""9  <br/>Extremely trustworthy\""],\""required\"":true}]"", ""task_unique_trial"": 100, ""task_name"": ""trustworthy-gt"", ""trial_index"": 68, ""isRepeat"": 0}"
AHDY3BLTTUYFG:37U1UTWH9XTAYEM7DW75A7YAAAG8RZ,69,1547851043273,"{""rt"": 5516, ""trial_type"": ""face-likert-amanda"", ""debug_mode"": ""live"", ""task_type"": ""face trials"", ""responses"": ""{\""Q0\"":7}"", ""task_payment"": 1, ""task_version"": 1, ""internal_node_id"": ""0.0-8.0-0.0-1.0"", ""time_elapsed"": 305073, ""imgName"": ""/static/images/celeba_gt_crop/trustworthy/048872.jpg"", ""questions"": ""[{\""prompt\"":\""<p>How <b>trustworthy</b> does this person look to <b>most people</b>? Rate from 1-9</p>\"",\""labels\"":[\""1 <br/>Not trustworthy at all\"",\""2\"",\""3\"",\""4\"",\""5\"",\""6\"",\""7\"",\""8\"",\""9  <br/>Extremely trustworthy\""],\""required\"":true}]"", ""task_unique_trial"": 100, ""task_name"": ""trustworthy-gt"", ""trial_index"": 69, ""isRepeat"": 0}"
AHDY3BLTTUYFG:37U1UTWH9XTAYEM7DW75A7YAAAG8RZ,70,1547851045904,"{""rt"": 2630, ""trial_type"": ""face-likert-amanda"", ""debug_mode"": ""live"", ""task_type"": ""face trials"", ""responses"": ""{\""Q0\"":7}"", ""task_payment"": 1, ""task_version"": 1, ""internal_node_id"": ""0.0-8.0-0.0-2.0"", ""time_elapsed"": 307704, ""imgName"": ""/static/images/celeba_gt_crop/trustworthy/027045.jpg"", ""questions"": ""[{\""prompt\"":\""<p>How <b>trustworthy</b> does this person look to <b>most people</b>? Rate from 1-9</p>\"",\""labels\"":[\""1 <br/>Not trustworthy at all\"",\""2\"",\""3\"",\""4\"",\""5\"",\""6\"",\""7\"",\""8\"",\""9  <br/>Extremely trustworthy\""],\""required\"":true}]"", ""task_unique_trial"": 100, ""task_name"": ""trustworthy-gt"", ""trial_index"": 70, ""isRepeat"": 0}"
AHDY3BLTTUYFG:37U1UTWH9XTAYEM7DW75A7YAAAG8RZ,71,1547851048616,"{""rt"": 2711, ""trial_type"": ""face-likert-amanda"", ""debug_mode"": ""live"", ""task_type"": ""face trials"", ""responses"": ""{\""Q0\"":6}"", ""task_payment"": 1, ""task_version"": 1, ""internal_node_id"": ""0.0-8.0-0.0-3.0"", ""time_elapsed"": 310416, ""imgName"": ""/static/images/celeba_gt_crop/trustworthy/049195.jpg"", ""questions"": ""[{\""prompt\"":\""<p>How <b>trustworthy</b> does this person look to <b>most people</b>? Rate from 1-9</p>\"",\""labels\"":[\""1 <br/>Not trustworthy at all\"",\""2\"",\""3\"",\""4\"",\""5\"",\""6\"",\""7\"",\""8\"",\""9  <br/>Extremely trustworthy\""],\""required\"":true}]"", ""task_unique_trial"": 100, ""task_name"": ""trustworthy-gt"", ""trial_index"": 71, ""isRepeat"": 0}"
AHDY3BLTTUYFG:37U1UTWH9XTAYEM7DW75A7YAAAG8RZ,72,1547851050872,"{""rt"": 2254, ""trial_type"": ""face-likert-amanda"", ""debug_mode"": ""live"", ""task_type"": ""face trials"", ""responses"": ""{\""Q0\"":7}"", ""task_payment"": 1, ""task_version"": 1, ""internal_node_id"": ""0.0-8.0-0.0-4.0"", ""time_elapsed"": 312672, ""imgName"": ""/static/images/celeba_gt_crop/trustworthy/147667.jpg"", ""questions"": ""[{\""prompt\"":\""<p>How <b>trustworthy</b> does this person look to <b>most people</b>? Rate from 1-9</p>\"",\""labels\"":[\""1 <br/>Not trustworthy at all\"",\""2\"",\""3\"",\""4\"",\""5\"",\""6\"",\""7\"",\""8\"",\""9  <br/>Extremely trustworthy\""],\""required\"":true}]"", ""task_unique_trial"": 100, ""task_name"": ""trustworthy-gt"", ""trial_index"": 72, ""isRepeat"": 0}"
AHDY3BLTTUYFG:37U1UTWH9XTAYEM7DW75A7YAAAG8RZ,73,1547851052457,"{""rt"": 1583, ""trial_type"": ""face-likert-amanda"", ""debug_mode"": ""live"", ""task_type"": ""face trials"", ""responses"": ""{\""Q0\"":7}"", ""task_payment"": 1, ""task_version"": 1, ""internal_node_id"": ""0.0-8.0-0.0-5.0"", ""time_elapsed"": 314257, ""imgName"": ""/static/images/celeba_gt_crop/trustworthy/124963.jpg"", ""questions"": ""[{\""prompt\"":\""<p>How <b>trustworthy</b> does this person look to <b>most people</b>? Rate from 1-9</p>\"",\""labels\"":[\""1 <br/>Not trustworthy at all\"",\""2\"",\""3\"",\""4\"",\""5\"",\""6\"",\""7\"",\""8\"",\""9  <br/>Extremely trustworthy\""],\""required\"":true}]"", ""task_unique_trial"": 100, ""task_name"": ""trustworthy-gt"", ""trial_index"": 73, ""isRepeat"": 0}"
AHDY3BLTTUYFG:37U1UTWH9XTAYEM7DW75A7YAAAG8RZ,74,1547851055969,"{""rt"": 3511, ""trial_type"": ""face-likert-amanda"", ""debug_mode"": ""live"", ""task_type"": ""face trials"", ""responses"": ""{\""Q0\"":7}"", ""task_payment"": 1, ""task_version"": 1, ""internal_node_id"": ""0.0-8.0-0.0-6.0"", ""time_elapsed"": 317769, ""imgName"": ""/static/images/celeba_gt_crop/trustworthy/122039.jpg"", ""questions"": ""[{\""prompt\"":\""<p>How <b>trustworthy</b> does this person look to <b>most people</b>? Rate from 1-9</p>\"",\""labels\"":[\""1 <br/>Not trustworthy at all\"",\""2\"",\""3\"",\""4\"",\""5\"",\""6\"",\""7\"",\""8\"",\""9  <br/>Extremely trustworthy\""],\""required\"":true}]"", ""task_unique_trial"": 100, ""task_name"": ""trustworthy-gt"", ""trial_index"": 74, ""isRepeat"": 0}"
AHDY3BLTTUYFG:37U1UTWH9XTAYEM7DW75A7YAAAG8RZ,75,1547851058105,"{""rt"": 2133, ""trial_type"": ""face-likert-amanda"", ""debug_mode"": ""live"", ""task_type"": ""face trials"", ""responses"": ""{\""Q0\"":8}"", ""task_payment"": 1, ""task_version"": 1, ""internal_node_id"": ""0.0-8.0-0.0-7.0"", ""time_elapsed"": 319905, ""imgName"": ""/static/images/celeba_gt_crop/trustworthy/064172.jpg"", ""questions"": ""[{\""prompt\"":\""<p>How <b>trustworthy</b> does this person look to <b>most people</b>? Rate from 1-9</p>\"",\""labels\"":[\""1 <br/>Not trustworthy at all\"",\""2\"",\""3\"",\""4\"",\""5\"",\""6\"",\""7\"",\""8\"",\""9  <br/>Extremely trustworthy\""],\""required\"":true}]"", ""task_unique_trial"": 100, ""task_name"": ""trustworthy-gt"", ""trial_index"": 75, ""isRepeat"": 0}"
AHDY3BLTTUYFG:37U1UTWH9XTAYEM7DW75A7YAAAG8RZ,76,1547851059801,"{""rt"": 1693, ""trial_type"": ""face-likert-amanda"", ""debug_mode"": ""live"", ""task_type"": ""face trials"", ""responses"": ""{\""Q0\"":6}"", ""task_payment"": 1, ""task_version"": 1, ""internal_node_id"": ""0.0-8.0-0.0-8.0"", ""time_elapsed"": 321601, ""imgName"": ""/static/images/celeba_gt_crop/trustworthy/116939.jpg"", ""questions"": ""[{\""prompt\"":\""<p>How <b>trustworthy</b> does this person look to <b>most people</b>? Rate from 1-9</p>\"",\""labels\"":[\""1 <br/>Not trustworthy at all\"",\""2\"",\""3\"",\""4\"",\""5\"",\""6\"",\""7\"",\""8\"",\""9  <br/>Extremely trustworthy\""],\""required\"":true}]"", ""task_unique_trial"": 100, ""task_name"": ""trustworthy-gt"", ""trial_index"": 76, ""isRepeat"": 0}"
AHDY3BLTTUYFG:37U1UTWH9XTAYEM7DW75A7YAAAG8RZ,77,1547851061785,"{""rt"": 1982, ""trial_type"": ""face-likert-amanda"", ""debug_mode"": ""live"", ""task_type"": ""face trials"", ""responses"": ""{\""Q0\"":6}"", ""task_payment"": 1, ""task_version"": 1, ""internal_node_id"": ""0.0-8.0-0.0-9.0"", ""time_elapsed"": 323585, ""imgName"": ""/static/images/celeba_gt_crop/trustworthy/016389.jpg"", ""questions"": ""[{\""prompt\"":\""<p>How <b>trustworthy</b> does this person look to <b>most people</b>? Rate from 1-9</p>\"",\""labels\"":[\""1 <br/>Not trustworthy at all\"",\""2\"",\""3\"",\""4\"",\""5\"",\""6\"",\""7\"",\""8\"",\""9  <br/>Extremely trustworthy\""],\""required\"":true}]"", ""task_unique_trial"": 100, ""task_name"": ""trustworthy-gt"", ""trial_index"": 77, ""isRepeat"": 0}"
AHDY3BLTTUYFG:37U1UTWH9XTAYEM7DW75A7YAAAG8RZ,78,1547851063286,"{""rt"": null, ""trial_type"": ""html-keyboard-response"", ""task_unique_trial"": 100, ""stimulus"": ""<p>Good job!</p>"", ""task_version"": 1, ""internal_node_id"": ""0.0-8.0-1.0"", ""task_payment"": 1, ""time_elapsed"": 325086, ""debug_mode"": ""live"", ""key_press"": null, ""task_name"": ""trustworthy-gt"", ""trial_index"": 78}"
AHDY3BLTTUYFG:37U1UTWH9XTAYEM7DW75A7YAAAG8RZ,79,1547851065353,"{""rt"": 2065, ""trial_type"": ""face-likert-amanda"", ""debug_mode"": ""live"", ""task_type"": ""face trials"", ""responses"": ""{\""Q0\"":7}"", ""task_payment"": 1, ""task_version"": 1, ""internal_node_id"": ""0.0-9.0-0.0-0.0"", ""time_elapsed"": 327153, ""imgName"": ""/static/images/celeba_gt_crop/trustworthy/182044.jpg"", ""questions"": ""[{\""prompt\"":\""<p>How <b>trustworthy</b> does this person look to <b>most people</b>? Rate from 1-9</p>\"",\""labels\"":[\""1 <br/>Not trustworthy at all\"",\""2\"",\""3\"",\""4\"",\""5\"",\""6\"",\""7\"",\""8\"",\""9  <br/>Extremely trustworthy\""],\""required\"":true}]"", ""task_unique_trial"": 100, ""task_name"": ""trustworthy-gt"", ""trial_index"": 79, ""isRepeat"": 0}"
AHDY3BLTTUYFG:37U1UTWH9XTAYEM7DW75A7YAAAG8RZ,80,1547851067585,"{""rt"": 2230, ""trial_type"": ""face-likert-amanda"", ""debug_mode"": ""live"", ""task_type"": ""face trials"", ""responses"": ""{\""Q0\"":7}"", ""task_payment"": 1, ""task_version"": 1, ""internal_node_id"": ""0.0-9.0-0.0-1.0"", ""time_elapsed"": 329385, ""imgName"": ""/static/images/celeba_gt_crop/trustworthy/042749.jpg"", ""questions"": ""[{\""prompt\"":\""<p>How <b>trustworthy</b> does this person look to <b>most people</b>? Rate from 1-9</p>\"",\""labels\"":[\""1 <br/>Not trustworthy at all\"",\""2\"",\""3\"",\""4\"",\""5\"",\""6\"",\""7\"",\""8\"",\""9  <br/>Extremely trustworthy\""],\""required\"":true}]"", ""task_unique_trial"": 100, ""task_name"": ""trustworthy-gt"", ""trial_index"": 80, ""isRepeat"": 0}"
AHDY3BLTTUYFG:37U1UTWH9XTAYEM7DW75A7YAAAG8RZ,81,1547851069410,"{""rt"": 1822, ""trial_type"": ""face-likert-amanda"", ""debug_mode"": ""live"", ""task_type"": ""face trials"", ""responses"": ""{\""Q0\"":7}"", ""task_payment"": 1, ""task_version"": 1, ""internal_node_id"": ""0.0-9.0-0.0-2.0"", ""time_elapsed"": 331210, ""imgName"": ""/static/images/celeba_gt_crop/trustworthy/065232.jpg"", ""questions"": ""[{\""prompt\"":\""<p>How <b>trustworthy</b> does this person look to <b>most people</b>? Rate from 1-9</p>\"",\""labels\"":[\""1 <br/>Not trustworthy at all\"",\""2\"",\""3\"",\""4\"",\""5\"",\""6\"",\""7\"",\""8\"",\""9  <br/>Extremely trustworthy\""],\""required\"":true}]"", ""task_unique_trial"": 100, ""task_name"": ""trustworthy-gt"", ""trial_index"": 81, ""isRepeat"": 0}"
AHDY3BLTTUYFG:37U1UTWH9XTAYEM7DW75A7YAAAG8RZ,82,1547851073066,"{""rt"": 3654, ""trial_type"": ""face-likert-amanda"", ""debug_mode"": ""live"", ""task_type"": ""face trials"", ""responses"": ""{\""Q0\"":7}"", ""task_payment"": 1, ""task_version"": 1, ""internal_node_id"": ""0.0-9.0-0.0-3.0"", ""time_elapsed"": 334866, ""imgName"": ""/static/images/celeba_gt_crop/trustworthy/095854.jpg"", ""questions"": ""[{\""prompt\"":\""<p>How <b>trustworthy</b> does this person look to <b>most people</b>? Rate from 1-9</p>\"",\""labels\"":[\""1 <br/>Not trustworthy at all\"",\""2\"",\""3\"",\""4\"",\""5\"",\""6\"",\""7\"",\""8\"",\""9  <br/>Extremely trustworthy\""],\""required\"":true}]"", ""task_unique_trial"": 100, ""task_name"": ""trustworthy-gt"", ""trial_index"": 82, ""isRepeat"": 0}"
AHDY3BLTTUYFG:37U1UTWH9XTAYEM7DW75A7YAAAG8RZ,83,1547851099674,"{""rt"": 26606, ""trial_type"": ""face-likert-amanda"", ""debug_mode"": ""live"", ""task_type"": ""face trials"", ""responses"": ""{\""Q0\"":7}"", ""task_payment"": 1, ""task_version"": 1, ""internal_node_id"": ""0.0-9.0-0.0-4.0"", ""time_elapsed"": 361474, ""imgName"": ""/static/images/celeba_gt_crop/trustworthy/082540.jpg"", ""questions"": ""[{\""prompt\"":\""<p>How <b>trustworthy</b> does this person look to <b>most people</b>? Rate from 1-9</p>\"",\""labels\"":[\""1 <br/>Not trustworthy at all\"",\""2\"",\""3\"",\""4\"",\""5\"",\""6\"",\""7\"",\""8\"",\""9  <br/>Extremely trustworthy\""],\""required\"":true}]"", ""task_unique_trial"": 100, ""task_name"": ""trustworthy-gt"", ""trial_index"": 83, ""isRepeat"": 0}"
AHDY3BLTTUYFG:37U1UTWH9XTAYEM7DW75A7YAAAG8RZ,84,1547851101618,"{""rt"": 1941, ""trial_type"": ""face-likert-amanda"", ""debug_mode"": ""live"", ""task_type"": ""face trials"", ""responses"": ""{\""Q0\"":7}"", ""task_payment"": 1, ""task_version"": 1, ""internal_node_id"": ""0.0-9.0-0.0-5.0"", ""time_elapsed"": 363418, ""imgName"": ""/static/images/celeba_gt_crop/trustworthy/139565.jpg"", ""questions"": ""[{\""prompt\"":\""<p>How <b>trustworthy</b> does this person look to <b>most people</b>? Rate from 1-9</p>\"",\""labels\"":[\""1 <br/>Not trustworthy at all\"",\""2\"",\""3\"",\""4\"",\""5\"",\""6\"",\""7\"",\""8\"",\""9  <br/>Extremely trustworthy\""],\""required\"":true}]"", ""task_unique_trial"": 100, ""task_name"": ""trustworthy-gt"", ""trial_index"": 84, ""isRepeat"": 0}"
AHDY3BLTTUYFG:37U1UTWH9XTAYEM7DW75A7YAAAG8RZ,85,1547851105682,"{""rt"": 4063, ""trial_type"": ""face-likert-amanda"", ""debug_mode"": ""live"", ""task_type"": ""face trials"", ""responses"": ""{\""Q0\"":6}"", ""task_payment"": 1, ""task_version"": 1, ""internal_node_id"": ""0.0-9.0-0.0-6.0"", ""time_elapsed"": 367482, ""imgName"": ""/static/images/celeba_gt_crop/trustworthy/014145.jpg"", ""questions"": ""[{\""prompt\"":\""<p>How <b>trustworthy</b> does this person look to <b>most people</b>? Rate from 1-9</p>\"",\""labels\"":[\""1 <br/>Not trustworthy at all\"",\""2\"",\""3\"",\""4\"",\""5\"",\""6\"",\""7\"",\""8\"",\""9  <br/>Extremely trustworthy\""],\""required\"":true}]"", ""task_unique_trial"": 100, ""task_name"": ""trustworthy-gt"", ""trial_index"": 85, ""isRepeat"": 0}"
AHDY3BLTTUYFG:37U1UTWH9XTAYEM7DW75A7YAAAG8RZ,86,1547851111051,"{""rt"": 5367, ""trial_type"": ""face-likert-amanda"", ""debug_mode"": ""live"", ""task_type"": ""face trials"", ""responses"": ""{\""Q0\"":6}"", ""task_payment"": 1, ""task_version"": 1, ""internal_node_id"": ""0.0-9.0-0.0-7.0"", ""time_elapsed"": 372850, ""imgName"": ""/static/images/celeba_gt_crop/trustworthy/078290.jpg"", ""questions"": ""[{\""prompt\"":\""<p>How <b>trustworthy</b> does this person look to <b>most people</b>? Rate from 1-9</p>\"",\""labels\"":[\""1 <br/>Not trustworthy at all\"",\""2\"",\""3\"",\""4\"",\""5\"",\""6\"",\""7\"",\""8\"",\""9  <br/>Extremely trustworthy\""],\""required\"":true}]"", ""task_unique_trial"": 100, ""task_name"": ""trustworthy-gt"", ""trial_index"": 86, ""isRepeat"": 0}"
AHDY3BLTTUYFG:37U1UTWH9XTAYEM7DW75A7YAAAG8RZ,87,1547851113258,"{""rt"": 2205, ""trial_type"": ""face-likert-amanda"", ""debug_mode"": ""live"", ""task_type"": ""face trials"", ""responses"": ""{\""Q0\"":7}"", ""task_payment"": 1, ""task_version"": 1, ""internal_node_id"": ""0.0-9.0-0.0-8.0"", ""time_elapsed"": 375058, ""imgName"": ""/static/images/celeba_gt_crop/trustworthy/111710.jpg"", ""questions"": ""[{\""prompt\"":\""<p>How <b>trustworthy</b> does this person look to <b>most people</b>? Rate from 1-9</p>\"",\""labels\"":[\""1 <br/>Not trustworthy at all\"",\""2\"",\""3\"",\""4\"",\""5\"",\""6\"",\""7\"",\""8\"",\""9  <br/>Extremely trustworthy\""],\""required\"":true}]"", ""task_unique_trial"": 100, ""task_name"": ""trustworthy-gt"", ""trial_index"": 87, ""isRepeat"": 0}"
AHDY3BLTTUYFG:37U1UTWH9XTAYEM7DW75A7YAAAG8RZ,88,1547851116346,"{""rt"": 3086, ""trial_type"": ""face-likert-amanda"", ""debug_mode"": ""live"", ""task_type"": ""face trials"", ""responses"": ""{\""Q0\"":7}"", ""task_payment"": 1, ""task_version"": 1, ""internal_node_id"": ""0.0-9.0-0.0-9.0"", ""time_elapsed"": 378146, ""imgName"": ""/static/images/celeba_gt_crop/trustworthy/022216.jpg"", ""questions"": ""[{\""prompt\"":\""<p>How <b>trustworthy</b> does this person look to <b>most people</b>? Rate from 1-9</p>\"",\""labels\"":[\""1 <br/>Not trustworthy at all\"",\""2\"",\""3\"",\""4\"",\""5\"",\""6\"",\""7\"",\""8\"",\""9  <br/>Extremely trustworthy\""],\""required\"":true}]"", ""task_unique_trial"": 100, ""task_name"": ""trustworthy-gt"", ""trial_index"": 88, ""isRepeat"": 0}"
AHDY3BLTTUYFG:37U1UTWH9XTAYEM7DW75A7YAAAG8RZ,89,1547851118347,"{""rt"": null, ""trial_type"": ""html-keyboard-response"", ""task_unique_trial"": 100, ""stimulus"": ""<p>Good job!</p>"", ""task_version"": 1, ""internal_node_id"": ""0.0-9.0-1.0"", ""task_payment"": 1, ""time_elapsed"": 380147, ""debug_mode"": ""live"", ""key_press"": null, ""task_name"": ""trustworthy-gt"", ""trial_index"": 89}"
AHDY3BLTTUYFG:37U1UTWH9XTAYEM7DW75A7YAAAG8RZ,90,1547851120410,"{""rt"": 2062, ""trial_type"": ""face-likert-amanda"", ""debug_mode"": ""live"", ""task_type"": ""face trials"", ""responses"": ""{\""Q0\"":7}"", ""task_payment"": 1, ""task_version"": 1, ""internal_node_id"": ""0.0-10.0-0.0-0.0"", ""time_elapsed"": 382209, ""imgName"": ""/static/images/celeba_gt_crop/trustworthy/020990.jpg"", ""questions"": ""[{\""prompt\"":\""<p>How <b>trustworthy</b> does this person look to <b>most people</b>? Rate from 1-9</p>\"",\""labels\"":[\""1 <br/>Not trustworthy at all\"",\""2\"",\""3\"",\""4\"",\""5\"",\""6\"",\""7\"",\""8\"",\""9  <br/>Extremely trustworthy\""],\""required\"":true}]"", ""task_unique_trial"": 100, ""task_name"": ""trustworthy-gt"", ""trial_index"": 90, ""isRepeat"": 0}"
AHDY3BLTTUYFG:37U1UTWH9XTAYEM7DW75A7YAAAG8RZ,91,1547851124002,"{""rt"": 3591, ""trial_type"": ""face-likert-amanda"", ""debug_mode"": ""live"", ""task_type"": ""face trials"", ""responses"": ""{\""Q0\"":7}"", ""task_payment"": 1, ""task_version"": 1, ""internal_node_id"": ""0.0-10.0-0.0-1.0"", ""time_elapsed"": 385802, ""imgName"": ""/static/images/celeba_gt_crop/trustworthy/056283.jpg"", ""questions"": ""[{\""prompt\"":\""<p>How <b>trustworthy</b> does this person look to <b>most people</b>? Rate from 1-9</p>\"",\""labels\"":[\""1 <br/>Not trustworthy at all\"",\""2\"",\""3\"",\""4\"",\""5\"",\""6\"",\""7\"",\""8\"",\""9  <br/>Extremely trustworthy\""],\""required\"":true}]"", ""task_unique_trial"": 100, ""task_name"": ""trustworthy-gt"", ""trial_index"": 91, ""isRepeat"": 0}"
AHDY3BLTTUYFG:37U1UTWH9XTAYEM7DW75A7YAAAG8RZ,92,1547851126795,"{""rt"": 2790, ""trial_type"": ""face-likert-amanda"", ""debug_mode"": ""live"", ""task_type"": ""face trials"", ""responses"": ""{\""Q0\"":7}"", ""task_payment"": 1, ""task_version"": 1, ""internal_node_id"": ""0.0-10.0-0.0-2.0"", ""time_elapsed"": 388595, ""imgName"": ""/static/images/celeba_gt_crop/trustworthy/129344.jpg"", ""questions"": ""[{\""prompt\"":\""<p>How <b>trustworthy</b> does this person look to <b>most people</b>? Rate from 1-9</p>\"",\""labels\"":[\""1 <br/>Not trustworthy at all\"",\""2\"",\""3\"",\""4\"",\""5\"",\""6\"",\""7\"",\""8\"",\""9  <br/>Extremely trustworthy\""],\""required\"":true}]"", ""task_unique_trial"": 100, ""task_name"": ""trustworthy-gt"", ""trial_index"": 92, ""isRepeat"": 0}"
AHDY3BLTTUYFG:37U1UTWH9XTAYEM7DW75A7YAAAG8RZ,93,1547851132780,"{""rt"": 5982, ""trial_type"": ""face-likert-amanda"", ""debug_mode"": ""live"", ""task_type"": ""face trials"", ""responses"": ""{\""Q0\"":6}"", ""task_payment"": 1, ""task_version"": 1, ""internal_node_id"": ""0.0-10.0-0.0-3.0"", ""time_elapsed"": 394579, ""imgName"": ""/static/images/celeba_gt_crop/trustworthy/131025.jpg"", ""questions"": ""[{\""prompt\"":\""<p>How <b>trustworthy</b> does this person look to <b>most people</b>? Rate from 1-9</p>\"",\""labels\"":[\""1 <br/>Not trustworthy at all\"",\""2\"",\""3\"",\""4\"",\""5\"",\""6\"",\""7\"",\""8\"",\""9  <br/>Extremely trustworthy\""],\""required\"":true}]"", ""task_unique_trial"": 100, ""task_name"": ""trustworthy-gt"", ""trial_index"": 93, ""isRepeat"": 0}"
AHDY3BLTTUYFG:37U1UTWH9XTAYEM7DW75A7YAAAG8RZ,94,1547851134555,"{""rt"": 1772, ""trial_type"": ""face-likert-amanda"", ""debug_mode"": ""live"", ""task_type"": ""face trials"", ""responses"": ""{\""Q0\"":7}"", ""task_payment"": 1, ""task_version"": 1, ""internal_node_id"": ""0.0-10.0-0.0-4.0"", ""time_elapsed"": 396355, ""imgName"": ""/static/images/celeba_gt_crop/trustworthy/078487.jpg"", ""questions"": ""[{\""prompt\"":\""<p>How <b>trustworthy</b> does this person look to <b>most people</b>? Rate from 1-9</p>\"",\""labels\"":[\""1 <br/>Not trustworthy at all\"",\""2\"",\""3\"",\""4\"",\""5\"",\""6\"",\""7\"",\""8\"",\""9  <br/>Extremely trustworthy\""],\""required\"":true}]"", ""task_unique_trial"": 100, ""task_name"": ""trustworthy-gt"", ""trial_index"": 94, ""isRepeat"": 0}"
AHDY3BLTTUYFG:37U1UTWH9XTAYEM7DW75A7YAAAG8RZ,95,1547851136387,"{""rt"": 1829, ""trial_type"": ""face-likert-amanda"", ""debug_mode"": ""live"", ""task_type"": ""face trials"", ""responses"": ""{\""Q0\"":6}"", ""task_payment"": 1, ""task_version"": 1, ""internal_node_id"": ""0.0-10.0-0.0-5.0"", ""time_elapsed"": 398187, ""imgName"": ""/static/images/celeba_gt_crop/trustworthy/163099.jpg"", ""questions"": ""[{\""prompt\"":\""<p>How <b>trustworthy</b> does this person look to <b>most people</b>? Rate from 1-9</p>\"",\""labels\"":[\""1 <br/>Not trustworthy at all\"",\""2\"",\""3\"",\""4\"",\""5\"",\""6\"",\""7\"",\""8\"",\""9  <br/>Extremely trustworthy\""],\""required\"":true}]"", ""task_unique_trial"": 100, ""task_name"": ""trustworthy-gt"", ""trial_index"": 95, ""isRepeat"": 0}"
AHDY3BLTTUYFG:37U1UTWH9XTAYEM7DW75A7YAAAG8RZ,96,1547851138811,"{""rt"": 2421, ""trial_type"": ""face-likert-amanda"", ""debug_mode"": ""live"", ""task_type"": ""face trials"", ""responses"": ""{\""Q0\"":7}"", ""task_payment"": 1, ""task_version"": 1, ""internal_node_id"": ""0.0-10.0-0.0-6.0"", ""time_elapsed"": 400611, ""imgName"": ""/static/images/celeba_gt_crop/trustworthy/134288.jpg"", ""questions"": ""[{\""prompt\"":\""<p>How <b>trustworthy</b> does this person look to <b>most people</b>? Rate from 1-9</p>\"",\""labels\"":[\""1 <br/>Not trustworthy at all\"",\""2\"",\""3\"",\""4\"",\""5\"",\""6\"",\""7\"",\""8\"",\""9  <br/>Extremely trustworthy\""],\""required\"":true}]"", ""task_unique_trial"": 100, ""task_name"": ""trustworthy-gt"", ""trial_index"": 96, ""isRepeat"": 0}"
AHDY3BLTTUYFG:37U1UTWH9XTAYEM7DW75A7YAAAG8RZ,97,1547851140596,"{""rt"": 1783, ""trial_type"": ""face-likert-amanda"", ""debug_mode"": ""live"", ""task_type"": ""face trials"", ""responses"": ""{\""Q0\"":7}"", ""task_payment"": 1, ""task_version"": 1, ""internal_node_id"": ""0.0-10.0-0.0-7.0"", ""time_elapsed"": 402396, ""imgName"": ""/static/images/celeba_gt_crop/trustworthy/011276.jpg"", ""questions"": ""[{\""prompt\"":\""<p>How <b>trustworthy</b> does this person look to <b>most people</b>? Rate from 1-9</p>\"",\""labels\"":[\""1 <br/>Not trustworthy at all\"",\""2\"",\""3\"",\""4\"",\""5\"",\""6\"",\""7\"",\""8\"",\""9  <br/>Extremely trustworthy\""],\""required\"":true}]"", ""task_unique_trial"": 100, ""task_name"": ""trustworthy-gt"", ""trial_index"": 97, ""isRepeat"": 0}"
AHDY3BLTTUYFG:37U1UTWH9XTAYEM7DW75A7YAAAG8RZ,98,1547851143132,"{""rt"": 2533, ""trial_type"": ""face-likert-amanda"", ""debug_mode"": ""live"", ""task_type"": ""face trials"", ""responses"": ""{\""Q0\"":7}"", ""task_payment"": 1, ""task_version"": 1, ""internal_node_id"": ""0.0-10.0-0.0-8.0"", ""time_elapsed"": 404932, ""imgName"": ""/static/images/celeba_gt_crop/trustworthy/182044.jpg"", ""questions"": ""[{\""prompt\"":\""<p>How <b>trustworthy</b> does this person look to <b>most people</b>? Rate from 1-9</p>\"",\""labels\"":[\""1 <br/>Not trustworthy at all\"",\""2\"",\""3\"",\""4\"",\""5\"",\""6\"",\""7\"",\""8\"",\""9  <br/>Extremely trustworthy\""],\""required\"":true}]"", ""task_unique_trial"": 100, ""task_name"": ""trustworthy-gt"", ""trial_index"": 98, ""isRepeat"": 0}"
AHDY3BLTTUYFG:37U1UTWH9XTAYEM7DW75A7YAAAG8RZ,99,1547851145076,"{""rt"": 1941, ""trial_type"": ""face-likert-amanda"", ""debug_mode"": ""live"", ""task_type"": ""face trials"", ""responses"": ""{\""Q0\"":6}"", ""task_payment"": 1, ""task_version"": 1, ""internal_node_id"": ""0.0-10.0-0.0-9.0"", ""time_elapsed"": 406876, ""imgName"": ""/static/images/celeba_gt_crop/trustworthy/023754.jpg"", ""questions"": ""[{\""prompt\"":\""<p>How <b>trustworthy</b> does this person look to <b>most people</b>? Rate from 1-9</p>\"",\""labels\"":[\""1 <br/>Not trustworthy at all\"",\""2\"",\""3\"",\""4\"",\""5\"",\""6\"",\""7\"",\""8\"",\""9  <br/>Extremely trustworthy\""],\""required\"":true}]"", ""task_unique_trial"": 100, ""task_name"": ""trustworthy-gt"", ""trial_index"": 99, ""isRepeat"": 0}"
AHDY3BLTTUYFG:37U1UTWH9XTAYEM7DW75A7YAAAG8RZ,100,1547851147077,"{""rt"": null, ""trial_type"": ""html-keyboard-response"", ""task_unique_trial"": 100, ""stimulus"": ""<p>Good job!</p>"", ""task_version"": 1, ""internal_node_id"": ""0.0-10.0-1.0"", ""task_payment"": 1, ""time_elapsed"": 408877, ""debug_mode"": ""live"", ""key_press"": null, ""task_name"": ""trustworthy-gt"", ""trial_index"": 100}"
AHDY3BLTTUYFG:37U1UTWH9XTAYEM7DW75A7YAAAG8RZ,101,1547851149596,"{""rt"": 2517, ""trial_type"": ""face-likert-amanda"", ""debug_mode"": ""live"", ""task_type"": ""face trials"", ""responses"": ""{\""Q0\"":7}"", ""task_payment"": 1, ""task_version"": 1, ""internal_node_id"": ""0.0-11.0-0.0-0.0"", ""time_elapsed"": 411396, ""imgName"": ""/static/images/celeba_gt_crop/trustworthy/163099.jpg"", ""questions"": ""[{\""prompt\"":\""<p>How <b>trustworthy</b> does this person look to <b>most people</b>? Rate from 1-9</p>\"",\""labels\"":[\""1 <br/>Not trustworthy at all\"",\""2\"",\""3\"",\""4\"",\""5\"",\""6\"",\""7\"",\""8\"",\""9  <br/>Extremely trustworthy\""],\""required\"":true}]"", ""task_unique_trial"": 100, ""task_name"": ""trustworthy-gt"", ""trial_index"": 101, ""isRepeat"": 0}"
AHDY3BLTTUYFG:37U1UTWH9XTAYEM7DW75A7YAAAG8RZ,102,1547851151348,"{""rt"": 1750, ""trial_type"": ""face-likert-amanda"", ""debug_mode"": ""live"", ""task_type"": ""face trials"", ""responses"": ""{\""Q0\"":6}"", ""task_payment"": 1, ""task_version"": 1, ""internal_node_id"": ""0.0-11.0-0.0-1.0"", ""time_elapsed"": 413148, ""imgName"": ""/static/images/celeba_gt_crop/trustworthy/015082.jpg"", ""questions"": ""[{\""prompt\"":\""<p>How <b>trustworthy</b> does this person look to <b>most people</b>? Rate from 1-9</p>\"",\""labels\"":[\""1 <br/>Not trustworthy at all\"",\""2\"",\""3\"",\""4\"",\""5\"",\""6\"",\""7\"",\""8\"",\""9  <br/>Extremely trustworthy\""],\""required\"":true}]"", ""task_unique_trial"": 100, ""task_name"": ""trustworthy-gt"", ""trial_index"": 102, ""isRepeat"": 0}"
AHDY3BLTTUYFG:37U1UTWH9XTAYEM7DW75A7YAAAG8RZ,103,1547851154692,"{""rt"": 3341, ""trial_type"": ""face-likert-amanda"", ""debug_mode"": ""live"", ""task_type"": ""face trials"", ""responses"": ""{\""Q0\"":7}"", ""task_payment"": 1, ""task_version"": 1, ""internal_node_id"": ""0.0-11.0-0.0-2.0"", ""time_elapsed"": 416492, ""imgName"": ""/static/images/celeba_gt_crop/trustworthy/051409.jpg"", ""questions"": ""[{\""prompt\"":\""<p>How <b>trustworthy</b> does this person look to <b>most people</b>? Rate from 1-9</p>\"",\""labels\"":[\""1 <br/>Not trustworthy at all\"",\""2\"",\""3\"",\""4\"",\""5\"",\""6\"",\""7\"",\""8\"",\""9  <br/>Extremely trustworthy\""],\""required\"":true}]"", ""task_unique_trial"": 100, ""task_name"": ""trustworthy-gt"", ""trial_index"": 103, ""isRepeat"": 0}"
AHDY3BLTTUYFG:37U1UTWH9XTAYEM7DW75A7YAAAG8RZ,104,1547851156925,"{""rt"": 2231, ""trial_type"": ""face-likert-amanda"", ""debug_mode"": ""live"", ""task_type"": ""face trials"", ""responses"": ""{\""Q0\"":6}"", ""task_payment"": 1, ""task_version"": 1, ""internal_node_id"": ""0.0-11.0-0.0-3.0"", ""time_elapsed"": 418724, ""imgName"": ""/static/images/celeba_gt_crop/trustworthy/181931.jpg"", ""questions"": ""[{\""prompt\"":\""<p>How <b>trustworthy</b> does this person look to <b>most people</b>? Rate from 1-9</p>\"",\""labels\"":[\""1 <br/>Not trustworthy at all\"",\""2\"",\""3\"",\""4\"",\""5\"",\""6\"",\""7\"",\""8\"",\""9  <br/>Extremely trustworthy\""],\""required\"":true}]"", ""task_unique_trial"": 100, ""task_name"": ""trustworthy-gt"", ""trial_index"": 104, ""isRepeat"": 0}"
AHDY3BLTTUYFG:37U1UTWH9XTAYEM7DW75A7YAAAG8RZ,105,1547851158725,"{""rt"": 1798, ""trial_type"": ""face-likert-amanda"", ""debug_mode"": ""live"", ""task_type"": ""face trials"", ""responses"": ""{\""Q0\"":7}"", ""task_payment"": 1, ""task_version"": 1, ""internal_node_id"": ""0.0-11.0-0.0-4.0"", ""time_elapsed"": 420525, ""imgName"": ""/static/images/celeba_gt_crop/trustworthy/094816.jpg"", ""questions"": ""[{\""prompt\"":\""<p>How <b>trustworthy</b> does this person look to <b>most people</b>? Rate from 1-9</p>\"",\""labels\"":[\""1 <br/>Not trustworthy at all\"",\""2\"",\""3\"",\""4\"",\""5\"",\""6\"",\""7\"",\""8\"",\""9  <br/>Extremely trustworthy\""],\""required\"":true}]"", ""task_unique_trial"": 100, ""task_name"": ""trustworthy-gt"", ""trial_index"": 105, ""isRepeat"": 0}"
AHDY3BLTTUYFG:37U1UTWH9XTAYEM7DW75A7YAAAG8RZ,106,1547851162349,"{""rt"": 3622, ""trial_type"": ""face-likert-amanda"", ""debug_mode"": ""live"", ""task_type"": ""face trials"", ""responses"": ""{\""Q0\"":7}"", ""task_payment"": 1, ""task_version"": 1, ""internal_node_id"": ""0.0-11.0-0.0-5.0"", ""time_elapsed"": 424149, ""imgName"": ""/static/images/celeba_gt_crop/trustworthy/031302.jpg"", ""questions"": ""[{\""prompt\"":\""<p>How <b>trustworthy</b> does this person look to <b>most people</b>? Rate from 1-9</p>\"",\""labels\"":[\""1 <br/>Not trustworthy at all\"",\""2\"",\""3\"",\""4\"",\""5\"",\""6\"",\""7\"",\""8\"",\""9  <br/>Extremely trustworthy\""],\""required\"":true}]"", ""task_unique_trial"": 100, ""task_name"": ""trustworthy-gt"", ""trial_index"": 106, ""isRepeat"": 0}"
AHDY3BLTTUYFG:37U1UTWH9XTAYEM7DW75A7YAAAG8RZ,107,1547851164540,"{""rt"": 2190, ""trial_type"": ""face-likert-amanda"", ""debug_mode"": ""live"", ""task_type"": ""face trials"", ""responses"": ""{\""Q0\"":8}"", ""task_payment"": 1, ""task_version"": 1, ""internal_node_id"": ""0.0-11.0-0.0-6.0"", ""time_elapsed"": 426340, ""imgName"": ""/static/images/celeba_gt_crop/trustworthy/038546.jpg"", ""questions"": ""[{\""prompt\"":\""<p>How <b>trustworthy</b> does this person look to <b>most people</b>? Rate from 1-9</p>\"",\""labels\"":[\""1 <br/>Not trustworthy at all\"",\""2\"",\""3\"",\""4\"",\""5\"",\""6\"",\""7\"",\""8\"",\""9  <br/>Extremely trustworthy\""],\""required\"":true}]"", ""task_unique_trial"": 100, ""task_name"": ""trustworthy-gt"", ""trial_index"": 107, ""isRepeat"": 0}"
AHDY3BLTTUYFG:37U1UTWH9XTAYEM7DW75A7YAAAG8RZ,108,1547851166364,"{""rt"": 1822, ""trial_type"": ""face-likert-amanda"", ""debug_mode"": ""live"", ""task_type"": ""face trials"", ""responses"": ""{\""Q0\"":7}"", ""task_payment"": 1, ""task_version"": 1, ""internal_node_id"": ""0.0-11.0-0.0-7.0"", ""time_elapsed"": 428164, ""imgName"": ""/static/images/celeba_gt_crop/trustworthy/007374.jpg"", ""questions"": ""[{\""prompt\"":\""<p>How <b>trustworthy</b> does this person look to <b>most people</b>? Rate from 1-9</p>\"",\""labels\"":[\""1 <br/>Not trustworthy at all\"",\""2\"",\""3\"",\""4\"",\""5\"",\""6\"",\""7\"",\""8\"",\""9  <br/>Extremely trustworthy\""],\""required\"":true}]"", ""task_unique_trial"": 100, ""task_name"": ""trustworthy-gt"", ""trial_index"": 108, ""isRepeat"": 0}"
AHDY3BLTTUYFG:37U1UTWH9XTAYEM7DW75A7YAAAG8RZ,109,1547851168484,"{""rt"": 2118, ""trial_type"": ""face-likert-amanda"", ""debug_mode"": ""live"", ""task_type"": ""face trials"", ""responses"": ""{\""Q0\"":6}"", ""task_payment"": 1, ""task_version"": 1, ""internal_node_id"": ""0.0-11.0-0.0-8.0"", ""time_elapsed"": 430284, ""imgName"": ""/static/images/celeba_gt_crop/trustworthy/120299.jpg"", ""questions"": ""[{\""prompt\"":\""<p>How <b>trustworthy</b> does this person look to <b>most people</b>? Rate from 1-9</p>\"",\""labels\"":[\""1 <br/>Not trustworthy at all\"",\""2\"",\""3\"",\""4\"",\""5\"",\""6\"",\""7\"",\""8\"",\""9  <br/>Extremely trustworthy\""],\""required\"":true}]"", ""task_unique_trial"": 100, ""task_name"": ""trustworthy-gt"", ""trial_index"": 109, ""isRepeat"": 0}"
AHDY3BLTTUYFG:37U1UTWH9XTAYEM7DW75A7YAAAG8RZ,110,1547851170237,"{""rt"": 1751, ""trial_type"": ""face-likert-amanda"", ""debug_mode"": ""live"", ""task_type"": ""face trials"", ""responses"": ""{\""Q0\"":7}"", ""task_payment"": 1, ""task_version"": 1, ""internal_node_id"": ""0.0-11.0-0.0-9.0"", ""time_elapsed"": 432037, ""imgName"": ""/static/images/celeba_gt_crop/trustworthy/012584.jpg"", ""questions"": ""[{\""prompt\"":\""<p>How <b>trustworthy</b> does this person look to <b>most people</b>? Rate from 1-9</p>\"",\""labels\"":[\""1 <br/>Not trustworthy at all\"",\""2\"",\""3\"",\""4\"",\""5\"",\""6\"",\""7\"",\""8\"",\""9  <br/>Extremely trustworthy\""],\""required\"":true}]"", ""task_unique_trial"": 100, ""task_name"": ""trustworthy-gt"", ""trial_index"": 110, ""isRepeat"": 0}"
AHDY3BLTTUYFG:37U1UTWH9XTAYEM7DW75A7YAAAG8RZ,111,1547851171738,"{""rt"": null, ""trial_type"": ""html-keyboard-response"", ""task_unique_trial"": 100, ""stimulus"": ""<p>Good job!</p>"", ""task_version"": 1, ""internal_node_id"": ""0.0-11.0-1.0"", ""task_payment"": 1, ""time_elapsed"": 433538, ""debug_mode"": ""live"", ""key_press"": null, ""task_name"": ""trustworthy-gt"", ""trial_index"": 111}"
AHDY3BLTTUYFG:37U1UTWH9XTAYEM7DW75A7YAAAG8RZ,112,1547851204885,"{""rt"": 33145, ""trial_type"": ""survey-text-req"", ""task_type"": ""feedback for HIT"", ""responses"": ""{\""Q0\"":\""interesting hit.the task is very fun.\""}"", ""task_payment"": 1, ""task_version"": 1, ""internal_node_id"": ""0.0-12.0"", ""time_elapsed"": 466685, ""debug_mode"": ""live"", ""task_name"": ""trustworthy-gt"", ""task_unique_trial"": 100, ""trial_index"": 112}"
A1AAO2R3FH2G49:3LEP4MGT3I7ZZ219Y7WVWK773FADBX,0,1547921049106,"{""rt"": 85233, ""trial_type"": ""instructions"", ""view_history"": ""[{\""page_index\"":0,\""viewing_time\"":4081},{\""page_index\"":1,\""viewing_time\"":3090},{\""page_index\"":2,\""viewing_time\"":78061}]"", ""task_type"": ""instruction"", ""task_payment"": 1, ""task_version"": 1, ""internal_node_id"": ""0.0-0.0"", ""time_elapsed"": 85234, ""debug_mode"": ""live"", ""task_name"": ""trustworthy-gt"", ""task_unique_trial"": 100, ""trial_index"": 0}"
A1AAO2R3FH2G49:3LEP4MGT3I7ZZ219Y7WVWK773FADBX,1,1547921070230,"{""rt"": 21114, ""trial_type"": ""survey-multi-choice"", ""task_type"": ""demographic-multichoice"", ""responses"": ""{\""Q0\"":\""26-35\"",\""Q1\"":\""Female\"",\""Q2\"":\""No\"",\""Q3\"":\""4\"",\""Q4\"":\""White\"",\""Q5\"":\""Bachelor&#8217;s degree (e.g. BA, BS) or above\"",\""Q6\"":\""$50,000 - $74,999\""}"", ""task_payment"": 1, ""task_version"": 1, ""time_elapsed"": 106359, ""sanity_check_1_continue"": true, ""random_num"": 4, ""debug_mode"": ""live"", ""questions"": ""[{\""prompt\"":\""What is your age?\"",\""options\"":[\""Under 18\"",\""18-25\"",\""26-35\"",\""36-45\"",\""46-55\"",\""56+\""],\""required\"":true},{\""prompt\"":\""What is your gender?\"",\""options\"":[\""Male\"",\""Female\"",\""Other/Prefer not to say\""],\""required\"":true},{\""prompt\"":\""Are you of Hispanic, Latino, or Spanish origin?\"",\""options\"":[\""Yes\"",\""No\""],\""required\"":true},{\""prompt\"":\""Please choose the option that matches the number here: 4\"",\""options\"":[\""1\"",\""2\"",\""3\"",\""4\""],\""required\"":true},{\""prompt\"":\""How would you describe yourself?\"",\""options\"":[\""American Indian or Alaskan Native\"",\""Asian\"",\""Black or African-American\"",\""Native Hawaiian or Other Pacific Islander\"",\""White\""],\""required\"":true},{\""prompt\"":\""What is the highest degree or level of school you have completed? (If you&#8217;re currently enrolled in school, please indicate the highest degree you have received)\"",\""options\"":[\""Less than a high school diploma\"",\""High school degree or equivalent (e.g. GED)\"",\""Some college, no degree\"",\""Associate degree (e.g. AA, AS)\"",\""Bachelor&#8217;s degree (e.g. BA, BS) or above\""],\""required\"":true},{\""prompt\"":\""What is the total income of all members of your household?\"",\""options\"":[\""Less than $20,000\"",\""$20,000  - $49,999\"",\""$50,000 - $74,999\"",\""$75,000 and above\""],\""required\"":true}]"", ""internal_node_id"": ""0.0-1.0-0.0"", ""task_unique_trial"": 100, ""task_name"": ""trustworthy-gt"", ""trial_index"": 1}"
A1AAO2R3FH2G49:3LEP4MGT3I7ZZ219Y7WVWK773FADBX,2,1547921078146,"{""rt"": 7914, ""trial_type"": ""face-likert-amanda"", ""debug_mode"": ""live"", ""task_type"": ""face trials"", ""responses"": ""{\""Q0\"":5}"", ""task_payment"": 1, ""task_version"": 1, ""internal_node_id"": ""0.0-2.0-0.0-0.0"", ""time_elapsed"": 114275, ""imgName"": ""/static/images/celeba_gt_crop/trustworthy/183037.jpg"", ""questions"": ""[{\""prompt\"":\""<p>How <b>trustworthy</b> does this person look to <b>most people</b>? Rate from 1-9</p>\"",\""labels\"":[\""1 <br/>Not trustworthy at all\"",\""2\"",\""3\"",\""4\"",\""5\"",\""6\"",\""7\"",\""8\"",\""9  <br/>Extremely trustworthy\""],\""required\"":true}]"", ""task_unique_trial"": 100, ""task_name"": ""trustworthy-gt"", ""trial_index"": 2, ""isRepeat"": 0}"
A1AAO2R3FH2G49:3LEP4MGT3I7ZZ219Y7WVWK773FADBX,3,1547921086075,"{""rt"": 7928, ""trial_type"": ""face-likert-amanda"", ""debug_mode"": ""live"", ""task_type"": ""face trials"", ""responses"": ""{\""Q0\"":5}"", ""task_payment"": 1, ""task_version"": 1, ""internal_node_id"": ""0.0-2.0-0.0-1.0"", ""time_elapsed"": 122204, ""imgName"": ""/static/images/celeba_gt_crop/trustworthy/161399.jpg"", ""questions"": ""[{\""prompt\"":\""<p>How <b>trustworthy</b> does this person look to <b>most people</b>? Rate from 1-9</p>\"",\""labels\"":[\""1 <br/>Not trustworthy at all\"",\""2\"",\""3\"",\""4\"",\""5\"",\""6\"",\""7\"",\""8\"",\""9  <br/>Extremely trustworthy\""],\""required\"":true}]"", ""task_unique_trial"": 100, ""task_name"": ""trustworthy-gt"", ""trial_index"": 3, ""isRepeat"": 0}"
A1AAO2R3FH2G49:3LEP4MGT3I7ZZ219Y7WVWK773FADBX,4,1547921092333,"{""rt"": 6256, ""trial_type"": ""face-likert-amanda"", ""debug_mode"": ""live"", ""task_type"": ""face trials"", ""responses"": ""{\""Q0\"":5}"", ""task_payment"": 1, ""task_version"": 1, ""internal_node_id"": ""0.0-2.0-0.0-2.0"", ""time_elapsed"": 128462, ""imgName"": ""/static/images/celeba_gt_crop/trustworthy/075690.jpg"", ""questions"": ""[{\""prompt\"":\""<p>How <b>trustworthy</b> does this person look to <b>most people</b>? Rate from 1-9</p>\"",\""labels\"":[\""1 <br/>Not trustworthy at all\"",\""2\"",\""3\"",\""4\"",\""5\"",\""6\"",\""7\"",\""8\"",\""9  <br/>Extremely trustworthy\""],\""required\"":true}]"", ""task_unique_trial"": 100, ""task_name"": ""trustworthy-gt"", ""trial_index"": 4, ""isRepeat"": 0}"
A1AAO2R3FH2G49:3LEP4MGT3I7ZZ219Y7WVWK773FADBX,5,1547921097197,"{""rt"": 4858, ""trial_type"": ""face-likert-amanda"", ""debug_mode"": ""live"", ""task_type"": ""face trials"", ""responses"": ""{\""Q0\"":6}"", ""task_payment"": 1, ""task_version"": 1, ""internal_node_id"": ""0.0-2.0-0.0-3.0"", ""time_elapsed"": 133326, ""imgName"": ""/static/images/celeba_gt_crop/trustworthy/143688.jpg"", ""questions"": ""[{\""prompt\"":\""<p>How <b>trustworthy</b> does this person look to <b>most people</b>? Rate from 1-9</p>\"",\""labels\"":[\""1 <br/>Not trustworthy at all\"",\""2\"",\""3\"",\""4\"",\""5\"",\""6\"",\""7\"",\""8\"",\""9  <br/>Extremely trustworthy\""],\""required\"":true}]"", ""task_unique_trial"": 100, ""task_name"": ""trustworthy-gt"", ""trial_index"": 5, ""isRepeat"": 0}"
A1AAO2R3FH2G49:3LEP4MGT3I7ZZ219Y7WVWK773FADBX,6,1547921102423,"{""rt"": 5226, ""trial_type"": ""face-likert-amanda"", ""debug_mode"": ""live"", ""task_type"": ""face trials"", ""responses"": ""{\""Q0\"":7}"", ""task_payment"": 1, ""task_version"": 1, ""internal_node_id"": ""0.0-2.0-0.0-4.0"", ""time_elapsed"": 138552, ""imgName"": ""/static/images/celeba_gt_crop/trustworthy/108522.jpg"", ""questions"": ""[{\""prompt\"":\""<p>How <b>trustworthy</b> does this person look to <b>most people</b>? Rate from 1-9</p>\"",\""labels\"":[\""1 <br/>Not trustworthy at all\"",\""2\"",\""3\"",\""4\"",\""5\"",\""6\"",\""7\"",\""8\"",\""9  <br/>Extremely trustworthy\""],\""required\"":true}]"", ""task_unique_trial"": 100, ""task_name"": ""trustworthy-gt"", ""trial_index"": 6, ""isRepeat"": 0}"
A1AAO2R3FH2G49:3LEP4MGT3I7ZZ219Y7WVWK773FADBX,7,1547921107152,"{""rt"": 4727, ""trial_type"": ""face-likert-amanda"", ""debug_mode"": ""live"", ""task_type"": ""face trials"", ""responses"": ""{\""Q0\"":7}"", ""task_payment"": 1, ""task_version"": 1, ""internal_node_id"": ""0.0-2.0-0.0-5.0"", ""time_elapsed"": 143281, ""imgName"": ""/static/images/celeba_gt_crop/trustworthy/028757.jpg"", ""questions"": ""[{\""prompt\"":\""<p>How <b>trustworthy</b> does this person look to <b>most people</b>? Rate from 1-9</p>\"",\""labels\"":[\""1 <br/>Not trustworthy at all\"",\""2\"",\""3\"",\""4\"",\""5\"",\""6\"",\""7\"",\""8\"",\""9  <br/>Extremely trustworthy\""],\""required\"":true}]"", ""task_unique_trial"": 100, ""task_name"": ""trustworthy-gt"", ""trial_index"": 7, ""isRepeat"": 0}"
A1AAO2R3FH2G49:3LEP4MGT3I7ZZ219Y7WVWK773FADBX,8,1547921112344,"{""rt"": 5191, ""trial_type"": ""face-likert-amanda"", ""debug_mode"": ""live"", ""task_type"": ""face trials"", ""responses"": ""{\""Q0\"":5}"", ""task_payment"": 1, ""task_version"": 1, ""internal_node_id"": ""0.0-2.0-0.0-6.0"", ""time_elapsed"": 148473, ""imgName"": ""/static/images/celeba_gt_crop/trustworthy/111710.jpg"", ""questions"": ""[{\""prompt\"":\""<p>How <b>trustworthy</b> does this person look to <b>most people</b>? Rate from 1-9</p>\"",\""labels\"":[\""1 <br/>Not trustworthy at all\"",\""2\"",\""3\"",\""4\"",\""5\"",\""6\"",\""7\"",\""8\"",\""9  <br/>Extremely trustworthy\""],\""required\"":true}]"", ""task_unique_trial"": 100, ""task_name"": ""trustworthy-gt"", ""trial_index"": 8, ""isRepeat"": 0}"
A1AAO2R3FH2G49:3LEP4MGT3I7ZZ219Y7WVWK773FADBX,9,1547921117613,"{""rt"": 5268, ""trial_type"": ""face-likert-amanda"", ""debug_mode"": ""live"", ""task_type"": ""face trials"", ""responses"": ""{\""Q0\"":6}"", ""task_payment"": 1, ""task_version"": 1, ""internal_node_id"": ""0.0-2.0-0.0-7.0"", ""time_elapsed"": 153742, ""imgName"": ""/static/images/celeba_gt_crop/trustworthy/131025.jpg"", ""questions"": ""[{\""prompt\"":\""<p>How <b>trustworthy</b> does this person look to <b>most people</b>? Rate from 1-9</p>\"",\""labels\"":[\""1 <br/>Not trustworthy at all\"",\""2\"",\""3\"",\""4\"",\""5\"",\""6\"",\""7\"",\""8\"",\""9  <br/>Extremely trustworthy\""],\""required\"":true}]"", ""task_unique_trial"": 100, ""task_name"": ""trustworthy-gt"", ""trial_index"": 9, ""isRepeat"": 0}"
A1AAO2R3FH2G49:3LEP4MGT3I7ZZ219Y7WVWK773FADBX,10,1547921122794,"{""rt"": 5180, ""trial_type"": ""face-likert-amanda"", ""debug_mode"": ""live"", ""task_type"": ""face trials"", ""responses"": ""{\""Q0\"":6}"", ""task_payment"": 1, ""task_version"": 1, ""internal_node_id"": ""0.0-2.0-0.0-8.0"", ""time_elapsed"": 158923, ""imgName"": ""/static/images/celeba_gt_crop/trustworthy/131025.jpg"", ""questions"": ""[{\""prompt\"":\""<p>How <b>trustworthy</b> does this person look to <b>most people</b>? Rate from 1-9</p>\"",\""labels\"":[\""1 <br/>Not trustworthy at all\"",\""2\"",\""3\"",\""4\"",\""5\"",\""6\"",\""7\"",\""8\"",\""9  <br/>Extremely trustworthy\""],\""required\"":true}]"", ""task_unique_trial"": 100, ""task_name"": ""trustworthy-gt"", ""trial_index"": 10, ""isRepeat"": 0}"
A1AAO2R3FH2G49:3LEP4MGT3I7ZZ219Y7WVWK773FADBX,11,1547921127454,"{""rt"": 4657, ""trial_type"": ""face-likert-amanda"", ""debug_mode"": ""live"", ""task_type"": ""face trials"", ""responses"": ""{\""Q0\"":5}"", ""task_payment"": 1, ""task_version"": 1, ""internal_node_id"": ""0.0-2.0-0.0-9.0"", ""time_elapsed"": 163583, ""imgName"": ""/static/images/celeba_gt_crop/trustworthy/147667.jpg"", ""questions"": ""[{\""prompt\"":\""<p>How <b>trustworthy</b> does this person look to <b>most people</b>? Rate from 1-9</p>\"",\""labels\"":[\""1 <br/>Not trustworthy at all\"",\""2\"",\""3\"",\""4\"",\""5\"",\""6\"",\""7\"",\""8\"",\""9  <br/>Extremely trustworthy\""],\""required\"":true}]"", ""task_unique_trial"": 100, ""task_name"": ""trustworthy-gt"", ""trial_index"": 11, ""isRepeat"": 0}"
A1AAO2R3FH2G49:3LEP4MGT3I7ZZ219Y7WVWK773FADBX,12,1547921128458,"{""rt"": null, ""trial_type"": ""html-keyboard-response"", ""task_unique_trial"": 100, ""stimulus"": ""<p>Good job!</p>"", ""task_version"": 1, ""internal_node_id"": ""0.0-2.0-1.0"", ""task_payment"": 1, ""time_elapsed"": 164587, ""debug_mode"": ""live"", ""key_press"": null, ""task_name"": ""trustworthy-gt"", ""trial_index"": 12}"
A1AAO2R3FH2G49:3LEP4MGT3I7ZZ219Y7WVWK773FADBX,13,1547921133185,"{""rt"": 4726, ""trial_type"": ""face-likert-amanda"", ""debug_mode"": ""live"", ""task_type"": ""face trials"", ""responses"": ""{\""Q0\"":3}"", ""task_payment"": 1, ""task_version"": 1, ""internal_node_id"": ""0.0-3.0-0.0-0.0"", ""time_elapsed"": 169314, ""imgName"": ""/static/images/celeba_gt_crop/trustworthy/163934.jpg"", ""questions"": ""[{\""prompt\"":\""<p>How <b>trustworthy</b> does this person look to <b>most people</b>? Rate from 1-9</p>\"",\""labels\"":[\""1 <br/>Not trustworthy at all\"",\""2\"",\""3\"",\""4\"",\""5\"",\""6\"",\""7\"",\""8\"",\""9  <br/>Extremely trustworthy\""],\""required\"":true}]"", ""task_unique_trial"": 100, ""task_name"": ""trustworthy-gt"", ""trial_index"": 13, ""isRepeat"": 0}"
A1AAO2R3FH2G49:3LEP4MGT3I7ZZ219Y7WVWK773FADBX,14,1547921137731,"{""rt"": 4544, ""trial_type"": ""face-likert-amanda"", ""debug_mode"": ""live"", ""task_type"": ""face trials"", ""responses"": ""{\""Q0\"":6}"", ""task_payment"": 1, ""task_version"": 1, ""internal_node_id"": ""0.0-3.0-0.0-1.0"", ""time_elapsed"": 173860, ""imgName"": ""/static/images/celeba_gt_crop/trustworthy/094816.jpg"", ""questions"": ""[{\""prompt\"":\""<p>How <b>trustworthy</b> does this person look to <b>most people</b>? Rate from 1-9</p>\"",\""labels\"":[\""1 <br/>Not trustworthy at all\"",\""2\"",\""3\"",\""4\"",\""5\"",\""6\"",\""7\"",\""8\"",\""9  <br/>Extremely trustworthy\""],\""required\"":true}]"", ""task_unique_trial"": 100, ""task_name"": ""trustworthy-gt"", ""trial_index"": 14, ""isRepeat"": 0}"
A1AAO2R3FH2G49:3LEP4MGT3I7ZZ219Y7WVWK773FADBX,15,1547921142513,"{""rt"": 4777, ""trial_type"": ""face-likert-amanda"", ""debug_mode"": ""live"", ""task_type"": ""face trials"", ""responses"": ""{\""Q0\"":5}"", ""task_payment"": 1, ""task_version"": 1, ""internal_node_id"": ""0.0-3.0-0.0-2.0"", ""time_elapsed"": 178642, ""imgName"": ""/static/images/celeba_gt_crop/trustworthy/136140.jpg"", ""questions"": ""[{\""prompt\"":\""<p>How <b>trustworthy</b> does this person look to <b>most people</b>? Rate from 1-9</p>\"",\""labels\"":[\""1 <br/>Not trustworthy at all\"",\""2\"",\""3\"",\""4\"",\""5\"",\""6\"",\""7\"",\""8\"",\""9  <br/>Extremely trustworthy\""],\""required\"":true}]"", ""task_unique_trial"": 100, ""task_name"": ""trustworthy-gt"", ""trial_index"": 15, ""isRepeat"": 0}"
