debugKXH3HJ:debugFOUV4M,0,1543348849833,"{""rt"": 16307, ""trial_type"": ""instructions"", ""view_history"": ""[{\""page_index\"":0,\""viewing_time\"":3687},{\""page_index\"":1,\""viewing_time\"":6085},{\""page_index\"":2,\""viewing_time\"":1857},{\""page_index\"":3,\""viewing_time\"":4678}]"", ""task_type"": ""instruction"", ""task_payment"": 1.5, ""task_version"": 2, ""internal_node_id"": ""0.0-0.0"", ""time_elapsed"": 16309, ""debug_mode"": ""debug"", ""task_name"": ""interview decision"", ""task_unique_trial"": 5, ""trial_index"": 0}"
debugKXH3HJ:debugFOUV4M,1,1543348863395,"{""rt"": 13550, ""trial_type"": ""survey-multi-choice"", ""task_type"": ""demographic-multichoice"", ""responses"": ""{\""Q0\"":\""Under 18\"",\""Q1\"":\""Male\"",\""Q2\"":\""Yes\"",\""Q3\"":\""4\"",\""Q4\"":\""American Indian or Alaskan Native\"",\""Q5\"":\""Less than a high school diploma\"",\""Q6\"":\""Less than $20,000\""}"", ""task_payment"": 1.5, ""task_version"": 2, ""time_elapsed"": 29872, ""sanity_check_1_continue"": true, ""random_num"": 4, ""debug_mode"": ""debug"", ""questions"": ""[{\""prompt\"":\""What is your age?\"",\""options\"":[\""Under 18\"",\""18-25\"",\""26-35\"",\""36-45\"",\""46-55\"",\""56+\""],\""required\"":true},{\""prompt\"":\""What is your gender?\"",\""options\"":[\""Male\"",\""Female\"",\""Other/Prefer not to say\""],\""required\"":true},{\""prompt\"":\""Are you of Hispanic, Latino, or Spanish origin?\"",\""options\"":[\""Yes\"",\""No\""],\""required\"":true},{\""prompt\"":\""Please choose the option that match the number here: 4\"",\""options\"":[\""1\"",\""2\"",\""3\"",\""4\""],\""required\"":true},{\""prompt\"":\""How would you describe yourself?\"",\""options\"":[\""American Indian or Alaskan Native\"",\""Asian\"",\""Black or African-American\"",\""Native Hawaiian or Other Pacific Islander\"",\""White\""],\""required\"":true},{\""prompt\"":\""What is the highest degree or level of school you have completed? (If you&#8217;re currently enrolled in school, please indicate the highest degree you have received)\"",\""options\"":[\""Less than a high school diploma\"",\""High school degree or equivalent (e.g. GED)\"",\""Some college, no degree\"",\""Associate degree (e.g. AA, AS)\"",\""Bachelor&#8217;s degree (e.g. BA, BS)\"",\""Professional or post-baccalauriate degree\""],\""required\"":true},{\""prompt\"":\""What is the total income of all members of your household?\"",\""options\"":[\""Less than $20,000\"",\""$20,000 - $34,999\"",\""$35,000 - $49,999\"",\""$50,000 - $74,999\"",\""$75,000 - $99,999\"",\""Over $100,000\""],\""required\"":true}]"", ""internal_node_id"": ""0.0-1.0-0.0"", ""task_unique_trial"": 5, ""task_name"": ""interview decision"", ""trial_index"": 1}"
debugKXH3HJ:debugFOUV4M,2,1543348868873,"{""rt"": 5476, ""trial_type"": ""survey-text-req"", ""task_type"": ""demographics_location"", ""responses"": ""{\""Q0\"":\""debug\"",\""Q1\"":\""debug\"",\""Q2\"":\""debug\""}"", ""task_payment"": 1.5, ""task_version"": 2, ""internal_node_id"": ""0.0-2.0"", ""time_elapsed"": 35350, ""debug_mode"": ""debug"", ""task_name"": ""interview decision"", ""task_unique_trial"": 5, ""trial_index"": 2}"
debugKXH3HJ:debugFOUV4M,3,1543348879061,"{""rt"": 10185, ""trial_type"": ""survey-text-req"", ""task_type"": ""question comprehension"", ""responses"": ""{\""Q0\"":\""How much would you like to invite this person for a job interview?\""}"", ""task_payment"": 1.5, ""task_version"": 2, ""internal_node_id"": ""0.0-3.0-0.0"", ""comprehension_check_continue"": true, ""time_elapsed"": 45538, ""debug_mode"": ""debug"", ""task_name"": ""interview decision"", ""task_unique_trial"": 5, ""trial_index"": 3}"
debugKXH3HJ:debugFOUV4M,4,1543348883326,"{""rt"": 4261, ""trial_type"": ""face-likert-amanda"", ""debug_mode"": ""debug"", ""task_type"": ""empty face"", ""responses"": ""{\""Q0\"":4}"", ""task_payment"": 1.5, ""task_version"": 2, ""internal_node_id"": ""0.0-4.0"", ""time_elapsed"": 49802, ""imgName"": ""/static/images/faces/empty-image-1.jpg"", ""questions"": ""[{\""prompt\"":\""<p>How much would you like to invite this person for a job interview? Rate from 1-9</p>\"",\""labels\"":[\""1 <br/>(Completely unwilling to invite him/her)\"",\""2\"",\""3\"",\""4\"",\""5\"",\""6\"",\""7\"",\""8\"",\""9  <br/>(Very willing to invite him/her)\""],\""required\"":true}]"", ""task_unique_trial"": 5, ""task_name"": ""interview decision"", ""trial_index"": 4, ""isRepeat"": 0}"
debugKXH3HJ:debugFOUV4M,5,1543348885798,"{""rt"": 2472, ""trial_type"": ""instructions"", ""view_history"": ""[{\""page_index\"":0,\""viewing_time\"":2472}]"", ""task_unique_trial"": 5, ""task_payment"": 1.5, ""task_version"": 2, ""internal_node_id"": ""0.0-5.0"", ""time_elapsed"": 52275, ""debug_mode"": ""debug"", ""task_name"": ""interview decision"", ""trial_index"": 5}"
debugKXH3HJ:debugFOUV4M,6,1543348887659,"{""rt"": 1860, ""trial_type"": ""face-likert-amanda"", ""debug_mode"": ""debug"", ""task_type"": ""face trials"", ""responses"": ""{\""Q0\"":4}"", ""task_payment"": 1.5, ""task_version"": 2, ""internal_node_id"": ""0.0-6.0-0.0-0.0"", ""time_elapsed"": 54136, ""imgName"": ""/static/images/2kfaces/Google_1_Paul Reno_1_oval.jpg"", ""questions"": ""[{\""prompt\"":\""<p>How much would you like to invite this person for a job interview? Rate from 1-9</p>\"",\""labels\"":[\""1 <br/>(Completely unwilling to invite him/her)\"",\""2\"",\""3\"",\""4\"",\""5\"",\""6\"",\""7\"",\""8\"",\""9  <br/>(Very willing to invite him/her)\""],\""required\"":true}]"", ""task_unique_trial"": 5, ""task_name"": ""interview decision"", ""trial_index"": 6, ""isRepeat"": 0}"
debugKXH3HJ:debugFOUV4M,7,1543348889166,"{""rt"": null, ""trial_type"": ""html-keyboard-response"", ""task_unique_trial"": 5, ""stimulus"": ""<p>Good job! Let us take a quick break!</p>"", ""task_version"": 2, ""internal_node_id"": ""0.0-6.0-1.0"", ""task_payment"": 1.5, ""time_elapsed"": 55643, ""debug_mode"": ""debug"", ""key_press"": null, ""task_name"": ""interview decision"", ""trial_index"": 7}"
debugKXH3HJ:debugFOUV4M,8,1543348894018,"{""rt"": 4852, ""trial_type"": ""face-likert-amanda"", ""debug_mode"": ""debug"", ""task_type"": ""face trials"", ""responses"": ""{\""Q0\"":4}"", ""task_payment"": 1.5, ""task_version"": 2, ""internal_node_id"": ""0.0-7.0-0.0-0.0"", ""time_elapsed"": 60495, ""imgName"": ""/static/images/2kfaces/Google_1_Norman Westfall_5_oval.jpg"", ""questions"": ""[{\""prompt\"":\""<p>How much would you like to invite this person for a job interview? Rate from 1-9</p>\"",\""labels\"":[\""1 <br/>(Completely unwilling to invite him/her)\"",\""2\"",\""3\"",\""4\"",\""5\"",\""6\"",\""7\"",\""8\"",\""9  <br/>(Very willing to invite him/her)\""],\""required\"":true}]"", ""task_unique_trial"": 5, ""task_name"": ""interview decision"", ""trial_index"": 8, ""isRepeat"": 0}"
debugKXH3HJ:debugFOUV4M,9,1543348895024,"{""rt"": null, ""trial_type"": ""html-keyboard-response"", ""task_unique_trial"": 5, ""stimulus"": ""<p>Good job! Let us take a quick break!</p>"", ""task_version"": 2, ""internal_node_id"": ""0.0-7.0-1.0"", ""task_payment"": 1.5, ""time_elapsed"": 61501, ""debug_mode"": ""debug"", ""key_press"": null, ""task_name"": ""interview decision"", ""trial_index"": 9}"
debugKXH3HJ:debugFOUV4M,10,1543348972837,"{""rt"": 77811, ""trial_type"": ""face-likert-amanda"", ""debug_mode"": ""debug"", ""task_type"": ""face trials"", ""responses"": ""{\""Q0\"":4}"", ""task_payment"": 1.5, ""task_version"": 2, ""internal_node_id"": ""0.0-8.0-0.0-0.0"", ""time_elapsed"": 139313, ""imgName"": ""/static/images/2kfaces/Google_1_Sara Guajardo_1_oval.jpg"", ""questions"": ""[{\""prompt\"":\""<p>How much would you like to invite this person for a job interview? Rate from 1-9</p>\"",\""labels\"":[\""1 <br/>(Completely unwilling to invite him/her)\"",\""2\"",\""3\"",\""4\"",\""5\"",\""6\"",\""7\"",\""8\"",\""9  <br/>(Very willing to invite him/her)\""],\""required\"":true}]"", ""task_unique_trial"": 5, ""task_name"": ""interview decision"", ""trial_index"": 10, ""isRepeat"": 0}"
debugKXH3HJ:debugFOUV4M,11,1543348973841,"{""rt"": null, ""trial_type"": ""html-keyboard-response"", ""task_unique_trial"": 5, ""stimulus"": ""<p>Good job! Let us take a quick break!</p>"", ""task_version"": 2, ""internal_node_id"": ""0.0-8.0-1.0"", ""task_payment"": 1.5, ""time_elapsed"": 140318, ""debug_mode"": ""debug"", ""key_press"": null, ""task_name"": ""interview decision"", ""trial_index"": 11}"
debugKXH3HJ:debugFOUV4M,12,1543348977928,"{""rt"": 4087, ""trial_type"": ""face-likert-amanda"", ""debug_mode"": ""debug"", ""task_type"": ""face trials"", ""responses"": ""{\""Q0\"":4}"", ""task_payment"": 1.5, ""task_version"": 2, ""internal_node_id"": ""0.0-9.0-0.0-0.0"", ""time_elapsed"": 144405, ""imgName"": ""/static/images/2kfaces/Google_1_Sherry Mcmichael_11_oval.jpg"", ""questions"": ""[{\""prompt\"":\""<p>How much would you like to invite this person for a job interview? Rate from 1-9</p>\"",\""labels\"":[\""1 <br/>(Completely unwilling to invite him/her)\"",\""2\"",\""3\"",\""4\"",\""5\"",\""6\"",\""7\"",\""8\"",\""9  <br/>(Very willing to invite him/her)\""],\""required\"":true}]"", ""task_unique_trial"": 5, ""task_name"": ""interview decision"", ""trial_index"": 12, ""isRepeat"": 0}"
debugKXH3HJ:debugFOUV4M,13,1543348978934,"{""rt"": null, ""trial_type"": ""html-keyboard-response"", ""task_unique_trial"": 5, ""stimulus"": ""<p>Good job! Let us take a quick break!</p>"", ""task_version"": 2, ""internal_node_id"": ""0.0-9.0-1.0"", ""task_payment"": 1.5, ""time_elapsed"": 145411, ""debug_mode"": ""debug"", ""key_press"": null, ""task_name"": ""interview decision"", ""trial_index"": 13}"
debugKXH3HJ:debugFOUV4M,14,1543348981964,"{""rt"": 3030, ""trial_type"": ""face-likert-amanda"", ""debug_mode"": ""debug"", ""task_type"": ""face trials"", ""responses"": ""{\""Q0\"":4}"", ""task_payment"": 1.5, ""task_version"": 2, ""internal_node_id"": ""0.0-10.0-0.0-0.0"", ""time_elapsed"": 148441, ""imgName"": ""/static/images/2kfaces/Google_1_Gertrude Bayne_11_oval.jpg"", ""questions"": ""[{\""prompt\"":\""<p>How much would you like to invite this person for a job interview? Rate from 1-9</p>\"",\""labels\"":[\""1 <br/>(Completely unwilling to invite him/her)\"",\""2\"",\""3\"",\""4\"",\""5\"",\""6\"",\""7\"",\""8\"",\""9  <br/>(Very willing to invite him/her)\""],\""required\"":true}]"", ""task_unique_trial"": 5, ""task_name"": ""interview decision"", ""trial_index"": 14, ""isRepeat"": 0}"
debugKXH3HJ:debugFOUV4M,15,1543348982721,"{""rt"": null, ""trial_type"": ""html-keyboard-response"", ""task_unique_trial"": 5, ""stimulus"": ""<p>Good job! Let us take a quick break!</p>"", ""task_version"": 2, ""internal_node_id"": ""0.0-10.0-1.0"", ""task_payment"": 1.5, ""time_elapsed"": 149198, ""debug_mode"": ""debug"", ""key_press"": null, ""task_name"": ""interview decision"", ""trial_index"": 15}"
debugKXH3HJ:debugFOUV4M,16,1543348984726,"{""rt"": null, ""trial_type"": ""html-keyboard-response"", ""task_unique_trial"": 5, ""stimulus"": ""<p>Enjoy a longer break :)</p>"", ""task_version"": 2, ""internal_node_id"": ""0.0-11.0"", ""task_payment"": 1.5, ""time_elapsed"": 151203, ""debug_mode"": ""debug"", ""key_press"": null, ""task_name"": ""interview decision"", ""trial_index"": 16}"
debugKXH3HJ:debugFOUV4M,17,1543348990996,"{""rt"": 6269, ""trial_type"": ""face-likert-amanda"", ""debug_mode"": ""debug"", ""task_type"": ""empty face"", ""responses"": ""{\""Q0\"":5}"", ""task_payment"": 1.5, ""task_version"": 2, ""internal_node_id"": ""0.0-12.0"", ""time_elapsed"": 157473, ""imgName"": ""/static/images/faces/empty-image-1.jpg"", ""questions"": ""[{\""prompt\"":\""<p>How much would you like to invite this person for a job interview? Rate from 1-9</p>\"",\""labels\"":[\""1 <br/>(Completely unwilling to invite him/her)\"",\""2\"",\""3\"",\""4\"",\""5\"",\""6\"",\""7\"",\""8\"",\""9  <br/>(Very willing to invite him/her)\""],\""required\"":true}]"", ""task_unique_trial"": 5, ""task_name"": ""interview decision"", ""trial_index"": 17, ""isRepeat"": 1}"
debugKXH3HJ:debugFOUV4M,18,1543348992986,"{""rt"": 1989, ""trial_type"": ""face-likert-amanda"", ""debug_mode"": ""debug"", ""task_type"": ""face trials"", ""responses"": ""{\""Q0\"":4}"", ""task_payment"": 1.5, ""task_version"": 2, ""internal_node_id"": ""0.0-13.0-0.0-0.0"", ""time_elapsed"": 159463, ""imgName"": ""/static/images/2kfaces/Google_1_Gertrude Bayne_11_oval.jpg"", ""questions"": ""[{\""prompt\"":\""<p>How much would you like to invite this person for a job interview? Rate from 1-9</p>\"",\""labels\"":[\""1 <br/>(Completely unwilling to invite him/her)\"",\""2\"",\""3\"",\""4\"",\""5\"",\""6\"",\""7\"",\""8\"",\""9  <br/>(Very willing to invite him/her)\""],\""required\"":true}]"", ""task_unique_trial"": 5, ""task_name"": ""interview decision"", ""trial_index"": 18, ""isRepeat"": 1}"
debugKXH3HJ:debugFOUV4M,19,1543348993989,"{""rt"": null, ""trial_type"": ""html-keyboard-response"", ""task_unique_trial"": 5, ""stimulus"": ""<p>Good job! Let us take a quick break!</p>"", ""task_version"": 2, ""internal_node_id"": ""0.0-13.0-1.0"", ""task_payment"": 1.5, ""time_elapsed"": 160466, ""debug_mode"": ""debug"", ""key_press"": null, ""task_name"": ""interview decision"", ""trial_index"": 19}"
debugKXH3HJ:debugFOUV4M,20,1543348996056,"{""rt"": 2066, ""trial_type"": ""face-likert-amanda"", ""debug_mode"": ""debug"", ""task_type"": ""face trials"", ""responses"": ""{\""Q0\"":4}"", ""task_payment"": 1.5, ""task_version"": 2, ""internal_node_id"": ""0.0-14.0-0.0-0.0"", ""time_elapsed"": 162533, ""imgName"": ""/static/images/2kfaces/Google_1_Sara Guajardo_1_oval.jpg"", ""questions"": ""[{\""prompt\"":\""<p>How much would you like to invite this person for a job interview? Rate from 1-9</p>\"",\""labels\"":[\""1 <br/>(Completely unwilling to invite him/her)\"",\""2\"",\""3\"",\""4\"",\""5\"",\""6\"",\""7\"",\""8\"",\""9  <br/>(Very willing to invite him/her)\""],\""required\"":true}]"", ""task_unique_trial"": 5, ""task_name"": ""interview decision"", ""trial_index"": 20, ""isRepeat"": 1}"
debugKXH3HJ:debugFOUV4M,21,1543348996809,"{""rt"": null, ""trial_type"": ""html-keyboard-response"", ""task_unique_trial"": 5, ""stimulus"": ""<p>Good job! Let us take a quick break!</p>"", ""task_version"": 2, ""internal_node_id"": ""0.0-14.0-1.0"", ""task_payment"": 1.5, ""time_elapsed"": 163286, ""debug_mode"": ""debug"", ""key_press"": null, ""task_name"": ""interview decision"", ""trial_index"": 21}"
debugKXH3HJ:debugFOUV4M,22,1543348999122,"{""rt"": 2311, ""trial_type"": ""face-likert-amanda"", ""debug_mode"": ""debug"", ""task_type"": ""face trials"", ""responses"": ""{\""Q0\"":4}"", ""task_payment"": 1.5, ""task_version"": 2, ""internal_node_id"": ""0.0-15.0-0.0-0.0"", ""time_elapsed"": 165599, ""imgName"": ""/static/images/2kfaces/Google_1_Norman Westfall_5_oval.jpg"", ""questions"": ""[{\""prompt\"":\""<p>How much would you like to invite this person for a job interview? Rate from 1-9</p>\"",\""labels\"":[\""1 <br/>(Completely unwilling to invite him/her)\"",\""2\"",\""3\"",\""4\"",\""5\"",\""6\"",\""7\"",\""8\"",\""9  <br/>(Very willing to invite him/her)\""],\""required\"":true}]"", ""task_unique_trial"": 5, ""task_name"": ""interview decision"", ""trial_index"": 22, ""isRepeat"": 1}"
debugKXH3HJ:debugFOUV4M,23,1543349000129,"{""rt"": null, ""trial_type"": ""html-keyboard-response"", ""task_unique_trial"": 5, ""stimulus"": ""<p>Good job! Let us take a quick break!</p>"", ""task_version"": 2, ""internal_node_id"": ""0.0-15.0-1.0"", ""task_payment"": 1.5, ""time_elapsed"": 166606, ""debug_mode"": ""debug"", ""key_press"": null, ""task_name"": ""interview decision"", ""trial_index"": 23}"
debugKXH3HJ:debugFOUV4M,24,1543349002018,"{""rt"": 1887, ""trial_type"": ""face-likert-amanda"", ""debug_mode"": ""debug"", ""task_type"": ""face trials"", ""responses"": ""{\""Q0\"":4}"", ""task_payment"": 1.5, ""task_version"": 2, ""internal_node_id"": ""0.0-16.0-0.0-0.0"", ""time_elapsed"": 168495, ""imgName"": ""/static/images/2kfaces/Google_1_Paul Reno_1_oval.jpg"", ""questions"": ""[{\""prompt\"":\""<p>How much would you like to invite this person for a job interview? Rate from 1-9</p>\"",\""labels\"":[\""1 <br/>(Completely unwilling to invite him/her)\"",\""2\"",\""3\"",\""4\"",\""5\"",\""6\"",\""7\"",\""8\"",\""9  <br/>(Very willing to invite him/her)\""],\""required\"":true}]"", ""task_unique_trial"": 5, ""task_name"": ""interview decision"", ""trial_index"": 24, ""isRepeat"": 1}"
debugKXH3HJ:debugFOUV4M,25,1543349002770,"{""rt"": null, ""trial_type"": ""html-keyboard-response"", ""task_unique_trial"": 5, ""stimulus"": ""<p>Good job! Let us take a quick break!</p>"", ""task_version"": 2, ""internal_node_id"": ""0.0-16.0-1.0"", ""task_payment"": 1.5, ""time_elapsed"": 169247, ""debug_mode"": ""debug"", ""key_press"": null, ""task_name"": ""interview decision"", ""trial_index"": 25}"
debugKXH3HJ:debugFOUV4M,26,1543349004265,"{""rt"": 1494, ""trial_type"": ""face-likert-amanda"", ""debug_mode"": ""debug"", ""task_type"": ""face trials"", ""responses"": ""{\""Q0\"":4}"", ""task_payment"": 1.5, ""task_version"": 2, ""internal_node_id"": ""0.0-17.0-0.0-0.0"", ""time_elapsed"": 170742, ""imgName"": ""/static/images/2kfaces/Google_1_Sherry Mcmichael_11_oval.jpg"", ""questions"": ""[{\""prompt\"":\""<p>How much would you like to invite this person for a job interview? Rate from 1-9</p>\"",\""labels\"":[\""1 <br/>(Completely unwilling to invite him/her)\"",\""2\"",\""3\"",\""4\"",\""5\"",\""6\"",\""7\"",\""8\"",\""9  <br/>(Very willing to invite him/her)\""],\""required\"":true}]"", ""task_unique_trial"": 5, ""task_name"": ""interview decision"", ""trial_index"": 26, ""isRepeat"": 1}"
debugKXH3HJ:debugFOUV4M,27,1543349005266,"{""rt"": null, ""trial_type"": ""html-keyboard-response"", ""task_unique_trial"": 5, ""stimulus"": ""<p>Good job! Let us take a quick break!</p>"", ""task_version"": 2, ""internal_node_id"": ""0.0-17.0-1.0"", ""task_payment"": 1.5, ""time_elapsed"": 171743, ""debug_mode"": ""debug"", ""key_press"": null, ""task_name"": ""interview decision"", ""trial_index"": 27}"
debugKXH3HJ:debugFOUV4M,28,1543349014726,"{""rt"": 9457, ""trial_type"": ""survey-text-req"", ""task_type"": ""interview decision making feedback"", ""responses"": ""{\""Q0\"":\""a\"",\""Q1\"":\""a\"",\""Q2\"":\""a\"",\""Q3\"":\""a\"",\""Q4\"":\""a\""}"", ""task_payment"": 1.5, ""task_version"": 2, ""internal_node_id"": ""0.0-18.0"", ""time_elapsed"": 181203, ""debug_mode"": ""debug"", ""task_name"": ""interview decision"", ""task_unique_trial"": 5, ""trial_index"": 28}"
debugKXH3HJ:debugFOUV4M,29,1543349021848,"{""rt"": 7121, ""trial_type"": ""survey-multi-choice"", ""task_type"": ""feedback for future study"", ""responses"": ""{\""Q0\"":\""Yes\""}"", ""task_payment"": 1.5, ""task_version"": 2, ""internal_node_id"": ""0.0-19.0"", ""time_elapsed"": 188325, ""debug_mode"": ""debug"", ""questions"": ""[{\""prompt\"":\""Would you like to be invited for similar future studies?\"",\""options\"":[\""Yes\"",\""No\""],\""required\"":true}]"", ""task_unique_trial"": 5, ""task_name"": ""interview decision"", ""trial_index"": 29}"
debugKXH3HJ:debugFOUV4M,30,1543349025896,"{""rt"": 4045, ""trial_type"": ""survey-text-req"", ""task_type"": ""feedback for HIT"", ""responses"": ""{\""Q0\"":\""a\""}"", ""task_payment"": 1.5, ""task_version"": 2, ""internal_node_id"": ""0.0-20.0"", ""time_elapsed"": 192373, ""debug_mode"": ""debug"", ""task_name"": ""interview decision"", ""task_unique_trial"": 5, ""trial_index"": 30}"
A2S75O867RJG0I:37UEWGM5HVFSNE2MEBYQVXB1JWA1RD,0,1543350397557,"{""rt"": 21224, ""trial_type"": ""instructions"", ""view_history"": ""[{\""page_index\"":0,\""viewing_time\"":4162},{\""page_index\"":1,\""viewing_time\"":7752},{\""page_index\"":2,\""viewing_time\"":4735},{\""page_index\"":3,\""viewing_time\"":4574}]"", ""task_type"": ""instruction"", ""task_payment"": 1.2, ""task_version"": 2, ""internal_node_id"": ""0.0-0.0"", ""time_elapsed"": 21226, ""debug_mode"": ""live"", ""task_name"": ""interview decision"", ""task_unique_trial"": 50, ""trial_index"": 0}"
A2S75O867RJG0I:37UEWGM5HVFSNE2MEBYQVXB1JWA1RD,1,1543350426132,"{""rt"": 28559, ""trial_type"": ""survey-multi-choice"", ""task_type"": ""demographic-multichoice"", ""responses"": ""{\""Q0\"":\""18-25\"",\""Q1\"":\""Male\"",\""Q2\"":\""Yes\"",\""Q3\"":\""1\"",\""Q4\"":\""White\"",\""Q5\"":\""Associate degree (e.g. AA, AS)\"",\""Q6\"":\""$35,000 - $49,999\""}"", ""task_payment"": 1.2, ""task_version"": 2, ""time_elapsed"": 49802, ""sanity_check_1_continue"": true, ""random_num"": 1, ""debug_mode"": ""live"", ""questions"": ""[{\""prompt\"":\""What is your age?\"",\""options\"":[\""Under 18\"",\""18-25\"",\""26-35\"",\""36-45\"",\""46-55\"",\""56+\""],\""required\"":true},{\""prompt\"":\""What is your gender?\"",\""options\"":[\""Male\"",\""Female\"",\""Other/Prefer not to say\""],\""required\"":true},{\""prompt\"":\""Are you of Hispanic, Latino, or Spanish origin?\"",\""options\"":[\""Yes\"",\""No\""],\""required\"":true},{\""prompt\"":\""Please choose the option that match the number here: 1\"",\""options\"":[\""1\"",\""2\"",\""3\"",\""4\""],\""required\"":true},{\""prompt\"":\""How would you describe yourself?\"",\""options\"":[\""American Indian or Alaskan Native\"",\""Asian\"",\""Black or African-American\"",\""Native Hawaiian or Other Pacific Islander\"",\""White\""],\""required\"":true},{\""prompt\"":\""What is the highest degree or level of school you have completed? (If you&#8217;re currently enrolled in school, please indicate the highest degree you have received)\"",\""options\"":[\""Less than a high school diploma\"",\""High school degree or equivalent (e.g. GED)\"",\""Some college, no degree\"",\""Associate degree (e.g. AA, AS)\"",\""Bachelor&#8217;s degree (e.g. BA, BS)\"",\""Professional or post-baccalauriate degree\""],\""required\"":true},{\""prompt\"":\""What is the total income of all members of your household?\"",\""options\"":[\""Less than $20,000\"",\""$20,000 - $34,999\"",\""$35,000 - $49,999\"",\""$50,000 - $74,999\"",\""$75,000 - $99,999\"",\""Over $100,000\""],\""required\"":true}]"", ""internal_node_id"": ""0.0-1.0-0.0"", ""task_unique_trial"": 50, ""task_name"": ""interview decision"", ""trial_index"": 1}"
A2S75O867RJG0I:37UEWGM5HVFSNE2MEBYQVXB1JWA1RD,2,1543350440978,"{""rt"": 14840, ""trial_type"": ""survey-text-req"", ""task_type"": ""demographics_location"", ""responses"": ""{\""Q0\"":\""MO\"",\""Q1\"":\""Kansas City\"",\""Q2\"":\""64114\""}"", ""task_payment"": 1.2, ""task_version"": 2, ""internal_node_id"": ""0.0-2.0"", ""time_elapsed"": 64648, ""debug_mode"": ""live"", ""task_name"": ""interview decision"", ""task_unique_trial"": 50, ""trial_index"": 2}"
A2S75O867RJG0I:37UEWGM5HVFSNE2MEBYQVXB1JWA1RD,3,1543350467948,"{""rt"": 26967, ""trial_type"": ""survey-text-req"", ""task_type"": ""question comprehension"", ""responses"": ""{\""Q0\"":\""How much would you like to invite this person for a job interview?\""}"", ""task_payment"": 1.2, ""task_version"": 2, ""internal_node_id"": ""0.0-3.0-0.0"", ""comprehension_check_continue"": true, ""time_elapsed"": 91618, ""debug_mode"": ""live"", ""task_name"": ""interview decision"", ""task_unique_trial"": 50, ""trial_index"": 3}"
A2S75O867RJG0I:37UEWGM5HVFSNE2MEBYQVXB1JWA1RD,4,1543350483080,"{""rt"": 15127, ""trial_type"": ""face-likert-amanda"", ""debug_mode"": ""live"", ""task_type"": ""empty face"", ""responses"": ""{\""Q0\"":4}"", ""task_payment"": 1.2, ""task_version"": 2, ""internal_node_id"": ""0.0-4.0"", ""time_elapsed"": 106750, ""imgName"": ""/static/images/faces/empty-image-1.jpg"", ""questions"": ""[{\""prompt\"":\""<p>How much would you like to invite this person for a job interview? Rate from 1-9</p>\"",\""labels\"":[\""1 <br/>(Completely unwilling to invite the person)\"",\""2\"",\""3\"",\""4\"",\""5\"",\""6\"",\""7\"",\""8\"",\""9  <br/>(Very willing to invite the person)\""],\""required\"":true}]"", ""task_unique_trial"": 50, ""task_name"": ""interview decision"", ""trial_index"": 4, ""isRepeat"": 0}"
A2S75O867RJG0I:37UEWGM5HVFSNE2MEBYQVXB1JWA1RD,5,1543350485821,"{""rt"": 2738, ""trial_type"": ""instructions"", ""view_history"": ""[{\""page_index\"":0,\""viewing_time\"":2737}]"", ""task_unique_trial"": 50, ""task_payment"": 1.2, ""task_version"": 2, ""internal_node_id"": ""0.0-5.0"", ""time_elapsed"": 109491, ""debug_mode"": ""live"", ""task_name"": ""interview decision"", ""trial_index"": 5}"
A2S75O867RJG0I:37UEWGM5HVFSNE2MEBYQVXB1JWA1RD,6,1543350494041,"{""rt"": 8220, ""trial_type"": ""face-likert-amanda"", ""debug_mode"": ""live"", ""task_type"": ""face trials"", ""responses"": ""{\""Q0\"":2}"", ""task_payment"": 1.2, ""task_version"": 2, ""internal_node_id"": ""0.0-6.0-0.0-0.0"", ""time_elapsed"": 117711, ""imgName"": ""/static/images/2kfaces/Google_1_Claudia Rohrer_13_oval.jpg"", ""questions"": ""[{\""prompt\"":\""<p>How much would you like to invite this person for a job interview? Rate from 1-9</p>\"",\""labels\"":[\""1 <br/>(Completely unwilling to invite the person)\"",\""2\"",\""3\"",\""4\"",\""5\"",\""6\"",\""7\"",\""8\"",\""9  <br/>(Very willing to invite the person)\""],\""required\"":true}]"", ""task_unique_trial"": 50, ""task_name"": ""interview decision"", ""trial_index"": 6, ""isRepeat"": 0}"
A2S75O867RJG0I:37UEWGM5HVFSNE2MEBYQVXB1JWA1RD,7,1543350501225,"{""rt"": 7181, ""trial_type"": ""face-likert-amanda"", ""debug_mode"": ""live"", ""task_type"": ""face trials"", ""responses"": ""{\""Q0\"":7}"", ""task_payment"": 1.2, ""task_version"": 2, ""internal_node_id"": ""0.0-6.0-0.0-1.0"", ""time_elapsed"": 124895, ""imgName"": ""/static/images/2kfaces/Google_1_Marjorie Rule_3_oval.jpg"", ""questions"": ""[{\""prompt\"":\""<p>How much would you like to invite this person for a job interview? Rate from 1-9</p>\"",\""labels\"":[\""1 <br/>(Completely unwilling to invite the person)\"",\""2\"",\""3\"",\""4\"",\""5\"",\""6\"",\""7\"",\""8\"",\""9  <br/>(Very willing to invite the person)\""],\""required\"":true}]"", ""task_unique_trial"": 50, ""task_name"": ""interview decision"", ""trial_index"": 7, ""isRepeat"": 0}"
A2S75O867RJG0I:37UEWGM5HVFSNE2MEBYQVXB1JWA1RD,8,1543350514285,"{""rt"": 13056, ""trial_type"": ""face-likert-amanda"", ""debug_mode"": ""live"", ""task_type"": ""face trials"", ""responses"": ""{\""Q0\"":6}"", ""task_payment"": 1.2, ""task_version"": 2, ""internal_node_id"": ""0.0-6.0-0.0-2.0"", ""time_elapsed"": 137955, ""imgName"": ""/static/images/2kfaces/Google_1_Kathleen Sartain_1_oval.jpg"", ""questions"": ""[{\""prompt\"":\""<p>How much would you like to invite this person for a job interview? Rate from 1-9</p>\"",\""labels\"":[\""1 <br/>(Completely unwilling to invite the person)\"",\""2\"",\""3\"",\""4\"",\""5\"",\""6\"",\""7\"",\""8\"",\""9  <br/>(Very willing to invite the person)\""],\""required\"":true}]"", ""task_unique_trial"": 50, ""task_name"": ""interview decision"", ""trial_index"": 8, ""isRepeat"": 0}"
A2S75O867RJG0I:37UEWGM5HVFSNE2MEBYQVXB1JWA1RD,9,1543350524847,"{""rt"": 10560, ""trial_type"": ""face-likert-amanda"", ""debug_mode"": ""live"", ""task_type"": ""face trials"", ""responses"": ""{\""Q0\"":1}"", ""task_payment"": 1.2, ""task_version"": 2, ""internal_node_id"": ""0.0-6.0-0.0-3.0"", ""time_elapsed"": 148517, ""imgName"": ""/static/images/2kfaces/Google_1_Louis Mceachern_7_oval.jpg"", ""questions"": ""[{\""prompt\"":\""<p>How much would you like to invite this person for a job interview? Rate from 1-9</p>\"",\""labels\"":[\""1 <br/>(Completely unwilling to invite the person)\"",\""2\"",\""3\"",\""4\"",\""5\"",\""6\"",\""7\"",\""8\"",\""9  <br/>(Very willing to invite the person)\""],\""required\"":true}]"", ""task_unique_trial"": 50, ""task_name"": ""interview decision"", ""trial_index"": 9, ""isRepeat"": 0}"
A2S75O867RJG0I:37UEWGM5HVFSNE2MEBYQVXB1JWA1RD,10,1543350528819,"{""rt"": 3971, ""trial_type"": ""face-likert-amanda"", ""debug_mode"": ""live"", ""task_type"": ""face trials"", ""responses"": ""{\""Q0\"":5}"", ""task_payment"": 1.2, ""task_version"": 2, ""internal_node_id"": ""0.0-6.0-0.0-4.0"", ""time_elapsed"": 152489, ""imgName"": ""/static/images/2kfaces/Google_1_Cindy Morehead_5_oval.jpg"", ""questions"": ""[{\""prompt\"":\""<p>How much would you like to invite this person for a job interview? Rate from 1-9</p>\"",\""labels\"":[\""1 <br/>(Completely unwilling to invite the person)\"",\""2\"",\""3\"",\""4\"",\""5\"",\""6\"",\""7\"",\""8\"",\""9  <br/>(Very willing to invite the person)\""],\""required\"":true}]"", ""task_unique_trial"": 50, ""task_name"": ""interview decision"", ""trial_index"": 10, ""isRepeat"": 0}"
A2S75O867RJG0I:37UEWGM5HVFSNE2MEBYQVXB1JWA1RD,11,1543350534352,"{""rt"": 5532, ""trial_type"": ""face-likert-amanda"", ""debug_mode"": ""live"", ""task_type"": ""face trials"", ""responses"": ""{\""Q0\"":8}"", ""task_payment"": 1.2, ""task_version"": 2, ""internal_node_id"": ""0.0-6.0-0.0-5.0"", ""time_elapsed"": 158022, ""imgName"": ""/static/images/2kfaces/Alice_Mckellar_11_oval.jpg"", ""questions"": ""[{\""prompt\"":\""<p>How much would you like to invite this person for a job interview? Rate from 1-9</p>\"",\""labels\"":[\""1 <br/>(Completely unwilling to invite the person)\"",\""2\"",\""3\"",\""4\"",\""5\"",\""6\"",\""7\"",\""8\"",\""9  <br/>(Very willing to invite the person)\""],\""required\"":true}]"", ""task_unique_trial"": 50, ""task_name"": ""interview decision"", ""trial_index"": 11, ""isRepeat"": 0}"
A2S75O867RJG0I:37UEWGM5HVFSNE2MEBYQVXB1JWA1RD,12,1543350538224,"{""rt"": 3869, ""trial_type"": ""face-likert-amanda"", ""debug_mode"": ""live"", ""task_type"": ""face trials"", ""responses"": ""{\""Q0\"":7}"", ""task_payment"": 1.2, ""task_version"": 2, ""internal_node_id"": ""0.0-6.0-0.0-6.0"", ""time_elapsed"": 161894, ""imgName"": ""/static/images/2kfaces/Google_1_Henry Gumm_19_oval.jpg"", ""questions"": ""[{\""prompt\"":\""<p>How much would you like to invite this person for a job interview? Rate from 1-9</p>\"",\""labels\"":[\""1 <br/>(Completely unwilling to invite the person)\"",\""2\"",\""3\"",\""4\"",\""5\"",\""6\"",\""7\"",\""8\"",\""9  <br/>(Very willing to invite the person)\""],\""required\"":true}]"", ""task_unique_trial"": 50, ""task_name"": ""interview decision"", ""trial_index"": 12, ""isRepeat"": 0}"
A2S75O867RJG0I:37UEWGM5HVFSNE2MEBYQVXB1JWA1RD,13,1543350542728,"{""rt"": 4503, ""trial_type"": ""face-likert-amanda"", ""debug_mode"": ""live"", ""task_type"": ""face trials"", ""responses"": ""{\""Q0\"":4}"", ""task_payment"": 1.2, ""task_version"": 2, ""internal_node_id"": ""0.0-6.0-0.0-7.0"", ""time_elapsed"": 166398, ""imgName"": ""/static/images/2kfaces/Google_1_Gary Perri_3_oval.jpg"", ""questions"": ""[{\""prompt\"":\""<p>How much would you like to invite this person for a job interview? Rate from 1-9</p>\"",\""labels\"":[\""1 <br/>(Completely unwilling to invite the person)\"",\""2\"",\""3\"",\""4\"",\""5\"",\""6\"",\""7\"",\""8\"",\""9  <br/>(Very willing to invite the person)\""],\""required\"":true}]"", ""task_unique_trial"": 50, ""task_name"": ""interview decision"", ""trial_index"": 13, ""isRepeat"": 0}"
A2S75O867RJG0I:37UEWGM5HVFSNE2MEBYQVXB1JWA1RD,14,1543350547000,"{""rt"": 4271, ""trial_type"": ""face-likert-amanda"", ""debug_mode"": ""live"", ""task_type"": ""face trials"", ""responses"": ""{\""Q0\"":6}"", ""task_payment"": 1.2, ""task_version"": 2, ""internal_node_id"": ""0.0-6.0-0.0-8.0"", ""time_elapsed"": 170670, ""imgName"": ""/static/images/2kfaces/Google_1_Valerie Noble_9_oval.jpg"", ""questions"": ""[{\""prompt\"":\""<p>How much would you like to invite this person for a job interview? Rate from 1-9</p>\"",\""labels\"":[\""1 <br/>(Completely unwilling to invite the person)\"",\""2\"",\""3\"",\""4\"",\""5\"",\""6\"",\""7\"",\""8\"",\""9  <br/>(Very willing to invite the person)\""],\""required\"":true}]"", ""task_unique_trial"": 50, ""task_name"": ""interview decision"", ""trial_index"": 14, ""isRepeat"": 0}"
A2S75O867RJG0I:37UEWGM5HVFSNE2MEBYQVXB1JWA1RD,15,1543350552281,"{""rt"": 5277, ""trial_type"": ""face-likert-amanda"", ""debug_mode"": ""live"", ""task_type"": ""face trials"", ""responses"": ""{\""Q0\"":7}"", ""task_payment"": 1.2, ""task_version"": 2, ""internal_node_id"": ""0.0-6.0-0.0-9.0"", ""time_elapsed"": 175950, ""imgName"": ""/static/images/2kfaces/Google_1_Carole Bentley_7_oval.jpg"", ""questions"": ""[{\""prompt\"":\""<p>How much would you like to invite this person for a job interview? Rate from 1-9</p>\"",\""labels\"":[\""1 <br/>(Completely unwilling to invite the person)\"",\""2\"",\""3\"",\""4\"",\""5\"",\""6\"",\""7\"",\""8\"",\""9  <br/>(Very willing to invite the person)\""],\""required\"":true}]"", ""task_unique_trial"": 50, ""task_name"": ""interview decision"", ""trial_index"": 15, ""isRepeat"": 0}"
A2S75O867RJG0I:37UEWGM5HVFSNE2MEBYQVXB1JWA1RD,16,1543350554284,"{""rt"": null, ""trial_type"": ""html-keyboard-response"", ""task_unique_trial"": 50, ""stimulus"": ""<p>Good job!</p>"", ""task_version"": 2, ""internal_node_id"": ""0.0-6.0-1.0"", ""task_payment"": 1.2, ""time_elapsed"": 177953, ""debug_mode"": ""live"", ""key_press"": null, ""task_name"": ""interview decision"", ""trial_index"": 16}"
A2S75O867RJG0I:37UEWGM5HVFSNE2MEBYQVXB1JWA1RD,17,1543350560173,"{""rt"": 5887, ""trial_type"": ""face-likert-amanda"", ""debug_mode"": ""live"", ""task_type"": ""face trials"", ""responses"": ""{\""Q0\"":4}"", ""task_payment"": 1.2, ""task_version"": 2, ""internal_node_id"": ""0.0-7.0-0.0-0.0"", ""time_elapsed"": 183843, ""imgName"": ""/static/images/2kfaces/Google_1_Vera Becker_5_oval.jpg"", ""questions"": ""[{\""prompt\"":\""<p>How much would you like to invite this person for a job interview? Rate from 1-9</p>\"",\""labels\"":[\""1 <br/>(Completely unwilling to invite the person)\"",\""2\"",\""3\"",\""4\"",\""5\"",\""6\"",\""7\"",\""8\"",\""9  <br/>(Very willing to invite the person)\""],\""required\"":true}]"", ""task_unique_trial"": 50, ""task_name"": ""interview decision"", ""trial_index"": 17, ""isRepeat"": 0}"
A2S75O867RJG0I:37UEWGM5HVFSNE2MEBYQVXB1JWA1RD,18,1543350566355,"{""rt"": 6178, ""trial_type"": ""face-likert-amanda"", ""debug_mode"": ""live"", ""task_type"": ""face trials"", ""responses"": ""{\""Q0\"":6}"", ""task_payment"": 1.2, ""task_version"": 2, ""internal_node_id"": ""0.0-7.0-0.0-1.0"", ""time_elapsed"": 190025, ""imgName"": ""/static/images/2kfaces/Google_1_Paul Horst_15_oval.jpg"", ""questions"": ""[{\""prompt\"":\""<p>How much would you like to invite this person for a job interview? Rate from 1-9</p>\"",\""labels\"":[\""1 <br/>(Completely unwilling to invite the person)\"",\""2\"",\""3\"",\""4\"",\""5\"",\""6\"",\""7\"",\""8\"",\""9  <br/>(Very willing to invite the person)\""],\""required\"":true}]"", ""task_unique_trial"": 50, ""task_name"": ""interview decision"", ""trial_index"": 18, ""isRepeat"": 0}"
A2S75O867RJG0I:37UEWGM5HVFSNE2MEBYQVXB1JWA1RD,19,1543350573809,"{""rt"": 7451, ""trial_type"": ""face-likert-amanda"", ""debug_mode"": ""live"", ""task_type"": ""face trials"", ""responses"": ""{\""Q0\"":3}"", ""task_payment"": 1.2, ""task_version"": 2, ""internal_node_id"": ""0.0-7.0-0.0-2.0"", ""time_elapsed"": 197479, ""imgName"": ""/static/images/2kfaces/Google_1_Samuel Paschal_17_oval.jpg"", ""questions"": ""[{\""prompt\"":\""<p>How much would you like to invite this person for a job interview? Rate from 1-9</p>\"",\""labels\"":[\""1 <br/>(Completely unwilling to invite the person)\"",\""2\"",\""3\"",\""4\"",\""5\"",\""6\"",\""7\"",\""8\"",\""9  <br/>(Very willing to invite the person)\""],\""required\"":true}]"", ""task_unique_trial"": 50, ""task_name"": ""interview decision"", ""trial_index"": 19, ""isRepeat"": 0}"
A2S75O867RJG0I:37UEWGM5HVFSNE2MEBYQVXB1JWA1RD,20,1543350578191,"{""rt"": 4380, ""trial_type"": ""face-likert-amanda"", ""debug_mode"": ""live"", ""task_type"": ""face trials"", ""responses"": ""{\""Q0\"":6}"", ""task_payment"": 1.2, ""task_version"": 2, ""internal_node_id"": ""0.0-7.0-0.0-3.0"", ""time_elapsed"": 201861, ""imgName"": ""/static/images/2kfaces/Google_1_Frank Luke_9_oval.jpg"", ""questions"": ""[{\""prompt\"":\""<p>How much would you like to invite this person for a job interview? Rate from 1-9</p>\"",\""labels\"":[\""1 <br/>(Completely unwilling to invite the person)\"",\""2\"",\""3\"",\""4\"",\""5\"",\""6\"",\""7\"",\""8\"",\""9  <br/>(Very willing to invite the person)\""],\""required\"":true}]"", ""task_unique_trial"": 50, ""task_name"": ""interview decision"", ""trial_index"": 20, ""isRepeat"": 0}"
A2S75O867RJG0I:37UEWGM5HVFSNE2MEBYQVXB1JWA1RD,21,1543350585466,"{""rt"": 7273, ""trial_type"": ""face-likert-amanda"", ""debug_mode"": ""live"", ""task_type"": ""face trials"", ""responses"": ""{\""Q0\"":5}"", ""task_payment"": 1.2, ""task_version"": 2, ""internal_node_id"": ""0.0-7.0-0.0-4.0"", ""time_elapsed"": 209136, ""imgName"": ""/static/images/2kfaces/Google_1_Ernest Crump_3_oval.jpg"", ""questions"": ""[{\""prompt\"":\""<p>How much would you like to invite this person for a job interview? Rate from 1-9</p>\"",\""labels\"":[\""1 <br/>(Completely unwilling to invite the person)\"",\""2\"",\""3\"",\""4\"",\""5\"",\""6\"",\""7\"",\""8\"",\""9  <br/>(Very willing to invite the person)\""],\""required\"":true}]"", ""task_unique_trial"": 50, ""task_name"": ""interview decision"", ""trial_index"": 21, ""isRepeat"": 0}"
A2S75O867RJG0I:37UEWGM5HVFSNE2MEBYQVXB1JWA1RD,22,1543350592417,"{""rt"": 6949, ""trial_type"": ""face-likert-amanda"", ""debug_mode"": ""live"", ""task_type"": ""face trials"", ""responses"": ""{\""Q0\"":6}"", ""task_payment"": 1.2, ""task_version"": 2, ""internal_node_id"": ""0.0-7.0-0.0-5.0"", ""time_elapsed"": 216087, ""imgName"": ""/static/images/2kfaces/Google_1_Andrew Diggs_9_oval.jpg"", ""questions"": ""[{\""prompt\"":\""<p>How much would you like to invite this person for a job interview? Rate from 1-9</p>\"",\""labels\"":[\""1 <br/>(Completely unwilling to invite the person)\"",\""2\"",\""3\"",\""4\"",\""5\"",\""6\"",\""7\"",\""8\"",\""9  <br/>(Very willing to invite the person)\""],\""required\"":true}]"", ""task_unique_trial"": 50, ""task_name"": ""interview decision"", ""trial_index"": 22, ""isRepeat"": 0}"
A2S75O867RJG0I:37UEWGM5HVFSNE2MEBYQVXB1JWA1RD,23,1543350596644,"{""rt"": 4225, ""trial_type"": ""face-likert-amanda"", ""debug_mode"": ""live"", ""task_type"": ""face trials"", ""responses"": ""{\""Q0\"":4}"", ""task_payment"": 1.2, ""task_version"": 2, ""internal_node_id"": ""0.0-7.0-0.0-6.0"", ""time_elapsed"": 220314, ""imgName"": ""/static/images/2kfaces/Google_1_Timothy Galvan_11_oval.jpg"", ""questions"": ""[{\""prompt\"":\""<p>How much would you like to invite this person for a job interview? Rate from 1-9</p>\"",\""labels\"":[\""1 <br/>(Completely unwilling to invite the person)\"",\""2\"",\""3\"",\""4\"",\""5\"",\""6\"",\""7\"",\""8\"",\""9  <br/>(Very willing to invite the person)\""],\""required\"":true}]"", ""task_unique_trial"": 50, ""task_name"": ""interview decision"", ""trial_index"": 23, ""isRepeat"": 0}"
A2S75O867RJG0I:37UEWGM5HVFSNE2MEBYQVXB1JWA1RD,24,1543350600934,"{""rt"": 4287, ""trial_type"": ""face-likert-amanda"", ""debug_mode"": ""live"", ""task_type"": ""face trials"", ""responses"": ""{\""Q0\"":3}"", ""task_payment"": 1.2, ""task_version"": 2, ""internal_node_id"": ""0.0-7.0-0.0-7.0"", ""time_elapsed"": 224603, ""imgName"": ""/static/images/2kfaces/Google_1_Jonathan Marek_5_oval.jpg"", ""questions"": ""[{\""prompt\"":\""<p>How much would you like to invite this person for a job interview? Rate from 1-9</p>\"",\""labels\"":[\""1 <br/>(Completely unwilling to invite the person)\"",\""2\"",\""3\"",\""4\"",\""5\"",\""6\"",\""7\"",\""8\"",\""9  <br/>(Very willing to invite the person)\""],\""required\"":true}]"", ""task_unique_trial"": 50, ""task_name"": ""interview decision"", ""trial_index"": 24, ""isRepeat"": 0}"
A2S75O867RJG0I:37UEWGM5HVFSNE2MEBYQVXB1JWA1RD,25,1543350608477,"{""rt"": 7542, ""trial_type"": ""face-likert-amanda"", ""debug_mode"": ""live"", ""task_type"": ""face trials"", ""responses"": ""{\""Q0\"":3}"", ""task_payment"": 1.2, ""task_version"": 2, ""internal_node_id"": ""0.0-7.0-0.0-8.0"", ""time_elapsed"": 232147, ""imgName"": ""/static/images/2kfaces/Google_1_Florence Melton_1_oval.jpg"", ""questions"": ""[{\""prompt\"":\""<p>How much would you like to invite this person for a job interview? Rate from 1-9</p>\"",\""labels\"":[\""1 <br/>(Completely unwilling to invite the person)\"",\""2\"",\""3\"",\""4\"",\""5\"",\""6\"",\""7\"",\""8\"",\""9  <br/>(Very willing to invite the person)\""],\""required\"":true}]"", ""task_unique_trial"": 50, ""task_name"": ""interview decision"", ""trial_index"": 25, ""isRepeat"": 0}"
A2S75O867RJG0I:37UEWGM5HVFSNE2MEBYQVXB1JWA1RD,26,1543350616327,"{""rt"": 7847, ""trial_type"": ""face-likert-amanda"", ""debug_mode"": ""live"", ""task_type"": ""face trials"", ""responses"": ""{\""Q0\"":7}"", ""task_payment"": 1.2, ""task_version"": 2, ""internal_node_id"": ""0.0-7.0-0.0-9.0"", ""time_elapsed"": 239997, ""imgName"": ""/static/images/2kfaces/Google_1_Sherry Mcmichael_11_oval.jpg"", ""questions"": ""[{\""prompt\"":\""<p>How much would you like to invite this person for a job interview? Rate from 1-9</p>\"",\""labels\"":[\""1 <br/>(Completely unwilling to invite the person)\"",\""2\"",\""3\"",\""4\"",\""5\"",\""6\"",\""7\"",\""8\"",\""9  <br/>(Very willing to invite the person)\""],\""required\"":true}]"", ""task_unique_trial"": 50, ""task_name"": ""interview decision"", ""trial_index"": 26, ""isRepeat"": 0}"
A2S75O867RJG0I:37UEWGM5HVFSNE2MEBYQVXB1JWA1RD,27,1543350617829,"{""rt"": null, ""trial_type"": ""html-keyboard-response"", ""task_unique_trial"": 50, ""stimulus"": ""<p>Good job!</p>"", ""task_version"": 2, ""internal_node_id"": ""0.0-7.0-1.0"", ""task_payment"": 1.2, ""time_elapsed"": 241499, ""debug_mode"": ""live"", ""key_press"": null, ""task_name"": ""interview decision"", ""trial_index"": 27}"
A2S75O867RJG0I:37UEWGM5HVFSNE2MEBYQVXB1JWA1RD,28,1543350623438,"{""rt"": 5607, ""trial_type"": ""face-likert-amanda"", ""debug_mode"": ""live"", ""task_type"": ""face trials"", ""responses"": ""{\""Q0\"":4}"", ""task_payment"": 1.2, ""task_version"": 2, ""internal_node_id"": ""0.0-8.0-0.0-0.0"", ""time_elapsed"": 247108, ""imgName"": ""/static/images/2kfaces/Google_1_Ronald Driver_19_oval.jpg"", ""questions"": ""[{\""prompt\"":\""<p>How much would you like to invite this person for a job interview? Rate from 1-9</p>\"",\""labels\"":[\""1 <br/>(Completely unwilling to invite the person)\"",\""2\"",\""3\"",\""4\"",\""5\"",\""6\"",\""7\"",\""8\"",\""9  <br/>(Very willing to invite the person)\""],\""required\"":true}]"", ""task_unique_trial"": 50, ""task_name"": ""interview decision"", ""trial_index"": 28, ""isRepeat"": 0}"
A2S75O867RJG0I:37UEWGM5HVFSNE2MEBYQVXB1JWA1RD,29,1543350628117,"{""rt"": 4677, ""trial_type"": ""face-likert-amanda"", ""debug_mode"": ""live"", ""task_type"": ""face trials"", ""responses"": ""{\""Q0\"":5}"", ""task_payment"": 1.2, ""task_version"": 2, ""internal_node_id"": ""0.0-8.0-0.0-1.0"", ""time_elapsed"": 251787, ""imgName"": ""/static/images/2kfaces/Google_1_Eva Kirkman_15_oval.jpg"", ""questions"": ""[{\""prompt\"":\""<p>How much would you like to invite this person for a job interview? Rate from 1-9</p>\"",\""labels\"":[\""1 <br/>(Completely unwilling to invite the person)\"",\""2\"",\""3\"",\""4\"",\""5\"",\""6\"",\""7\"",\""8\"",\""9  <br/>(Very willing to invite the person)\""],\""required\"":true}]"", ""task_unique_trial"": 50, ""task_name"": ""interview decision"", ""trial_index"": 29, ""isRepeat"": 0}"
A2S75O867RJG0I:37UEWGM5HVFSNE2MEBYQVXB1JWA1RD,30,1543350632930,"{""rt"": 4811, ""trial_type"": ""face-likert-amanda"", ""debug_mode"": ""live"", ""task_type"": ""face trials"", ""responses"": ""{\""Q0\"":8}"", ""task_payment"": 1.2, ""task_version"": 2, ""internal_node_id"": ""0.0-8.0-0.0-2.0"", ""time_elapsed"": 256600, ""imgName"": ""/static/images/2kfaces/Google_1_Steve Stamm_1_oval.jpg"", ""questions"": ""[{\""prompt\"":\""<p>How much would you like to invite this person for a job interview? Rate from 1-9</p>\"",\""labels\"":[\""1 <br/>(Completely unwilling to invite the person)\"",\""2\"",\""3\"",\""4\"",\""5\"",\""6\"",\""7\"",\""8\"",\""9  <br/>(Very willing to invite the person)\""],\""required\"":true}]"", ""task_unique_trial"": 50, ""task_name"": ""interview decision"", ""trial_index"": 30, ""isRepeat"": 0}"
A2S75O867RJG0I:37UEWGM5HVFSNE2MEBYQVXB1JWA1RD,31,1543350636648,"{""rt"": 3716, ""trial_type"": ""face-likert-amanda"", ""debug_mode"": ""live"", ""task_type"": ""face trials"", ""responses"": ""{\""Q0\"":6}"", ""task_payment"": 1.2, ""task_version"": 2, ""internal_node_id"": ""0.0-8.0-0.0-3.0"", ""time_elapsed"": 260318, ""imgName"": ""/static/images/2kfaces/Google_1_Douglas Tanguay_9_oval.jpg"", ""questions"": ""[{\""prompt\"":\""<p>How much would you like to invite this person for a job interview? Rate from 1-9</p>\"",\""labels\"":[\""1 <br/>(Completely unwilling to invite the person)\"",\""2\"",\""3\"",\""4\"",\""5\"",\""6\"",\""7\"",\""8\"",\""9  <br/>(Very willing to invite the person)\""],\""required\"":true}]"", ""task_unique_trial"": 50, ""task_name"": ""interview decision"", ""trial_index"": 31, ""isRepeat"": 0}"
A2S75O867RJG0I:37UEWGM5HVFSNE2MEBYQVXB1JWA1RD,32,1543350642090,"{""rt"": 5440, ""trial_type"": ""face-likert-amanda"", ""debug_mode"": ""live"", ""task_type"": ""face trials"", ""responses"": ""{\""Q0\"":4}"", ""task_payment"": 1.2, ""task_version"": 2, ""internal_node_id"": ""0.0-8.0-0.0-4.0"", ""time_elapsed"": 265759, ""imgName"": ""/static/images/2kfaces/Google_1_Donna Asberry_5_oval.jpg"", ""questions"": ""[{\""prompt\"":\""<p>How much would you like to invite this person for a job interview? Rate from 1-9</p>\"",\""labels\"":[\""1 <br/>(Completely unwilling to invite the person)\"",\""2\"",\""3\"",\""4\"",\""5\"",\""6\"",\""7\"",\""8\"",\""9  <br/>(Very willing to invite the person)\""],\""required\"":true}]"", ""task_unique_trial"": 50, ""task_name"": ""interview decision"", ""trial_index"": 32, ""isRepeat"": 0}"
A2S75O867RJG0I:37UEWGM5HVFSNE2MEBYQVXB1JWA1RD,33,1543350649131,"{""rt"": 7040, ""trial_type"": ""face-likert-amanda"", ""debug_mode"": ""live"", ""task_type"": ""face trials"", ""responses"": ""{\""Q0\"":8}"", ""task_payment"": 1.2, ""task_version"": 2, ""internal_node_id"": ""0.0-8.0-0.0-5.0"", ""time_elapsed"": 272801, ""imgName"": ""/static/images/2kfaces/Google_1_Sara Guajardo_1_oval.jpg"", ""questions"": ""[{\""prompt\"":\""<p>How much would you like to invite this person for a job interview? Rate from 1-9</p>\"",\""labels\"":[\""1 <br/>(Completely unwilling to invite the person)\"",\""2\"",\""3\"",\""4\"",\""5\"",\""6\"",\""7\"",\""8\"",\""9  <br/>(Very willing to invite the person)\""],\""required\"":true}]"", ""task_unique_trial"": 50, ""task_name"": ""interview decision"", ""trial_index"": 33, ""isRepeat"": 0}"
A2S75O867RJG0I:37UEWGM5HVFSNE2MEBYQVXB1JWA1RD,34,1543350653197,"{""rt"": 4063, ""trial_type"": ""face-likert-amanda"", ""debug_mode"": ""live"", ""task_type"": ""face trials"", ""responses"": ""{\""Q0\"":2}"", ""task_payment"": 1.2, ""task_version"": 2, ""internal_node_id"": ""0.0-8.0-0.0-6.0"", ""time_elapsed"": 276867, ""imgName"": ""/static/images/2kfaces/Google_1_Gloria Canada_13_oval.jpg"", ""questions"": ""[{\""prompt\"":\""<p>How much would you like to invite this person for a job interview? Rate from 1-9</p>\"",\""labels\"":[\""1 <br/>(Completely unwilling to invite the person)\"",\""2\"",\""3\"",\""4\"",\""5\"",\""6\"",\""7\"",\""8\"",\""9  <br/>(Very willing to invite the person)\""],\""required\"":true}]"", ""task_unique_trial"": 50, ""task_name"": ""interview decision"", ""trial_index"": 34, ""isRepeat"": 0}"
A2S75O867RJG0I:37UEWGM5HVFSNE2MEBYQVXB1JWA1RD,35,1543350659050,"{""rt"": 5850, ""trial_type"": ""face-likert-amanda"", ""debug_mode"": ""live"", ""task_type"": ""face trials"", ""responses"": ""{\""Q0\"":7}"", ""task_payment"": 1.2, ""task_version"": 2, ""internal_node_id"": ""0.0-8.0-0.0-7.0"", ""time_elapsed"": 282719, ""imgName"": ""/static/images/2kfaces/Google_1_Erika Fletcher_1_oval.jpg"", ""questions"": ""[{\""prompt\"":\""<p>How much would you like to invite this person for a job interview? Rate from 1-9</p>\"",\""labels\"":[\""1 <br/>(Completely unwilling to invite the person)\"",\""2\"",\""3\"",\""4\"",\""5\"",\""6\"",\""7\"",\""8\"",\""9  <br/>(Very willing to invite the person)\""],\""required\"":true}]"", ""task_unique_trial"": 50, ""task_name"": ""interview decision"", ""trial_index"": 35, ""isRepeat"": 0}"
A2S75O867RJG0I:37UEWGM5HVFSNE2MEBYQVXB1JWA1RD,36,1543350664558,"{""rt"": 5505, ""trial_type"": ""face-likert-amanda"", ""debug_mode"": ""live"", ""task_type"": ""face trials"", ""responses"": ""{\""Q0\"":5}"", ""task_payment"": 1.2, ""task_version"": 2, ""internal_node_id"": ""0.0-8.0-0.0-8.0"", ""time_elapsed"": 288227, ""imgName"": ""/static/images/2kfaces/Google_1_Sarah Woodcock_3_oval.jpg"", ""questions"": ""[{\""prompt\"":\""<p>How much would you like to invite this person for a job interview? Rate from 1-9</p>\"",\""labels\"":[\""1 <br/>(Completely unwilling to invite the person)\"",\""2\"",\""3\"",\""4\"",\""5\"",\""6\"",\""7\"",\""8\"",\""9  <br/>(Very willing to invite the person)\""],\""required\"":true}]"", ""task_unique_trial"": 50, ""task_name"": ""interview decision"", ""trial_index"": 36, ""isRepeat"": 0}"
A2S75O867RJG0I:37UEWGM5HVFSNE2MEBYQVXB1JWA1RD,37,1543350668522,"{""rt"": 3961, ""trial_type"": ""face-likert-amanda"", ""debug_mode"": ""live"", ""task_type"": ""face trials"", ""responses"": ""{\""Q0\"":1}"", ""task_payment"": 1.2, ""task_version"": 2, ""internal_node_id"": ""0.0-8.0-0.0-9.0"", ""time_elapsed"": 292192, ""imgName"": ""/static/images/2kfaces/Google_1_Kenneth Rigsby_15_oval.jpg"", ""questions"": ""[{\""prompt\"":\""<p>How much would you like to invite this person for a job interview? Rate from 1-9</p>\"",\""labels\"":[\""1 <br/>(Completely unwilling to invite the person)\"",\""2\"",\""3\"",\""4\"",\""5\"",\""6\"",\""7\"",\""8\"",\""9  <br/>(Very willing to invite the person)\""],\""required\"":true}]"", ""task_unique_trial"": 50, ""task_name"": ""interview decision"", ""trial_index"": 37, ""isRepeat"": 0}"
A2S75O867RJG0I:37UEWGM5HVFSNE2MEBYQVXB1JWA1RD,38,1543350670025,"{""rt"": null, ""trial_type"": ""html-keyboard-response"", ""task_unique_trial"": 50, ""stimulus"": ""<p>Good job!</p>"", ""task_version"": 2, ""internal_node_id"": ""0.0-8.0-1.0"", ""task_payment"": 1.2, ""time_elapsed"": 293694, ""debug_mode"": ""live"", ""key_press"": null, ""task_name"": ""interview decision"", ""trial_index"": 38}"
A2S75O867RJG0I:37UEWGM5HVFSNE2MEBYQVXB1JWA1RD,39,1543350674064,"{""rt"": 4037, ""trial_type"": ""face-likert-amanda"", ""debug_mode"": ""live"", ""task_type"": ""face trials"", ""responses"": ""{\""Q0\"":6}"", ""task_payment"": 1.2, ""task_version"": 2, ""internal_node_id"": ""0.0-9.0-0.0-0.0"", ""time_elapsed"": 297734, ""imgName"": ""/static/images/2kfaces/Google_1_Cheryl Griffin_15_oval.jpg"", ""questions"": ""[{\""prompt\"":\""<p>How much would you like to invite this person for a job interview? Rate from 1-9</p>\"",\""labels\"":[\""1 <br/>(Completely unwilling to invite the person)\"",\""2\"",\""3\"",\""4\"",\""5\"",\""6\"",\""7\"",\""8\"",\""9  <br/>(Very willing to invite the person)\""],\""required\"":true}]"", ""task_unique_trial"": 50, ""task_name"": ""interview decision"", ""trial_index"": 39, ""isRepeat"": 0}"
A2S75O867RJG0I:37UEWGM5HVFSNE2MEBYQVXB1JWA1RD,40,1543350679960,"{""rt"": 5896, ""trial_type"": ""face-likert-amanda"", ""debug_mode"": ""live"", ""task_type"": ""face trials"", ""responses"": ""{\""Q0\"":0}"", ""task_payment"": 1.2, ""task_version"": 2, ""internal_node_id"": ""0.0-9.0-0.0-1.0"", ""time_elapsed"": 303630, ""imgName"": ""/static/images/2kfaces/Bryan_Shanklin_9_oval.jpg"", ""questions"": ""[{\""prompt\"":\""<p>How much would you like to invite this person for a job interview? Rate from 1-9</p>\"",\""labels\"":[\""1 <br/>(Completely unwilling to invite the person)\"",\""2\"",\""3\"",\""4\"",\""5\"",\""6\"",\""7\"",\""8\"",\""9  <br/>(Very willing to invite the person)\""],\""required\"":true}]"", ""task_unique_trial"": 50, ""task_name"": ""interview decision"", ""trial_index"": 40, ""isRepeat"": 0}"
A2S75O867RJG0I:37UEWGM5HVFSNE2MEBYQVXB1JWA1RD,41,1543350684499,"{""rt"": 4535, ""trial_type"": ""face-likert-amanda"", ""debug_mode"": ""live"", ""task_type"": ""face trials"", ""responses"": ""{\""Q0\"":3}"", ""task_payment"": 1.2, ""task_version"": 2, ""internal_node_id"": ""0.0-9.0-0.0-2.0"", ""time_elapsed"": 308168, ""imgName"": ""/static/images/2kfaces/Google_1_Kenneth Cabral_19_oval.jpg"", ""questions"": ""[{\""prompt\"":\""<p>How much would you like to invite this person for a job interview? Rate from 1-9</p>\"",\""labels\"":[\""1 <br/>(Completely unwilling to invite the person)\"",\""2\"",\""3\"",\""4\"",\""5\"",\""6\"",\""7\"",\""8\"",\""9  <br/>(Very willing to invite the person)\""],\""required\"":true}]"", ""task_unique_trial"": 50, ""task_name"": ""interview decision"", ""trial_index"": 41, ""isRepeat"": 0}"
A2S75O867RJG0I:37UEWGM5HVFSNE2MEBYQVXB1JWA1RD,42,1543350690281,"{""rt"": 5780, ""trial_type"": ""face-likert-amanda"", ""debug_mode"": ""live"", ""task_type"": ""face trials"", ""responses"": ""{\""Q0\"":6}"", ""task_payment"": 1.2, ""task_version"": 2, ""internal_node_id"": ""0.0-9.0-0.0-3.0"", ""time_elapsed"": 313951, ""imgName"": ""/static/images/2kfaces/Google_1_Matthew Vanbuskirk_1_oval.jpg"", ""questions"": ""[{\""prompt\"":\""<p>How much would you like to invite this person for a job interview? Rate from 1-9</p>\"",\""labels\"":[\""1 <br/>(Completely unwilling to invite the person)\"",\""2\"",\""3\"",\""4\"",\""5\"",\""6\"",\""7\"",\""8\"",\""9  <br/>(Very willing to invite the person)\""],\""required\"":true}]"", ""task_unique_trial"": 50, ""task_name"": ""interview decision"", ""trial_index"": 42, ""isRepeat"": 0}"
A2S75O867RJG0I:37UEWGM5HVFSNE2MEBYQVXB1JWA1RD,43,1543350693931,"{""rt"": 3648, ""trial_type"": ""face-likert-amanda"", ""debug_mode"": ""live"", ""task_type"": ""face trials"", ""responses"": ""{\""Q0\"":5}"", ""task_payment"": 1.2, ""task_version"": 2, ""internal_node_id"": ""0.0-9.0-0.0-4.0"", ""time_elapsed"": 317600, ""imgName"": ""/static/images/2kfaces/Google_1_Gary Nance_3_oval.jpg"", ""questions"": ""[{\""prompt\"":\""<p>How much would you like to invite this person for a job interview? Rate from 1-9</p>\"",\""labels\"":[\""1 <br/>(Completely unwilling to invite the person)\"",\""2\"",\""3\"",\""4\"",\""5\"",\""6\"",\""7\"",\""8\"",\""9  <br/>(Very willing to invite the person)\""],\""required\"":true}]"", ""task_unique_trial"": 50, ""task_name"": ""interview decision"", ""trial_index"": 43, ""isRepeat"": 0}"
A2S75O867RJG0I:37UEWGM5HVFSNE2MEBYQVXB1JWA1RD,44,1543350698711,"{""rt"": 4779, ""trial_type"": ""face-likert-amanda"", ""debug_mode"": ""live"", ""task_type"": ""face trials"", ""responses"": ""{\""Q0\"":5}"", ""task_payment"": 1.2, ""task_version"": 2, ""internal_node_id"": ""0.0-9.0-0.0-5.0"", ""time_elapsed"": 322381, ""imgName"": ""/static/images/2kfaces/Google_1_Eric Osuna_3_oval.jpg"", ""questions"": ""[{\""prompt\"":\""<p>How much would you like to invite this person for a job interview? Rate from 1-9</p>\"",\""labels\"":[\""1 <br/>(Completely unwilling to invite the person)\"",\""2\"",\""3\"",\""4\"",\""5\"",\""6\"",\""7\"",\""8\"",\""9  <br/>(Very willing to invite the person)\""],\""required\"":true}]"", ""task_unique_trial"": 50, ""task_name"": ""interview decision"", ""trial_index"": 44, ""isRepeat"": 0}"
A2S75O867RJG0I:37UEWGM5HVFSNE2MEBYQVXB1JWA1RD,45,1543350702445,"{""rt"": 3734, ""trial_type"": ""face-likert-amanda"", ""debug_mode"": ""live"", ""task_type"": ""face trials"", ""responses"": ""{\""Q0\"":3}"", ""task_payment"": 1.2, ""task_version"": 2, ""internal_node_id"": ""0.0-9.0-0.0-6.0"", ""time_elapsed"": 326115, ""imgName"": ""/static/images/2kfaces/Google_1_Mark Houser_17_oval.jpg"", ""questions"": ""[{\""prompt\"":\""<p>How much would you like to invite this person for a job interview? Rate from 1-9</p>\"",\""labels\"":[\""1 <br/>(Completely unwilling to invite the person)\"",\""2\"",\""3\"",\""4\"",\""5\"",\""6\"",\""7\"",\""8\"",\""9  <br/>(Very willing to invite the person)\""],\""required\"":true}]"", ""task_unique_trial"": 50, ""task_name"": ""interview decision"", ""trial_index"": 45, ""isRepeat"": 0}"
A2S75O867RJG0I:37UEWGM5HVFSNE2MEBYQVXB1JWA1RD,46,1543350706706,"{""rt"": 4259, ""trial_type"": ""face-likert-amanda"", ""debug_mode"": ""live"", ""task_type"": ""face trials"", ""responses"": ""{\""Q0\"":5}"", ""task_payment"": 1.2, ""task_version"": 2, ""internal_node_id"": ""0.0-9.0-0.0-7.0"", ""time_elapsed"": 330376, ""imgName"": ""/static/images/2kfaces/Google_1_Paul Reno_1_oval.jpg"", ""questions"": ""[{\""prompt\"":\""<p>How much would you like to invite this person for a job interview? Rate from 1-9</p>\"",\""labels\"":[\""1 <br/>(Completely unwilling to invite the person)\"",\""2\"",\""3\"",\""4\"",\""5\"",\""6\"",\""7\"",\""8\"",\""9  <br/>(Very willing to invite the person)\""],\""required\"":true}]"", ""task_unique_trial"": 50, ""task_name"": ""interview decision"", ""trial_index"": 46, ""isRepeat"": 0}"
A2S75O867RJG0I:37UEWGM5HVFSNE2MEBYQVXB1JWA1RD,47,1543350711260,"{""rt"": 4553, ""trial_type"": ""face-likert-amanda"", ""debug_mode"": ""live"", ""task_type"": ""face trials"", ""responses"": ""{\""Q0\"":6}"", ""task_payment"": 1.2, ""task_version"": 2, ""internal_node_id"": ""0.0-9.0-0.0-8.0"", ""time_elapsed"": 334929, ""imgName"": ""/static/images/2kfaces/Google_1_Tina Middleton_7_oval.jpg"", ""questions"": ""[{\""prompt\"":\""<p>How much would you like to invite this person for a job interview? Rate from 1-9</p>\"",\""labels\"":[\""1 <br/>(Completely unwilling to invite the person)\"",\""2\"",\""3\"",\""4\"",\""5\"",\""6\"",\""7\"",\""8\"",\""9  <br/>(Very willing to invite the person)\""],\""required\"":true}]"", ""task_unique_trial"": 50, ""task_name"": ""interview decision"", ""trial_index"": 47, ""isRepeat"": 0}"
A2S75O867RJG0I:37UEWGM5HVFSNE2MEBYQVXB1JWA1RD,48,1543350715443,"{""rt"": 4181, ""trial_type"": ""face-likert-amanda"", ""debug_mode"": ""live"", ""task_type"": ""face trials"", ""responses"": ""{\""Q0\"":1}"", ""task_payment"": 1.2, ""task_version"": 2, ""internal_node_id"": ""0.0-9.0-0.0-9.0"", ""time_elapsed"": 339113, ""imgName"": ""/static/images/2kfaces/Google_1_Frank Whitehouse_3_oval.jpg"", ""questions"": ""[{\""prompt\"":\""<p>How much would you like to invite this person for a job interview? Rate from 1-9</p>\"",\""labels\"":[\""1 <br/>(Completely unwilling to invite the person)\"",\""2\"",\""3\"",\""4\"",\""5\"",\""6\"",\""7\"",\""8\"",\""9  <br/>(Very willing to invite the person)\""],\""required\"":true}]"", ""task_unique_trial"": 50, ""task_name"": ""interview decision"", ""trial_index"": 48, ""isRepeat"": 0}"
A2S75O867RJG0I:37UEWGM5HVFSNE2MEBYQVXB1JWA1RD,49,1543350717444,"{""rt"": null, ""trial_type"": ""html-keyboard-response"", ""task_unique_trial"": 50, ""stimulus"": ""<p>Good job!</p>"", ""task_version"": 2, ""internal_node_id"": ""0.0-9.0-1.0"", ""task_payment"": 1.2, ""time_elapsed"": 341114, ""debug_mode"": ""live"", ""key_press"": null, ""task_name"": ""interview decision"", ""trial_index"": 49}"
A2S75O867RJG0I:37UEWGM5HVFSNE2MEBYQVXB1JWA1RD,50,1543350722274,"{""rt"": 4829, ""trial_type"": ""face-likert-amanda"", ""debug_mode"": ""live"", ""task_type"": ""face trials"", ""responses"": ""{\""Q0\"":2}"", ""task_payment"": 1.2, ""task_version"": 2, ""internal_node_id"": ""0.0-10.0-0.0-0.0"", ""time_elapsed"": 345944, ""imgName"": ""/static/images/2kfaces/Google_1_Norman Westfall_5_oval.jpg"", ""questions"": ""[{\""prompt\"":\""<p>How much would you like to invite this person for a job interview? Rate from 1-9</p>\"",\""labels\"":[\""1 <br/>(Completely unwilling to invite the person)\"",\""2\"",\""3\"",\""4\"",\""5\"",\""6\"",\""7\"",\""8\"",\""9  <br/>(Very willing to invite the person)\""],\""required\"":true}]"", ""task_unique_trial"": 50, ""task_name"": ""interview decision"", ""trial_index"": 50, ""isRepeat"": 0}"
A2S75O867RJG0I:37UEWGM5HVFSNE2MEBYQVXB1JWA1RD,51,1543350725881,"{""rt"": 3606, ""trial_type"": ""face-likert-amanda"", ""debug_mode"": ""live"", ""task_type"": ""face trials"", ""responses"": ""{\""Q0\"":5}"", ""task_payment"": 1.2, ""task_version"": 2, ""internal_node_id"": ""0.0-10.0-0.0-1.0"", ""time_elapsed"": 349551, ""imgName"": ""/static/images/2kfaces/Google_1_Bryan Brunner_3_oval.jpg"", ""questions"": ""[{\""prompt\"":\""<p>How much would you like to invite this person for a job interview? Rate from 1-9</p>\"",\""labels\"":[\""1 <br/>(Completely unwilling to invite the person)\"",\""2\"",\""3\"",\""4\"",\""5\"",\""6\"",\""7\"",\""8\"",\""9  <br/>(Very willing to invite the person)\""],\""required\"":true}]"", ""task_unique_trial"": 50, ""task_name"": ""interview decision"", ""trial_index"": 51, ""isRepeat"": 0}"
A2S75O867RJG0I:37UEWGM5HVFSNE2MEBYQVXB1JWA1RD,52,1543350729417,"{""rt"": 3534, ""trial_type"": ""face-likert-amanda"", ""debug_mode"": ""live"", ""task_type"": ""face trials"", ""responses"": ""{\""Q0\"":4}"", ""task_payment"": 1.2, ""task_version"": 2, ""internal_node_id"": ""0.0-10.0-0.0-2.0"", ""time_elapsed"": 353087, ""imgName"": ""/static/images/2kfaces/Google_1_Gregory Arriola_3_oval.jpg"", ""questions"": ""[{\""prompt\"":\""<p>How much would you like to invite this person for a job interview? Rate from 1-9</p>\"",\""labels\"":[\""1 <br/>(Completely unwilling to invite the person)\"",\""2\"",\""3\"",\""4\"",\""5\"",\""6\"",\""7\"",\""8\"",\""9  <br/>(Very willing to invite the person)\""],\""required\"":true}]"", ""task_unique_trial"": 50, ""task_name"": ""interview decision"", ""trial_index"": 52, ""isRepeat"": 0}"
A2S75O867RJG0I:37UEWGM5HVFSNE2MEBYQVXB1JWA1RD,53,1543350734330,"{""rt"": 4913, ""trial_type"": ""face-likert-amanda"", ""debug_mode"": ""live"", ""task_type"": ""face trials"", ""responses"": ""{\""Q0\"":4}"", ""task_payment"": 1.2, ""task_version"": 2, ""internal_node_id"": ""0.0-10.0-0.0-3.0"", ""time_elapsed"": 358000, ""imgName"": ""/static/images/2kfaces/Google_1_Shelley Lund_5_oval.jpg"", ""questions"": ""[{\""prompt\"":\""<p>How much would you like to invite this person for a job interview? Rate from 1-9</p>\"",\""labels\"":[\""1 <br/>(Completely unwilling to invite the person)\"",\""2\"",\""3\"",\""4\"",\""5\"",\""6\"",\""7\"",\""8\"",\""9  <br/>(Very willing to invite the person)\""],\""required\"":true}]"", ""task_unique_trial"": 50, ""task_name"": ""interview decision"", ""trial_index"": 53, ""isRepeat"": 0}"
A2S75O867RJG0I:37UEWGM5HVFSNE2MEBYQVXB1JWA1RD,54,1543350738243,"{""rt"": 3911, ""trial_type"": ""face-likert-amanda"", ""debug_mode"": ""live"", ""task_type"": ""face trials"", ""responses"": ""{\""Q0\"":2}"", ""task_payment"": 1.2, ""task_version"": 2, ""internal_node_id"": ""0.0-10.0-0.0-4.0"", ""time_elapsed"": 361913, ""imgName"": ""/static/images/2kfaces/Google_1_Gertrude Bayne_11_oval.jpg"", ""questions"": ""[{\""prompt\"":\""<p>How much would you like to invite this person for a job interview? Rate from 1-9</p>\"",\""labels\"":[\""1 <br/>(Completely unwilling to invite the person)\"",\""2\"",\""3\"",\""4\"",\""5\"",\""6\"",\""7\"",\""8\"",\""9  <br/>(Very willing to invite the person)\""],\""required\"":true}]"", ""task_unique_trial"": 50, ""task_name"": ""interview decision"", ""trial_index"": 54, ""isRepeat"": 0}"
A2S75O867RJG0I:37UEWGM5HVFSNE2MEBYQVXB1JWA1RD,55,1543350742685,"{""rt"": 4440, ""trial_type"": ""face-likert-amanda"", ""debug_mode"": ""live"", ""task_type"": ""face trials"", ""responses"": ""{\""Q0\"":7}"", ""task_payment"": 1.2, ""task_version"": 2, ""internal_node_id"": ""0.0-10.0-0.0-5.0"", ""time_elapsed"": 366354, ""imgName"": ""/static/images/2kfaces/Google_1_Russell Gillam_17_oval.jpg"", ""questions"": ""[{\""prompt\"":\""<p>How much would you like to invite this person for a job interview? Rate from 1-9</p>\"",\""labels\"":[\""1 <br/>(Completely unwilling to invite the person)\"",\""2\"",\""3\"",\""4\"",\""5\"",\""6\"",\""7\"",\""8\"",\""9  <br/>(Very willing to invite the person)\""],\""required\"":true}]"", ""task_unique_trial"": 50, ""task_name"": ""interview decision"", ""trial_index"": 55, ""isRepeat"": 0}"
A2S75O867RJG0I:37UEWGM5HVFSNE2MEBYQVXB1JWA1RD,56,1543350747685,"{""rt"": 4999, ""trial_type"": ""face-likert-amanda"", ""debug_mode"": ""live"", ""task_type"": ""face trials"", ""responses"": ""{\""Q0\"":3}"", ""task_payment"": 1.2, ""task_version"": 2, ""internal_node_id"": ""0.0-10.0-0.0-6.0"", ""time_elapsed"": 371355, ""imgName"": ""/static/images/2kfaces/Google_1_Antonio Benn_12_oval.jpg"", ""questions"": ""[{\""prompt\"":\""<p>How much would you like to invite this person for a job interview? Rate from 1-9</p>\"",\""labels\"":[\""1 <br/>(Completely unwilling to invite the person)\"",\""2\"",\""3\"",\""4\"",\""5\"",\""6\"",\""7\"",\""8\"",\""9  <br/>(Very willing to invite the person)\""],\""required\"":true}]"", ""task_unique_trial"": 50, ""task_name"": ""interview decision"", ""trial_index"": 56, ""isRepeat"": 0}"
A2S75O867RJG0I:37UEWGM5HVFSNE2MEBYQVXB1JWA1RD,57,1543350752615,"{""rt"": 4929, ""trial_type"": ""face-likert-amanda"", ""debug_mode"": ""live"", ""task_type"": ""face trials"", ""responses"": ""{\""Q0\"":2}"", ""task_payment"": 1.2, ""task_version"": 2, ""internal_node_id"": ""0.0-10.0-0.0-7.0"", ""time_elapsed"": 376285, ""imgName"": ""/static/images/2kfaces/Google_1_Samuel Goff_1_oval.jpg"", ""questions"": ""[{\""prompt\"":\""<p>How much would you like to invite this person for a job interview? Rate from 1-9</p>\"",\""labels\"":[\""1 <br/>(Completely unwilling to invite the person)\"",\""2\"",\""3\"",\""4\"",\""5\"",\""6\"",\""7\"",\""8\"",\""9  <br/>(Very willing to invite the person)\""],\""required\"":true}]"", ""task_unique_trial"": 50, ""task_name"": ""interview decision"", ""trial_index"": 57, ""isRepeat"": 0}"
A2S75O867RJG0I:37UEWGM5HVFSNE2MEBYQVXB1JWA1RD,58,1543350757902,"{""rt"": 5286, ""trial_type"": ""face-likert-amanda"", ""debug_mode"": ""live"", ""task_type"": ""face trials"", ""responses"": ""{\""Q0\"":8}"", ""task_payment"": 1.2, ""task_version"": 2, ""internal_node_id"": ""0.0-10.0-0.0-8.0"", ""time_elapsed"": 381572, ""imgName"": ""/static/images/2kfaces/Google_1_Ryan Marvel_15_oval.jpg"", ""questions"": ""[{\""prompt\"":\""<p>How much would you like to invite this person for a job interview? Rate from 1-9</p>\"",\""labels\"":[\""1 <br/>(Completely unwilling to invite the person)\"",\""2\"",\""3\"",\""4\"",\""5\"",\""6\"",\""7\"",\""8\"",\""9  <br/>(Very willing to invite the person)\""],\""required\"":true}]"", ""task_unique_trial"": 50, ""task_name"": ""interview decision"", ""trial_index"": 58, ""isRepeat"": 0}"
A2S75O867RJG0I:37UEWGM5HVFSNE2MEBYQVXB1JWA1RD,59,1543350763470,"{""rt"": 5566, ""trial_type"": ""face-likert-amanda"", ""debug_mode"": ""live"", ""task_type"": ""face trials"", ""responses"": ""{\""Q0\"":8}"", ""task_payment"": 1.2, ""task_version"": 2, ""internal_node_id"": ""0.0-10.0-0.0-9.0"", ""time_elapsed"": 387140, ""imgName"": ""/static/images/2kfaces/Google_1_Alma Poor_7_oval.jpg"", ""questions"": ""[{\""prompt\"":\""<p>How much would you like to invite this person for a job interview? Rate from 1-9</p>\"",\""labels\"":[\""1 <br/>(Completely unwilling to invite the person)\"",\""2\"",\""3\"",\""4\"",\""5\"",\""6\"",\""7\"",\""8\"",\""9  <br/>(Very willing to invite the person)\""],\""required\"":true}]"", ""task_unique_trial"": 50, ""task_name"": ""interview decision"", ""trial_index"": 59, ""isRepeat"": 0}"
A2S75O867RJG0I:37UEWGM5HVFSNE2MEBYQVXB1JWA1RD,60,1543350764472,"{""rt"": null, ""trial_type"": ""html-keyboard-response"", ""task_unique_trial"": 50, ""stimulus"": ""<p>Good job!</p>"", ""task_version"": 2, ""internal_node_id"": ""0.0-10.0-1.0"", ""task_payment"": 1.2, ""time_elapsed"": 388142, ""debug_mode"": ""live"", ""key_press"": null, ""task_name"": ""interview decision"", ""trial_index"": 60}"
A2S75O867RJG0I:37UEWGM5HVFSNE2MEBYQVXB1JWA1RD,61,1543350769473,"{""rt"": null, ""trial_type"": ""html-keyboard-response"", ""task_unique_trial"": 50, ""stimulus"": ""<p>Enjoy a 5 seconds break :)</p>"", ""task_version"": 2, ""internal_node_id"": ""0.0-11.0"", ""task_payment"": 1.2, ""time_elapsed"": 393143, ""debug_mode"": ""live"", ""key_press"": null, ""task_name"": ""interview decision"", ""trial_index"": 61}"
A2S75O867RJG0I:37UEWGM5HVFSNE2MEBYQVXB1JWA1RD,62,1543350774228,"{""rt"": 4754, ""trial_type"": ""face-likert-amanda"", ""debug_mode"": ""live"", ""task_type"": ""empty face"", ""responses"": ""{\""Q0\"":4}"", ""task_payment"": 1.2, ""task_version"": 2, ""internal_node_id"": ""0.0-12.0"", ""time_elapsed"": 397898, ""imgName"": ""/static/images/faces/empty-image-1.jpg"", ""questions"": ""[{\""prompt\"":\""<p>How much would you like to invite this person for a job interview? Rate from 1-9</p>\"",\""labels\"":[\""1 <br/>(Completely unwilling to invite the person)\"",\""2\"",\""3\"",\""4\"",\""5\"",\""6\"",\""7\"",\""8\"",\""9  <br/>(Very willing to invite the person)\""],\""required\"":true}]"", ""task_unique_trial"": 50, ""task_name"": ""interview decision"", ""trial_index"": 62, ""isRepeat"": 1}"
A2S75O867RJG0I:37UEWGM5HVFSNE2MEBYQVXB1JWA1RD,63,1543350778682,"{""rt"": 4452, ""trial_type"": ""face-likert-amanda"", ""debug_mode"": ""live"", ""task_type"": ""face trials"", ""responses"": ""{\""Q0\"":7}"", ""task_payment"": 1.2, ""task_version"": 2, ""internal_node_id"": ""0.0-13.0-0.0-0.0"", ""time_elapsed"": 402352, ""imgName"": ""/static/images/2kfaces/Google_1_Cheryl Griffin_15_oval.jpg"", ""questions"": ""[{\""prompt\"":\""<p>How much would you like to invite this person for a job interview? Rate from 1-9</p>\"",\""labels\"":[\""1 <br/>(Completely unwilling to invite the person)\"",\""2\"",\""3\"",\""4\"",\""5\"",\""6\"",\""7\"",\""8\"",\""9  <br/>(Very willing to invite the person)\""],\""required\"":true}]"", ""task_unique_trial"": 50, ""task_name"": ""interview decision"", ""trial_index"": 63, ""isRepeat"": 1}"
A2S75O867RJG0I:37UEWGM5HVFSNE2MEBYQVXB1JWA1RD,64,1543350782581,"{""rt"": 3897, ""trial_type"": ""face-likert-amanda"", ""debug_mode"": ""live"", ""task_type"": ""face trials"", ""responses"": ""{\""Q0\"":2}"", ""task_payment"": 1.2, ""task_version"": 2, ""internal_node_id"": ""0.0-13.0-0.0-1.0"", ""time_elapsed"": 406250, ""imgName"": ""/static/images/2kfaces/Google_1_Samuel Goff_1_oval.jpg"", ""questions"": ""[{\""prompt\"":\""<p>How much would you like to invite this person for a job interview? Rate from 1-9</p>\"",\""labels\"":[\""1 <br/>(Completely unwilling to invite the person)\"",\""2\"",\""3\"",\""4\"",\""5\"",\""6\"",\""7\"",\""8\"",\""9  <br/>(Very willing to invite the person)\""],\""required\"":true}]"", ""task_unique_trial"": 50, ""task_name"": ""interview decision"", ""trial_index"": 64, ""isRepeat"": 1}"
A2S75O867RJG0I:37UEWGM5HVFSNE2MEBYQVXB1JWA1RD,65,1543350788586,"{""rt"": 6003, ""trial_type"": ""face-likert-amanda"", ""debug_mode"": ""live"", ""task_type"": ""face trials"", ""responses"": ""{\""Q0\"":4}"", ""task_payment"": 1.2, ""task_version"": 2, ""internal_node_id"": ""0.0-13.0-0.0-2.0"", ""time_elapsed"": 412256, ""imgName"": ""/static/images/2kfaces/Google_1_Donna Asberry_5_oval.jpg"", ""questions"": ""[{\""prompt\"":\""<p>How much would you like to invite this person for a job interview? Rate from 1-9</p>\"",\""labels\"":[\""1 <br/>(Completely unwilling to invite the person)\"",\""2\"",\""3\"",\""4\"",\""5\"",\""6\"",\""7\"",\""8\"",\""9  <br/>(Very willing to invite the person)\""],\""required\"":true}]"", ""task_unique_trial"": 50, ""task_name"": ""interview decision"", ""trial_index"": 65, ""isRepeat"": 1}"
A2S75O867RJG0I:37UEWGM5HVFSNE2MEBYQVXB1JWA1RD,66,1543350794534,"{""rt"": 5946, ""trial_type"": ""face-likert-amanda"", ""debug_mode"": ""live"", ""task_type"": ""face trials"", ""responses"": ""{\""Q0\"":0}"", ""task_payment"": 1.2, ""task_version"": 2, ""internal_node_id"": ""0.0-13.0-0.0-3.0"", ""time_elapsed"": 418204, ""imgName"": ""/static/images/2kfaces/Google_1_Claudia Rohrer_13_oval.jpg"", ""questions"": ""[{\""prompt\"":\""<p>How much would you like to invite this person for a job interview? Rate from 1-9</p>\"",\""labels\"":[\""1 <br/>(Completely unwilling to invite the person)\"",\""2\"",\""3\"",\""4\"",\""5\"",\""6\"",\""7\"",\""8\"",\""9  <br/>(Very willing to invite the person)\""],\""required\"":true}]"", ""task_unique_trial"": 50, ""task_name"": ""interview decision"", ""trial_index"": 66, ""isRepeat"": 1}"
A2S75O867RJG0I:37UEWGM5HVFSNE2MEBYQVXB1JWA1RD,67,1543350800378,"{""rt"": 5844, ""trial_type"": ""face-likert-amanda"", ""debug_mode"": ""live"", ""task_type"": ""face trials"", ""responses"": ""{\""Q0\"":6}"", ""task_payment"": 1.2, ""task_version"": 2, ""internal_node_id"": ""0.0-13.0-0.0-4.0"", ""time_elapsed"": 424048, ""imgName"": ""/static/images/2kfaces/Google_1_Erika Fletcher_1_oval.jpg"", ""questions"": ""[{\""prompt\"":\""<p>How much would you like to invite this person for a job interview? Rate from 1-9</p>\"",\""labels\"":[\""1 <br/>(Completely unwilling to invite the person)\"",\""2\"",\""3\"",\""4\"",\""5\"",\""6\"",\""7\"",\""8\"",\""9  <br/>(Very willing to invite the person)\""],\""required\"":true}]"", ""task_unique_trial"": 50, ""task_name"": ""interview decision"", ""trial_index"": 67, ""isRepeat"": 1}"
A2S75O867RJG0I:37UEWGM5HVFSNE2MEBYQVXB1JWA1RD,68,1543350804650,"{""rt"": 4270, ""trial_type"": ""face-likert-amanda"", ""debug_mode"": ""live"", ""task_type"": ""face trials"", ""responses"": ""{\""Q0\"":5}"", ""task_payment"": 1.2, ""task_version"": 2, ""internal_node_id"": ""0.0-13.0-0.0-5.0"", ""time_elapsed"": 428319, ""imgName"": ""/static/images/2kfaces/Google_1_Eric Osuna_3_oval.jpg"", ""questions"": ""[{\""prompt\"":\""<p>How much would you like to invite this person for a job interview? Rate from 1-9</p>\"",\""labels\"":[\""1 <br/>(Completely unwilling to invite the person)\"",\""2\"",\""3\"",\""4\"",\""5\"",\""6\"",\""7\"",\""8\"",\""9  <br/>(Very willing to invite the person)\""],\""required\"":true}]"", ""task_unique_trial"": 50, ""task_name"": ""interview decision"", ""trial_index"": 68, ""isRepeat"": 1}"
A2S75O867RJG0I:37UEWGM5HVFSNE2MEBYQVXB1JWA1RD,69,1543350808454,"{""rt"": 3801, ""trial_type"": ""face-likert-amanda"", ""debug_mode"": ""live"", ""task_type"": ""face trials"", ""responses"": ""{\""Q0\"":3}"", ""task_payment"": 1.2, ""task_version"": 2, ""internal_node_id"": ""0.0-13.0-0.0-6.0"", ""time_elapsed"": 432124, ""imgName"": ""/static/images/2kfaces/Google_1_Shelley Lund_5_oval.jpg"", ""questions"": ""[{\""prompt\"":\""<p>How much would you like to invite this person for a job interview? Rate from 1-9</p>\"",\""labels\"":[\""1 <br/>(Completely unwilling to invite the person)\"",\""2\"",\""3\"",\""4\"",\""5\"",\""6\"",\""7\"",\""8\"",\""9  <br/>(Very willing to invite the person)\""],\""required\"":true}]"", ""task_unique_trial"": 50, ""task_name"": ""interview decision"", ""trial_index"": 69, ""isRepeat"": 1}"
A2S75O867RJG0I:37UEWGM5HVFSNE2MEBYQVXB1JWA1RD,70,1543350813000,"{""rt"": 4545, ""trial_type"": ""face-likert-amanda"", ""debug_mode"": ""live"", ""task_type"": ""face trials"", ""responses"": ""{\""Q0\"":5}"", ""task_payment"": 1.2, ""task_version"": 2, ""internal_node_id"": ""0.0-13.0-0.0-7.0"", ""time_elapsed"": 436670, ""imgName"": ""/static/images/2kfaces/Google_1_Gary Nance_3_oval.jpg"", ""questions"": ""[{\""prompt\"":\""<p>How much would you like to invite this person for a job interview? Rate from 1-9</p>\"",\""labels\"":[\""1 <br/>(Completely unwilling to invite the person)\"",\""2\"",\""3\"",\""4\"",\""5\"",\""6\"",\""7\"",\""8\"",\""9  <br/>(Very willing to invite the person)\""],\""required\"":true}]"", ""task_unique_trial"": 50, ""task_name"": ""interview decision"", ""trial_index"": 70, ""isRepeat"": 1}"
A2S75O867RJG0I:37UEWGM5HVFSNE2MEBYQVXB1JWA1RD,71,1543350817501,"{""rt"": 4499, ""trial_type"": ""face-likert-amanda"", ""debug_mode"": ""live"", ""task_type"": ""face trials"", ""responses"": ""{\""Q0\"":6}"", ""task_payment"": 1.2, ""task_version"": 2, ""internal_node_id"": ""0.0-13.0-0.0-8.0"", ""time_elapsed"": 441171, ""imgName"": ""/static/images/2kfaces/Google_1_Sarah Woodcock_3_oval.jpg"", ""questions"": ""[{\""prompt\"":\""<p>How much would you like to invite this person for a job interview? Rate from 1-9</p>\"",\""labels\"":[\""1 <br/>(Completely unwilling to invite the person)\"",\""2\"",\""3\"",\""4\"",\""5\"",\""6\"",\""7\"",\""8\"",\""9  <br/>(Very willing to invite the person)\""],\""required\"":true}]"", ""task_unique_trial"": 50, ""task_name"": ""interview decision"", ""trial_index"": 71, ""isRepeat"": 1}"
A2S75O867RJG0I:37UEWGM5HVFSNE2MEBYQVXB1JWA1RD,72,1543350821091,"{""rt"": 3588, ""trial_type"": ""face-likert-amanda"", ""debug_mode"": ""live"", ""task_type"": ""face trials"", ""responses"": ""{\""Q0\"":3}"", ""task_payment"": 1.2, ""task_version"": 2, ""internal_node_id"": ""0.0-13.0-0.0-9.0"", ""time_elapsed"": 444761, ""imgName"": ""/static/images/2kfaces/Google_1_Antonio Benn_12_oval.jpg"", ""questions"": ""[{\""prompt\"":\""<p>How much would you like to invite this person for a job interview? Rate from 1-9</p>\"",\""labels\"":[\""1 <br/>(Completely unwilling to invite the person)\"",\""2\"",\""3\"",\""4\"",\""5\"",\""6\"",\""7\"",\""8\"",\""9  <br/>(Very willing to invite the person)\""],\""required\"":true}]"", ""task_unique_trial"": 50, ""task_name"": ""interview decision"", ""trial_index"": 72, ""isRepeat"": 1}"
A2S75O867RJG0I:37UEWGM5HVFSNE2MEBYQVXB1JWA1RD,73,1543350823093,"{""rt"": null, ""trial_type"": ""html-keyboard-response"", ""task_unique_trial"": 50, ""stimulus"": ""<p>Good job!</p>"", ""task_version"": 2, ""internal_node_id"": ""0.0-13.0-1.0"", ""task_payment"": 1.2, ""time_elapsed"": 446763, ""debug_mode"": ""live"", ""key_press"": null, ""task_name"": ""interview decision"", ""trial_index"": 73}"
A2S75O867RJG0I:37UEWGM5HVFSNE2MEBYQVXB1JWA1RD,74,1543350828037,"{""rt"": 4943, ""trial_type"": ""face-likert-amanda"", ""debug_mode"": ""live"", ""task_type"": ""face trials"", ""responses"": ""{\""Q0\"":6}"", ""task_payment"": 1.2, ""task_version"": 2, ""internal_node_id"": ""0.0-14.0-0.0-0.0"", ""time_elapsed"": 451707, ""imgName"": ""/static/images/2kfaces/Google_1_Marjorie Rule_3_oval.jpg"", ""questions"": ""[{\""prompt\"":\""<p>How much would you like to invite this person for a job interview? Rate from 1-9</p>\"",\""labels\"":[\""1 <br/>(Completely unwilling to invite the person)\"",\""2\"",\""3\"",\""4\"",\""5\"",\""6\"",\""7\"",\""8\"",\""9  <br/>(Very willing to invite the person)\""],\""required\"":true}]"", ""task_unique_trial"": 50, ""task_name"": ""interview decision"", ""trial_index"": 74, ""isRepeat"": 1}"
A2S75O867RJG0I:37UEWGM5HVFSNE2MEBYQVXB1JWA1RD,75,1543350831469,"{""rt"": 3432, ""trial_type"": ""face-likert-amanda"", ""debug_mode"": ""live"", ""task_type"": ""face trials"", ""responses"": ""{\""Q0\"":3}"", ""task_payment"": 1.2, ""task_version"": 2, ""internal_node_id"": ""0.0-14.0-0.0-1.0"", ""time_elapsed"": 455139, ""imgName"": ""/static/images/2kfaces/Google_1_Gregory Arriola_3_oval.jpg"", ""questions"": ""[{\""prompt\"":\""<p>How much would you like to invite this person for a job interview? Rate from 1-9</p>\"",\""labels\"":[\""1 <br/>(Completely unwilling to invite the person)\"",\""2\"",\""3\"",\""4\"",\""5\"",\""6\"",\""7\"",\""8\"",\""9  <br/>(Very willing to invite the person)\""],\""required\"":true}]"", ""task_unique_trial"": 50, ""task_name"": ""interview decision"", ""trial_index"": 75, ""isRepeat"": 1}"
A2S75O867RJG0I:37UEWGM5HVFSNE2MEBYQVXB1JWA1RD,76,1543350835412,"{""rt"": 3941, ""trial_type"": ""face-likert-amanda"", ""debug_mode"": ""live"", ""task_type"": ""face trials"", ""responses"": ""{\""Q0\"":7}"", ""task_payment"": 1.2, ""task_version"": 2, ""internal_node_id"": ""0.0-14.0-0.0-2.0"", ""time_elapsed"": 459082, ""imgName"": ""/static/images/2kfaces/Google_1_Russell Gillam_17_oval.jpg"", ""questions"": ""[{\""prompt\"":\""<p>How much would you like to invite this person for a job interview? Rate from 1-9</p>\"",\""labels\"":[\""1 <br/>(Completely unwilling to invite the person)\"",\""2\"",\""3\"",\""4\"",\""5\"",\""6\"",\""7\"",\""8\"",\""9  <br/>(Very willing to invite the person)\""],\""required\"":true}]"", ""task_unique_trial"": 50, ""task_name"": ""interview decision"", ""trial_index"": 76, ""isRepeat"": 1}"
A2S75O867RJG0I:37UEWGM5HVFSNE2MEBYQVXB1JWA1RD,77,1543350840151,"{""rt"": 4737, ""trial_type"": ""face-likert-amanda"", ""debug_mode"": ""live"", ""task_type"": ""face trials"", ""responses"": ""{\""Q0\"":4}"", ""task_payment"": 1.2, ""task_version"": 2, ""internal_node_id"": ""0.0-14.0-0.0-3.0"", ""time_elapsed"": 463821, ""imgName"": ""/static/images/2kfaces/Google_1_Eva Kirkman_15_oval.jpg"", ""questions"": ""[{\""prompt\"":\""<p>How much would you like to invite this person for a job interview? Rate from 1-9</p>\"",\""labels\"":[\""1 <br/>(Completely unwilling to invite the person)\"",\""2\"",\""3\"",\""4\"",\""5\"",\""6\"",\""7\"",\""8\"",\""9  <br/>(Very willing to invite the person)\""],\""required\"":true}]"", ""task_unique_trial"": 50, ""task_name"": ""interview decision"", ""trial_index"": 77, ""isRepeat"": 1}"
A2S75O867RJG0I:37UEWGM5HVFSNE2MEBYQVXB1JWA1RD,78,1543350844723,"{""rt"": 4570, ""trial_type"": ""face-likert-amanda"", ""debug_mode"": ""live"", ""task_type"": ""face trials"", ""responses"": ""{\""Q0\"":7}"", ""task_payment"": 1.2, ""task_version"": 2, ""internal_node_id"": ""0.0-14.0-0.0-4.0"", ""time_elapsed"": 468393, ""imgName"": ""/static/images/2kfaces/Google_1_Henry Gumm_19_oval.jpg"", ""questions"": ""[{\""prompt\"":\""<p>How much would you like to invite this person for a job interview? Rate from 1-9</p>\"",\""labels\"":[\""1 <br/>(Completely unwilling to invite the person)\"",\""2\"",\""3\"",\""4\"",\""5\"",\""6\"",\""7\"",\""8\"",\""9  <br/>(Very willing to invite the person)\""],\""required\"":true}]"", ""task_unique_trial"": 50, ""task_name"": ""interview decision"", ""trial_index"": 78, ""isRepeat"": 1}"
A2S75O867RJG0I:37UEWGM5HVFSNE2MEBYQVXB1JWA1RD,79,1543350849170,"{""rt"": 4446, ""trial_type"": ""face-likert-amanda"", ""debug_mode"": ""live"", ""task_type"": ""face trials"", ""responses"": ""{\""Q0\"":2}"", ""task_payment"": 1.2, ""task_version"": 2, ""internal_node_id"": ""0.0-14.0-0.0-5.0"", ""time_elapsed"": 472840, ""imgName"": ""/static/images/2kfaces/Google_1_Vera Becker_5_oval.jpg"", ""questions"": ""[{\""prompt\"":\""<p>How much would you like to invite this person for a job interview? Rate from 1-9</p>\"",\""labels\"":[\""1 <br/>(Completely unwilling to invite the person)\"",\""2\"",\""3\"",\""4\"",\""5\"",\""6\"",\""7\"",\""8\"",\""9  <br/>(Very willing to invite the person)\""],\""required\"":true}]"", ""task_unique_trial"": 50, ""task_name"": ""interview decision"", ""trial_index"": 79, ""isRepeat"": 1}"
A2S75O867RJG0I:37UEWGM5HVFSNE2MEBYQVXB1JWA1RD,80,1543350853245,"{""rt"": 4073, ""trial_type"": ""face-likert-amanda"", ""debug_mode"": ""live"", ""task_type"": ""face trials"", ""responses"": ""{\""Q0\"":3}"", ""task_payment"": 1.2, ""task_version"": 2, ""internal_node_id"": ""0.0-14.0-0.0-6.0"", ""time_elapsed"": 476914, ""imgName"": ""/static/images/2kfaces/Google_1_Samuel Paschal_17_oval.jpg"", ""questions"": ""[{\""prompt\"":\""<p>How much would you like to invite this person for a job interview? Rate from 1-9</p>\"",\""labels\"":[\""1 <br/>(Completely unwilling to invite the person)\"",\""2\"",\""3\"",\""4\"",\""5\"",\""6\"",\""7\"",\""8\"",\""9  <br/>(Very willing to invite the person)\""],\""required\"":true}]"", ""task_unique_trial"": 50, ""task_name"": ""interview decision"", ""trial_index"": 80, ""isRepeat"": 1}"
A2S75O867RJG0I:37UEWGM5HVFSNE2MEBYQVXB1JWA1RD,81,1543350856762,"{""rt"": 3517, ""trial_type"": ""face-likert-amanda"", ""debug_mode"": ""live"", ""task_type"": ""face trials"", ""responses"": ""{\""Q0\"":1}"", ""task_payment"": 1.2, ""task_version"": 2, ""internal_node_id"": ""0.0-14.0-0.0-7.0"", ""time_elapsed"": 480432, ""imgName"": ""/static/images/2kfaces/Google_1_Gloria Canada_13_oval.jpg"", ""questions"": ""[{\""prompt\"":\""<p>How much would you like to invite this person for a job interview? Rate from 1-9</p>\"",\""labels\"":[\""1 <br/>(Completely unwilling to invite the person)\"",\""2\"",\""3\"",\""4\"",\""5\"",\""6\"",\""7\"",\""8\"",\""9  <br/>(Very willing to invite the person)\""],\""required\"":true}]"", ""task_unique_trial"": 50, ""task_name"": ""interview decision"", ""trial_index"": 81, ""isRepeat"": 1}"
A2S75O867RJG0I:37UEWGM5HVFSNE2MEBYQVXB1JWA1RD,82,1543350861303,"{""rt"": 4540, ""trial_type"": ""face-likert-amanda"", ""debug_mode"": ""live"", ""task_type"": ""face trials"", ""responses"": ""{\""Q0\"":5}"", ""task_payment"": 1.2, ""task_version"": 2, ""internal_node_id"": ""0.0-14.0-0.0-8.0"", ""time_elapsed"": 484973, ""imgName"": ""/static/images/2kfaces/Google_1_Tina Middleton_7_oval.jpg"", ""questions"": ""[{\""prompt\"":\""<p>How much would you like to invite this person for a job interview? Rate from 1-9</p>\"",\""labels\"":[\""1 <br/>(Completely unwilling to invite the person)\"",\""2\"",\""3\"",\""4\"",\""5\"",\""6\"",\""7\"",\""8\"",\""9  <br/>(Very willing to invite the person)\""],\""required\"":true}]"", ""task_unique_trial"": 50, ""task_name"": ""interview decision"", ""trial_index"": 82, ""isRepeat"": 1}"
A2S75O867RJG0I:37UEWGM5HVFSNE2MEBYQVXB1JWA1RD,83,1543350865019,"{""rt"": 3714, ""trial_type"": ""face-likert-amanda"", ""debug_mode"": ""live"", ""task_type"": ""face trials"", ""responses"": ""{\""Q0\"":2}"", ""task_payment"": 1.2, ""task_version"": 2, ""internal_node_id"": ""0.0-14.0-0.0-9.0"", ""time_elapsed"": 488689, ""imgName"": ""/static/images/2kfaces/Google_1_Florence Melton_1_oval.jpg"", ""questions"": ""[{\""prompt\"":\""<p>How much would you like to invite this person for a job interview? Rate from 1-9</p>\"",\""labels\"":[\""1 <br/>(Completely unwilling to invite the person)\"",\""2\"",\""3\"",\""4\"",\""5\"",\""6\"",\""7\"",\""8\"",\""9  <br/>(Very willing to invite the person)\""],\""required\"":true}]"", ""task_unique_trial"": 50, ""task_name"": ""interview decision"", ""trial_index"": 83, ""isRepeat"": 1}"
A2S75O867RJG0I:37UEWGM5HVFSNE2MEBYQVXB1JWA1RD,84,1543350866022,"{""rt"": null, ""trial_type"": ""html-keyboard-response"", ""task_unique_trial"": 50, ""stimulus"": ""<p>Good job!</p>"", ""task_version"": 2, ""internal_node_id"": ""0.0-14.0-1.0"", ""task_payment"": 1.2, ""time_elapsed"": 489692, ""debug_mode"": ""live"", ""key_press"": null, ""task_name"": ""interview decision"", ""trial_index"": 84}"
A2S75O867RJG0I:37UEWGM5HVFSNE2MEBYQVXB1JWA1RD,85,1543350869830,"{""rt"": 3805, ""trial_type"": ""face-likert-amanda"", ""debug_mode"": ""live"", ""task_type"": ""face trials"", ""responses"": ""{\""Q0\"":1}"", ""task_payment"": 1.2, ""task_version"": 2, ""internal_node_id"": ""0.0-15.0-0.0-0.0"", ""time_elapsed"": 493499, ""imgName"": ""/static/images/2kfaces/Bryan_Shanklin_9_oval.jpg"", ""questions"": ""[{\""prompt\"":\""<p>How much would you like to invite this person for a job interview? Rate from 1-9</p>\"",\""labels\"":[\""1 <br/>(Completely unwilling to invite the person)\"",\""2\"",\""3\"",\""4\"",\""5\"",\""6\"",\""7\"",\""8\"",\""9  <br/>(Very willing to invite the person)\""],\""required\"":true}]"", ""task_unique_trial"": 50, ""task_name"": ""interview decision"", ""trial_index"": 85, ""isRepeat"": 1}"
A2S75O867RJG0I:37UEWGM5HVFSNE2MEBYQVXB1JWA1RD,86,1543350873416,"{""rt"": 3585, ""trial_type"": ""face-likert-amanda"", ""debug_mode"": ""live"", ""task_type"": ""face trials"", ""responses"": ""{\""Q0\"":7}"", ""task_payment"": 1.2, ""task_version"": 2, ""internal_node_id"": ""0.0-15.0-0.0-1.0"", ""time_elapsed"": 497086, ""imgName"": ""/static/images/2kfaces/Google_1_Ernest Crump_3_oval.jpg"", ""questions"": ""[{\""prompt\"":\""<p>How much would you like to invite this person for a job interview? Rate from 1-9</p>\"",\""labels\"":[\""1 <br/>(Completely unwilling to invite the person)\"",\""2\"",\""3\"",\""4\"",\""5\"",\""6\"",\""7\"",\""8\"",\""9  <br/>(Very willing to invite the person)\""],\""required\"":true}]"", ""task_unique_trial"": 50, ""task_name"": ""interview decision"", ""trial_index"": 86, ""isRepeat"": 1}"
A2S75O867RJG0I:37UEWGM5HVFSNE2MEBYQVXB1JWA1RD,87,1543350878288,"{""rt"": 4871, ""trial_type"": ""face-likert-amanda"", ""debug_mode"": ""live"", ""task_type"": ""face trials"", ""responses"": ""{\""Q0\"":0}"", ""task_payment"": 1.2, ""task_version"": 2, ""internal_node_id"": ""0.0-15.0-0.0-2.0"", ""time_elapsed"": 501958, ""imgName"": ""/static/images/2kfaces/Google_1_Frank Whitehouse_3_oval.jpg"", ""questions"": ""[{\""prompt\"":\""<p>How much would you like to invite this person for a job interview? Rate from 1-9</p>\"",\""labels\"":[\""1 <br/>(Completely unwilling to invite the person)\"",\""2\"",\""3\"",\""4\"",\""5\"",\""6\"",\""7\"",\""8\"",\""9  <br/>(Very willing to invite the person)\""],\""required\"":true}]"", ""task_unique_trial"": 50, ""task_name"": ""interview decision"", ""trial_index"": 87, ""isRepeat"": 1}"
A2S75O867RJG0I:37UEWGM5HVFSNE2MEBYQVXB1JWA1RD,88,1543350882181,"{""rt"": 3891, ""trial_type"": ""face-likert-amanda"", ""debug_mode"": ""live"", ""task_type"": ""face trials"", ""responses"": ""{\""Q0\"":6}"", ""task_payment"": 1.2, ""task_version"": 2, ""internal_node_id"": ""0.0-15.0-0.0-3.0"", ""time_elapsed"": 505851, ""imgName"": ""/static/images/2kfaces/Google_1_Kathleen Sartain_1_oval.jpg"", ""questions"": ""[{\""prompt\"":\""<p>How much would you like to invite this person for a job interview? Rate from 1-9</p>\"",\""labels\"":[\""1 <br/>(Completely unwilling to invite the person)\"",\""2\"",\""3\"",\""4\"",\""5\"",\""6\"",\""7\"",\""8\"",\""9  <br/>(Very willing to invite the person)\""],\""required\"":true}]"", ""task_unique_trial"": 50, ""task_name"": ""interview decision"", ""trial_index"": 88, ""isRepeat"": 1}"
A2S75O867RJG0I:37UEWGM5HVFSNE2MEBYQVXB1JWA1RD,89,1543350886028,"{""rt"": 3845, ""trial_type"": ""face-likert-amanda"", ""debug_mode"": ""live"", ""task_type"": ""face trials"", ""responses"": ""{\""Q0\"":3}"", ""task_payment"": 1.2, ""task_version"": 2, ""internal_node_id"": ""0.0-15.0-0.0-4.0"", ""time_elapsed"": 509698, ""imgName"": ""/static/images/2kfaces/Google_1_Cindy Morehead_5_oval.jpg"", ""questions"": ""[{\""prompt\"":\""<p>How much would you like to invite this person for a job interview? Rate from 1-9</p>\"",\""labels\"":[\""1 <br/>(Completely unwilling to invite the person)\"",\""2\"",\""3\"",\""4\"",\""5\"",\""6\"",\""7\"",\""8\"",\""9  <br/>(Very willing to invite the person)\""],\""required\"":true}]"", ""task_unique_trial"": 50, ""task_name"": ""interview decision"", ""trial_index"": 89, ""isRepeat"": 1}"
A2S75O867RJG0I:37UEWGM5HVFSNE2MEBYQVXB1JWA1RD,90,1543350890540,"{""rt"": 4510, ""trial_type"": ""face-likert-amanda"", ""debug_mode"": ""live"", ""task_type"": ""face trials"", ""responses"": ""{\""Q0\"":1}"", ""task_payment"": 1.2, ""task_version"": 2, ""internal_node_id"": ""0.0-15.0-0.0-5.0"", ""time_elapsed"": 514210, ""imgName"": ""/static/images/2kfaces/Google_1_Louis Mceachern_7_oval.jpg"", ""questions"": ""[{\""prompt\"":\""<p>How much would you like to invite this person for a job interview? Rate from 1-9</p>\"",\""labels\"":[\""1 <br/>(Completely unwilling to invite the person)\"",\""2\"",\""3\"",\""4\"",\""5\"",\""6\"",\""7\"",\""8\"",\""9  <br/>(Very willing to invite the person)\""],\""required\"":true}]"", ""task_unique_trial"": 50, ""task_name"": ""interview decision"", ""trial_index"": 90, ""isRepeat"": 1}"
A2S75O867RJG0I:37UEWGM5HVFSNE2MEBYQVXB1JWA1RD,91,1543350894752,"{""rt"": 4212, ""trial_type"": ""face-likert-amanda"", ""debug_mode"": ""live"", ""task_type"": ""face trials"", ""responses"": ""{\""Q0\"":8}"", ""task_payment"": 1.2, ""task_version"": 2, ""internal_node_id"": ""0.0-15.0-0.0-6.0"", ""time_elapsed"": 518422, ""imgName"": ""/static/images/2kfaces/Google_1_Ryan Marvel_15_oval.jpg"", ""questions"": ""[{\""prompt\"":\""<p>How much would you like to invite this person for a job interview? Rate from 1-9</p>\"",\""labels\"":[\""1 <br/>(Completely unwilling to invite the person)\"",\""2\"",\""3\"",\""4\"",\""5\"",\""6\"",\""7\"",\""8\"",\""9  <br/>(Very willing to invite the person)\""],\""required\"":true}]"", ""task_unique_trial"": 50, ""task_name"": ""interview decision"", ""trial_index"": 91, ""isRepeat"": 1}"
A2S75O867RJG0I:37UEWGM5HVFSNE2MEBYQVXB1JWA1RD,92,1543350899996,"{""rt"": 5242, ""trial_type"": ""face-likert-amanda"", ""debug_mode"": ""live"", ""task_type"": ""face trials"", ""responses"": ""{\""Q0\"":6}"", ""task_payment"": 1.2, ""task_version"": 2, ""internal_node_id"": ""0.0-15.0-0.0-7.0"", ""time_elapsed"": 523666, ""imgName"": ""/static/images/2kfaces/Google_1_Ronald Driver_19_oval.jpg"", ""questions"": ""[{\""prompt\"":\""<p>How much would you like to invite this person for a job interview? Rate from 1-9</p>\"",\""labels\"":[\""1 <br/>(Completely unwilling to invite the person)\"",\""2\"",\""3\"",\""4\"",\""5\"",\""6\"",\""7\"",\""8\"",\""9  <br/>(Very willing to invite the person)\""],\""required\"":true}]"", ""task_unique_trial"": 50, ""task_name"": ""interview decision"", ""trial_index"": 92, ""isRepeat"": 1}"
A2S75O867RJG0I:37UEWGM5HVFSNE2MEBYQVXB1JWA1RD,93,1543350907085,"{""rt"": 7088, ""trial_type"": ""face-likert-amanda"", ""debug_mode"": ""live"", ""task_type"": ""face trials"", ""responses"": ""{\""Q0\"":8}"", ""task_payment"": 1.2, ""task_version"": 2, ""internal_node_id"": ""0.0-15.0-0.0-8.0"", ""time_elapsed"": 530755, ""imgName"": ""/static/images/2kfaces/Google_1_Alma Poor_7_oval.jpg"", ""questions"": ""[{\""prompt\"":\""<p>How much would you like to invite this person for a job interview? Rate from 1-9</p>\"",\""labels\"":[\""1 <br/>(Completely unwilling to invite the person)\"",\""2\"",\""3\"",\""4\"",\""5\"",\""6\"",\""7\"",\""8\"",\""9  <br/>(Very willing to invite the person)\""],\""required\"":true}]"", ""task_unique_trial"": 50, ""task_name"": ""interview decision"", ""trial_index"": 93, ""isRepeat"": 1}"
A2S75O867RJG0I:37UEWGM5HVFSNE2MEBYQVXB1JWA1RD,94,1543350912273,"{""rt"": 5186, ""trial_type"": ""face-likert-amanda"", ""debug_mode"": ""live"", ""task_type"": ""face trials"", ""responses"": ""{\""Q0\"":5}"", ""task_payment"": 1.2, ""task_version"": 2, ""internal_node_id"": ""0.0-15.0-0.0-9.0"", ""time_elapsed"": 535943, ""imgName"": ""/static/images/2kfaces/Google_1_Matthew Vanbuskirk_1_oval.jpg"", ""questions"": ""[{\""prompt\"":\""<p>How much would you like to invite this person for a job interview? Rate from 1-9</p>\"",\""labels\"":[\""1 <br/>(Completely unwilling to invite the person)\"",\""2\"",\""3\"",\""4\"",\""5\"",\""6\"",\""7\"",\""8\"",\""9  <br/>(Very willing to invite the person)\""],\""required\"":true}]"", ""task_unique_trial"": 50, ""task_name"": ""interview decision"", ""trial_index"": 94, ""isRepeat"": 1}"
A2S75O867RJG0I:37UEWGM5HVFSNE2MEBYQVXB1JWA1RD,95,1543350914275,"{""rt"": null, ""trial_type"": ""html-keyboard-response"", ""task_unique_trial"": 50, ""stimulus"": ""<p>Good job!</p>"", ""task_version"": 2, ""internal_node_id"": ""0.0-15.0-1.0"", ""task_payment"": 1.2, ""time_elapsed"": 537945, ""debug_mode"": ""live"", ""key_press"": null, ""task_name"": ""interview decision"", ""trial_index"": 95}"
A2S75O867RJG0I:37UEWGM5HVFSNE2MEBYQVXB1JWA1RD,96,1543350919019,"{""rt"": 4743, ""trial_type"": ""face-likert-amanda"", ""debug_mode"": ""live"", ""task_type"": ""face trials"", ""responses"": ""{\""Q0\"":2}"", ""task_payment"": 1.2, ""task_version"": 2, ""internal_node_id"": ""0.0-16.0-0.0-0.0"", ""time_elapsed"": 542689, ""imgName"": ""/static/images/2kfaces/Google_1_Norman Westfall_5_oval.jpg"", ""questions"": ""[{\""prompt\"":\""<p>How much would you like to invite this person for a job interview? Rate from 1-9</p>\"",\""labels\"":[\""1 <br/>(Completely unwilling to invite the person)\"",\""2\"",\""3\"",\""4\"",\""5\"",\""6\"",\""7\"",\""8\"",\""9  <br/>(Very willing to invite the person)\""],\""required\"":true}]"", ""task_unique_trial"": 50, ""task_name"": ""interview decision"", ""trial_index"": 96, ""isRepeat"": 1}"
A2S75O867RJG0I:37UEWGM5HVFSNE2MEBYQVXB1JWA1RD,97,1543350923735,"{""rt"": 4715, ""trial_type"": ""face-likert-amanda"", ""debug_mode"": ""live"", ""task_type"": ""face trials"", ""responses"": ""{\""Q0\"":7}"", ""task_payment"": 1.2, ""task_version"": 2, ""internal_node_id"": ""0.0-16.0-0.0-1.0"", ""time_elapsed"": 547405, ""imgName"": ""/static/images/2kfaces/Google_1_Steve Stamm_1_oval.jpg"", ""questions"": ""[{\""prompt\"":\""<p>How much would you like to invite this person for a job interview? Rate from 1-9</p>\"",\""labels\"":[\""1 <br/>(Completely unwilling to invite the person)\"",\""2\"",\""3\"",\""4\"",\""5\"",\""6\"",\""7\"",\""8\"",\""9  <br/>(Very willing to invite the person)\""],\""required\"":true}]"", ""task_unique_trial"": 50, ""task_name"": ""interview decision"", ""trial_index"": 97, ""isRepeat"": 1}"
A2S75O867RJG0I:37UEWGM5HVFSNE2MEBYQVXB1JWA1RD,98,1543350927641,"{""rt"": 3904, ""trial_type"": ""face-likert-amanda"", ""debug_mode"": ""live"", ""task_type"": ""face trials"", ""responses"": ""{\""Q0\"":4}"", ""task_payment"": 1.2, ""task_version"": 2, ""internal_node_id"": ""0.0-16.0-0.0-2.0"", ""time_elapsed"": 551310, ""imgName"": ""/static/images/2kfaces/Google_1_Sherry Mcmichael_11_oval.jpg"", ""questions"": ""[{\""prompt\"":\""<p>How much would you like to invite this person for a job interview? Rate from 1-9</p>\"",\""labels\"":[\""1 <br/>(Completely unwilling to invite the person)\"",\""2\"",\""3\"",\""4\"",\""5\"",\""6\"",\""7\"",\""8\"",\""9  <br/>(Very willing to invite the person)\""],\""required\"":true}]"", ""task_unique_trial"": 50, ""task_name"": ""interview decision"", ""trial_index"": 98, ""isRepeat"": 1}"
A2S75O867RJG0I:37UEWGM5HVFSNE2MEBYQVXB1JWA1RD,99,1543350931488,"{""rt"": 3845, ""trial_type"": ""face-likert-amanda"", ""debug_mode"": ""live"", ""task_type"": ""face trials"", ""responses"": ""{\""Q0\"":0}"", ""task_payment"": 1.2, ""task_version"": 2, ""internal_node_id"": ""0.0-16.0-0.0-3.0"", ""time_elapsed"": 555158, ""imgName"": ""/static/images/2kfaces/Google_1_Kenneth Cabral_19_oval.jpg"", ""questions"": ""[{\""prompt\"":\""<p>How much would you like to invite this person for a job interview? Rate from 1-9</p>\"",\""labels\"":[\""1 <br/>(Completely unwilling to invite the person)\"",\""2\"",\""3\"",\""4\"",\""5\"",\""6\"",\""7\"",\""8\"",\""9  <br/>(Very willing to invite the person)\""],\""required\"":true}]"", ""task_unique_trial"": 50, ""task_name"": ""interview decision"", ""trial_index"": 99, ""isRepeat"": 1}"
A2S75O867RJG0I:37UEWGM5HVFSNE2MEBYQVXB1JWA1RD,100,1543350937266,"{""rt"": 5774, ""trial_type"": ""face-likert-amanda"", ""debug_mode"": ""live"", ""task_type"": ""face trials"", ""responses"": ""{\""Q0\"":2}"", ""task_payment"": 1.2, ""task_version"": 2, ""internal_node_id"": ""0.0-16.0-0.0-4.0"", ""time_elapsed"": 560935, ""imgName"": ""/static/images/2kfaces/Google_1_Mark Houser_17_oval.jpg"", ""questions"": ""[{\""prompt\"":\""<p>How much would you like to invite this person for a job interview? Rate from 1-9</p>\"",\""labels\"":[\""1 <br/>(Completely unwilling to invite the person)\"",\""2\"",\""3\"",\""4\"",\""5\"",\""6\"",\""7\"",\""8\"",\""9  <br/>(Very willing to invite the person)\""],\""required\"":true}]"", ""task_unique_trial"": 50, ""task_name"": ""interview decision"", ""trial_index"": 100, ""isRepeat"": 1}"
