AARRC49LFF1O:3YDGXNSEO113X8K92KBS2EN0I0784Z,0,1547945635353,"{""rt"": 49608, ""trial_type"": ""instructions"", ""view_history"": ""[{\""page_index\"":0,\""viewing_time\"":8965},{\""page_index\"":1,\""viewing_time\"":28922},{\""page_index\"":2,\""viewing_time\"":11719}]"", ""task_type"": ""instruction"", ""task_payment"": 1, ""task_version"": 1, ""internal_node_id"": ""0.0-0.0"", ""time_elapsed"": 49615, ""debug_mode"": ""live"", ""task_name"": ""intelligent-gt"", ""task_unique_trial"": 100, ""trial_index"": 0}"
AARRC49LFF1O:3YDGXNSEO113X8K92KBS2EN0I0784Z,1,1547945663888,"{""rt"": 28487, ""trial_type"": ""survey-multi-choice"", ""task_type"": ""demographic-multichoice"", ""responses"": ""{\""Q0\"":\""26-35\"",\""Q1\"":\""Male\"",\""Q2\"":\""Yes\"",\""Q3\"":\""1\"",\""Q4\"":\""White\"",\""Q5\"":\""Bachelor&#8217;s degree (e.g. BA, BS) or above\"",\""Q6\"":\""$50,000 - $74,999\""}"", ""task_payment"": 1, ""task_version"": 1, ""time_elapsed"": 78153, ""sanity_check_1_continue"": true, ""random_num"": 1, ""debug_mode"": ""live"", ""questions"": ""[{\""prompt\"":\""What is your age?\"",\""options\"":[\""Under 18\"",\""18-25\"",\""26-35\"",\""36-45\"",\""46-55\"",\""56+\""],\""required\"":true},{\""prompt\"":\""What is your gender?\"",\""options\"":[\""Male\"",\""Female\"",\""Other/Prefer not to say\""],\""required\"":true},{\""prompt\"":\""Are you of Hispanic, Latino, or Spanish origin?\"",\""options\"":[\""Yes\"",\""No\""],\""required\"":true},{\""prompt\"":\""Please choose the option that matches the number here: 1\"",\""options\"":[\""1\"",\""2\"",\""3\"",\""4\""],\""required\"":true},{\""prompt\"":\""How would you describe yourself?\"",\""options\"":[\""American Indian or Alaskan Native\"",\""Asian\"",\""Black or African-American\"",\""Native Hawaiian or Other Pacific Islander\"",\""White\""],\""required\"":true},{\""prompt\"":\""What is the highest degree or level of school you have completed? (If you&#8217;re currently enrolled in school, please indicate the highest degree you have received)\"",\""options\"":[\""Less than a high school diploma\"",\""High school degree or equivalent (e.g. GED)\"",\""Some college, no degree\"",\""Associate degree (e.g. AA, AS)\"",\""Bachelor&#8217;s degree (e.g. BA, BS) or above\""],\""required\"":true},{\""prompt\"":\""What is the total income of all members of your household?\"",\""options\"":[\""Less than $20,000\"",\""$20,000  - $49,999\"",\""$50,000 - $74,999\"",\""$75,000 and above\""],\""required\"":true}]"", ""internal_node_id"": ""0.0-1.0-0.0"", ""task_unique_trial"": 100, ""task_name"": ""intelligent-gt"", ""trial_index"": 1}"
AARRC49LFF1O:3YDGXNSEO113X8K92KBS2EN0I0784Z,2,1547945671333,"{""rt"": 7435, ""trial_type"": ""face-likert-amanda"", ""debug_mode"": ""live"", ""task_type"": ""face trials"", ""responses"": ""{\""Q0\"":6}"", ""task_payment"": 1, ""task_version"": 1, ""internal_node_id"": ""0.0-2.0-0.0-0.0"", ""time_elapsed"": 85598, ""imgName"": ""/static/images/celeba_gt_crop/intelligent/127601.jpg"", ""questions"": ""[{\""prompt\"":\""<p>How <b>intelligent</b> does this person look to <b>most people</b>? Rate from 1-9</p>\"",\""labels\"":[\""1 <br/>Not intelligent at all\"",\""2\"",\""3\"",\""4\"",\""5\"",\""6\"",\""7\"",\""8\"",\""9  <br/>Extremely intelligent\""],\""required\"":true}]"", ""task_unique_trial"": 100, ""task_name"": ""intelligent-gt"", ""trial_index"": 2, ""isRepeat"": 0}"
AARRC49LFF1O:3YDGXNSEO113X8K92KBS2EN0I0784Z,3,1547945675443,"{""rt"": 4104, ""trial_type"": ""face-likert-amanda"", ""debug_mode"": ""live"", ""task_type"": ""face trials"", ""responses"": ""{\""Q0\"":5}"", ""task_payment"": 1, ""task_version"": 1, ""internal_node_id"": ""0.0-2.0-0.0-1.0"", ""time_elapsed"": 89708, ""imgName"": ""/static/images/celeba_gt_crop/intelligent/052930.jpg"", ""questions"": ""[{\""prompt\"":\""<p>How <b>intelligent</b> does this person look to <b>most people</b>? Rate from 1-9</p>\"",\""labels\"":[\""1 <br/>Not intelligent at all\"",\""2\"",\""3\"",\""4\"",\""5\"",\""6\"",\""7\"",\""8\"",\""9  <br/>Extremely intelligent\""],\""required\"":true}]"", ""task_unique_trial"": 100, ""task_name"": ""intelligent-gt"", ""trial_index"": 3, ""isRepeat"": 0}"
AARRC49LFF1O:3YDGXNSEO113X8K92KBS2EN0I0784Z,4,1547945681723,"{""rt"": 6274, ""trial_type"": ""face-likert-amanda"", ""debug_mode"": ""live"", ""task_type"": ""face trials"", ""responses"": ""{\""Q0\"":5}"", ""task_payment"": 1, ""task_version"": 1, ""internal_node_id"": ""0.0-2.0-0.0-2.0"", ""time_elapsed"": 95988, ""imgName"": ""/static/images/celeba_gt_crop/intelligent/185572.jpg"", ""questions"": ""[{\""prompt\"":\""<p>How <b>intelligent</b> does this person look to <b>most people</b>? Rate from 1-9</p>\"",\""labels\"":[\""1 <br/>Not intelligent at all\"",\""2\"",\""3\"",\""4\"",\""5\"",\""6\"",\""7\"",\""8\"",\""9  <br/>Extremely intelligent\""],\""required\"":true}]"", ""task_unique_trial"": 100, ""task_name"": ""intelligent-gt"", ""trial_index"": 4, ""isRepeat"": 0}"
AARRC49LFF1O:3YDGXNSEO113X8K92KBS2EN0I0784Z,5,1547945686108,"{""rt"": 4379, ""trial_type"": ""face-likert-amanda"", ""debug_mode"": ""live"", ""task_type"": ""face trials"", ""responses"": ""{\""Q0\"":5}"", ""task_payment"": 1, ""task_version"": 1, ""internal_node_id"": ""0.0-2.0-0.0-3.0"", ""time_elapsed"": 100373, ""imgName"": ""/static/images/celeba_gt_crop/intelligent/164055.jpg"", ""questions"": ""[{\""prompt\"":\""<p>How <b>intelligent</b> does this person look to <b>most people</b>? Rate from 1-9</p>\"",\""labels\"":[\""1 <br/>Not intelligent at all\"",\""2\"",\""3\"",\""4\"",\""5\"",\""6\"",\""7\"",\""8\"",\""9  <br/>Extremely intelligent\""],\""required\"":true}]"", ""task_unique_trial"": 100, ""task_name"": ""intelligent-gt"", ""trial_index"": 5, ""isRepeat"": 0}"
AARRC49LFF1O:3YDGXNSEO113X8K92KBS2EN0I0784Z,6,1547945692388,"{""rt"": 6275, ""trial_type"": ""face-likert-amanda"", ""debug_mode"": ""live"", ""task_type"": ""face trials"", ""responses"": ""{\""Q0\"":5}"", ""task_payment"": 1, ""task_version"": 1, ""internal_node_id"": ""0.0-2.0-0.0-4.0"", ""time_elapsed"": 106652, ""imgName"": ""/static/images/celeba_gt_crop/intelligent/110519.jpg"", ""questions"": ""[{\""prompt\"":\""<p>How <b>intelligent</b> does this person look to <b>most people</b>? Rate from 1-9</p>\"",\""labels\"":[\""1 <br/>Not intelligent at all\"",\""2\"",\""3\"",\""4\"",\""5\"",\""6\"",\""7\"",\""8\"",\""9  <br/>Extremely intelligent\""],\""required\"":true}]"", ""task_unique_trial"": 100, ""task_name"": ""intelligent-gt"", ""trial_index"": 6, ""isRepeat"": 0}"
AARRC49LFF1O:3YDGXNSEO113X8K92KBS2EN0I0784Z,7,1547945697677,"{""rt"": 5283, ""trial_type"": ""face-likert-amanda"", ""debug_mode"": ""live"", ""task_type"": ""face trials"", ""responses"": ""{\""Q0\"":6}"", ""task_payment"": 1, ""task_version"": 1, ""internal_node_id"": ""0.0-2.0-0.0-5.0"", ""time_elapsed"": 111942, ""imgName"": ""/static/images/celeba_gt_crop/intelligent/104427.jpg"", ""questions"": ""[{\""prompt\"":\""<p>How <b>intelligent</b> does this person look to <b>most people</b>? Rate from 1-9</p>\"",\""labels\"":[\""1 <br/>Not intelligent at all\"",\""2\"",\""3\"",\""4\"",\""5\"",\""6\"",\""7\"",\""8\"",\""9  <br/>Extremely intelligent\""],\""required\"":true}]"", ""task_unique_trial"": 100, ""task_name"": ""intelligent-gt"", ""trial_index"": 7, ""isRepeat"": 0}"
AARRC49LFF1O:3YDGXNSEO113X8K92KBS2EN0I0784Z,8,1547945703444,"{""rt"": 5763, ""trial_type"": ""face-likert-amanda"", ""debug_mode"": ""live"", ""task_type"": ""face trials"", ""responses"": ""{\""Q0\"":7}"", ""task_payment"": 1, ""task_version"": 1, ""internal_node_id"": ""0.0-2.0-0.0-6.0"", ""time_elapsed"": 117709, ""imgName"": ""/static/images/celeba_gt_crop/intelligent/030503.jpg"", ""questions"": ""[{\""prompt\"":\""<p>How <b>intelligent</b> does this person look to <b>most people</b>? Rate from 1-9</p>\"",\""labels\"":[\""1 <br/>Not intelligent at all\"",\""2\"",\""3\"",\""4\"",\""5\"",\""6\"",\""7\"",\""8\"",\""9  <br/>Extremely intelligent\""],\""required\"":true}]"", ""task_unique_trial"": 100, ""task_name"": ""intelligent-gt"", ""trial_index"": 8, ""isRepeat"": 0}"
AARRC49LFF1O:3YDGXNSEO113X8K92KBS2EN0I0784Z,9,1547945709572,"{""rt"": 6122, ""trial_type"": ""face-likert-amanda"", ""debug_mode"": ""live"", ""task_type"": ""face trials"", ""responses"": ""{\""Q0\"":4}"", ""task_payment"": 1, ""task_version"": 1, ""internal_node_id"": ""0.0-2.0-0.0-7.0"", ""time_elapsed"": 123837, ""imgName"": ""/static/images/celeba_gt_crop/intelligent/003560.jpg"", ""questions"": ""[{\""prompt\"":\""<p>How <b>intelligent</b> does this person look to <b>most people</b>? Rate from 1-9</p>\"",\""labels\"":[\""1 <br/>Not intelligent at all\"",\""2\"",\""3\"",\""4\"",\""5\"",\""6\"",\""7\"",\""8\"",\""9  <br/>Extremely intelligent\""],\""required\"":true}]"", ""task_unique_trial"": 100, ""task_name"": ""intelligent-gt"", ""trial_index"": 9, ""isRepeat"": 0}"
AARRC49LFF1O:3YDGXNSEO113X8K92KBS2EN0I0784Z,10,1547945716842,"{""rt"": 7265, ""trial_type"": ""face-likert-amanda"", ""debug_mode"": ""live"", ""task_type"": ""face trials"", ""responses"": ""{\""Q0\"":5}"", ""task_payment"": 1, ""task_version"": 1, ""internal_node_id"": ""0.0-2.0-0.0-8.0"", ""time_elapsed"": 131107, ""imgName"": ""/static/images/celeba_gt_crop/intelligent/133078.jpg"", ""questions"": ""[{\""prompt\"":\""<p>How <b>intelligent</b> does this person look to <b>most people</b>? Rate from 1-9</p>\"",\""labels\"":[\""1 <br/>Not intelligent at all\"",\""2\"",\""3\"",\""4\"",\""5\"",\""6\"",\""7\"",\""8\"",\""9  <br/>Extremely intelligent\""],\""required\"":true}]"", ""task_unique_trial"": 100, ""task_name"": ""intelligent-gt"", ""trial_index"": 10, ""isRepeat"": 0}"
AARRC49LFF1O:3YDGXNSEO113X8K92KBS2EN0I0784Z,11,1547945720532,"{""rt"": 3683, ""trial_type"": ""face-likert-amanda"", ""debug_mode"": ""live"", ""task_type"": ""face trials"", ""responses"": ""{\""Q0\"":6}"", ""task_payment"": 1, ""task_version"": 1, ""internal_node_id"": ""0.0-2.0-0.0-9.0"", ""time_elapsed"": 134796, ""imgName"": ""/static/images/celeba_gt_crop/intelligent/033708.jpg"", ""questions"": ""[{\""prompt\"":\""<p>How <b>intelligent</b> does this person look to <b>most people</b>? Rate from 1-9</p>\"",\""labels\"":[\""1 <br/>Not intelligent at all\"",\""2\"",\""3\"",\""4\"",\""5\"",\""6\"",\""7\"",\""8\"",\""9  <br/>Extremely intelligent\""],\""required\"":true}]"", ""task_unique_trial"": 100, ""task_name"": ""intelligent-gt"", ""trial_index"": 11, ""isRepeat"": 0}"
AARRC49LFF1O:3YDGXNSEO113X8K92KBS2EN0I0784Z,12,1547945721539,"{""rt"": null, ""trial_type"": ""html-keyboard-response"", ""task_unique_trial"": 100, ""stimulus"": ""<p>Good job!</p>"", ""task_version"": 1, ""internal_node_id"": ""0.0-2.0-1.0"", ""task_payment"": 1, ""time_elapsed"": 135803, ""debug_mode"": ""live"", ""key_press"": null, ""task_name"": ""intelligent-gt"", ""trial_index"": 12}"
AARRC49LFF1O:3YDGXNSEO113X8K92KBS2EN0I0784Z,13,1547945731243,"{""rt"": 9699, ""trial_type"": ""face-likert-amanda"", ""debug_mode"": ""live"", ""task_type"": ""face trials"", ""responses"": ""{\""Q0\"":7}"", ""task_payment"": 1, ""task_version"": 1, ""internal_node_id"": ""0.0-3.0-0.0-0.0"", ""time_elapsed"": 145508, ""imgName"": ""/static/images/celeba_gt_crop/intelligent/199097.jpg"", ""questions"": ""[{\""prompt\"":\""<p>How <b>intelligent</b> does this person look to <b>most people</b>? Rate from 1-9</p>\"",\""labels\"":[\""1 <br/>Not intelligent at all\"",\""2\"",\""3\"",\""4\"",\""5\"",\""6\"",\""7\"",\""8\"",\""9  <br/>Extremely intelligent\""],\""required\"":true}]"", ""task_unique_trial"": 100, ""task_name"": ""intelligent-gt"", ""trial_index"": 13, ""isRepeat"": 0}"
AARRC49LFF1O:3YDGXNSEO113X8K92KBS2EN0I0784Z,14,1547945734754,"{""rt"": 3505, ""trial_type"": ""face-likert-amanda"", ""debug_mode"": ""live"", ""task_type"": ""face trials"", ""responses"": ""{\""Q0\"":6}"", ""task_payment"": 1, ""task_version"": 1, ""internal_node_id"": ""0.0-3.0-0.0-1.0"", ""time_elapsed"": 149019, ""imgName"": ""/static/images/celeba_gt_crop/intelligent/022657.jpg"", ""questions"": ""[{\""prompt\"":\""<p>How <b>intelligent</b> does this person look to <b>most people</b>? Rate from 1-9</p>\"",\""labels\"":[\""1 <br/>Not intelligent at all\"",\""2\"",\""3\"",\""4\"",\""5\"",\""6\"",\""7\"",\""8\"",\""9  <br/>Extremely intelligent\""],\""required\"":true}]"", ""task_unique_trial"": 100, ""task_name"": ""intelligent-gt"", ""trial_index"": 14, ""isRepeat"": 0}"
AARRC49LFF1O:3YDGXNSEO113X8K92KBS2EN0I0784Z,15,1547945740723,"{""rt"": 5962, ""trial_type"": ""face-likert-amanda"", ""debug_mode"": ""live"", ""task_type"": ""face trials"", ""responses"": ""{\""Q0\"":6}"", ""task_payment"": 1, ""task_version"": 1, ""internal_node_id"": ""0.0-3.0-0.0-2.0"", ""time_elapsed"": 154987, ""imgName"": ""/static/images/celeba_gt_crop/intelligent/110328.jpg"", ""questions"": ""[{\""prompt\"":\""<p>How <b>intelligent</b> does this person look to <b>most people</b>? Rate from 1-9</p>\"",\""labels\"":[\""1 <br/>Not intelligent at all\"",\""2\"",\""3\"",\""4\"",\""5\"",\""6\"",\""7\"",\""8\"",\""9  <br/>Extremely intelligent\""],\""required\"":true}]"", ""task_unique_trial"": 100, ""task_name"": ""intelligent-gt"", ""trial_index"": 15, ""isRepeat"": 0}"
AARRC49LFF1O:3YDGXNSEO113X8K92KBS2EN0I0784Z,16,1547945744906,"{""rt"": 4177, ""trial_type"": ""face-likert-amanda"", ""debug_mode"": ""live"", ""task_type"": ""face trials"", ""responses"": ""{\""Q0\"":6}"", ""task_payment"": 1, ""task_version"": 1, ""internal_node_id"": ""0.0-3.0-0.0-3.0"", ""time_elapsed"": 159171, ""imgName"": ""/static/images/celeba_gt_crop/intelligent/005221.jpg"", ""questions"": ""[{\""prompt\"":\""<p>How <b>intelligent</b> does this person look to <b>most people</b>? Rate from 1-9</p>\"",\""labels\"":[\""1 <br/>Not intelligent at all\"",\""2\"",\""3\"",\""4\"",\""5\"",\""6\"",\""7\"",\""8\"",\""9  <br/>Extremely intelligent\""],\""required\"":true}]"", ""task_unique_trial"": 100, ""task_name"": ""intelligent-gt"", ""trial_index"": 16, ""isRepeat"": 0}"
AARRC49LFF1O:3YDGXNSEO113X8K92KBS2EN0I0784Z,17,1547945750787,"{""rt"": 5877, ""trial_type"": ""face-likert-amanda"", ""debug_mode"": ""live"", ""task_type"": ""face trials"", ""responses"": ""{\""Q0\"":5}"", ""task_payment"": 1, ""task_version"": 1, ""internal_node_id"": ""0.0-3.0-0.0-4.0"", ""time_elapsed"": 165052, ""imgName"": ""/static/images/celeba_gt_crop/intelligent/137186.jpg"", ""questions"": ""[{\""prompt\"":\""<p>How <b>intelligent</b> does this person look to <b>most people</b>? Rate from 1-9</p>\"",\""labels\"":[\""1 <br/>Not intelligent at all\"",\""2\"",\""3\"",\""4\"",\""5\"",\""6\"",\""7\"",\""8\"",\""9  <br/>Extremely intelligent\""],\""required\"":true}]"", ""task_unique_trial"": 100, ""task_name"": ""intelligent-gt"", ""trial_index"": 17, ""isRepeat"": 0}"
AARRC49LFF1O:3YDGXNSEO113X8K92KBS2EN0I0784Z,18,1547945754883,"{""rt"": 4090, ""trial_type"": ""face-likert-amanda"", ""debug_mode"": ""live"", ""task_type"": ""face trials"", ""responses"": ""{\""Q0\"":4}"", ""task_payment"": 1, ""task_version"": 1, ""internal_node_id"": ""0.0-3.0-0.0-5.0"", ""time_elapsed"": 169148, ""imgName"": ""/static/images/celeba_gt_crop/intelligent/110128.jpg"", ""questions"": ""[{\""prompt\"":\""<p>How <b>intelligent</b> does this person look to <b>most people</b>? Rate from 1-9</p>\"",\""labels\"":[\""1 <br/>Not intelligent at all\"",\""2\"",\""3\"",\""4\"",\""5\"",\""6\"",\""7\"",\""8\"",\""9  <br/>Extremely intelligent\""],\""required\"":true}]"", ""task_unique_trial"": 100, ""task_name"": ""intelligent-gt"", ""trial_index"": 18, ""isRepeat"": 0}"
AARRC49LFF1O:3YDGXNSEO113X8K92KBS2EN0I0784Z,19,1547945760148,"{""rt"": 5258, ""trial_type"": ""face-likert-amanda"", ""debug_mode"": ""live"", ""task_type"": ""face trials"", ""responses"": ""{\""Q0\"":7}"", ""task_payment"": 1, ""task_version"": 1, ""internal_node_id"": ""0.0-3.0-0.0-6.0"", ""time_elapsed"": 174413, ""imgName"": ""/static/images/celeba_gt_crop/intelligent/185318.jpg"", ""questions"": ""[{\""prompt\"":\""<p>How <b>intelligent</b> does this person look to <b>most people</b>? Rate from 1-9</p>\"",\""labels\"":[\""1 <br/>Not intelligent at all\"",\""2\"",\""3\"",\""4\"",\""5\"",\""6\"",\""7\"",\""8\"",\""9  <br/>Extremely intelligent\""],\""required\"":true}]"", ""task_unique_trial"": 100, ""task_name"": ""intelligent-gt"", ""trial_index"": 19, ""isRepeat"": 0}"
AARRC49LFF1O:3YDGXNSEO113X8K92KBS2EN0I0784Z,20,1547945764115,"{""rt"": 3961, ""trial_type"": ""face-likert-amanda"", ""debug_mode"": ""live"", ""task_type"": ""face trials"", ""responses"": ""{\""Q0\"":6}"", ""task_payment"": 1, ""task_version"": 1, ""internal_node_id"": ""0.0-3.0-0.0-7.0"", ""time_elapsed"": 178380, ""imgName"": ""/static/images/celeba_gt_crop/intelligent/181032.jpg"", ""questions"": ""[{\""prompt\"":\""<p>How <b>intelligent</b> does this person look to <b>most people</b>? Rate from 1-9</p>\"",\""labels\"":[\""1 <br/>Not intelligent at all\"",\""2\"",\""3\"",\""4\"",\""5\"",\""6\"",\""7\"",\""8\"",\""9  <br/>Extremely intelligent\""],\""required\"":true}]"", ""task_unique_trial"": 100, ""task_name"": ""intelligent-gt"", ""trial_index"": 20, ""isRepeat"": 0}"
AARRC49LFF1O:3YDGXNSEO113X8K92KBS2EN0I0784Z,21,1547945770314,"{""rt"": 6194, ""trial_type"": ""face-likert-amanda"", ""debug_mode"": ""live"", ""task_type"": ""face trials"", ""responses"": ""{\""Q0\"":5}"", ""task_payment"": 1, ""task_version"": 1, ""internal_node_id"": ""0.0-3.0-0.0-8.0"", ""time_elapsed"": 184578, ""imgName"": ""/static/images/celeba_gt_crop/intelligent/058511.jpg"", ""questions"": ""[{\""prompt\"":\""<p>How <b>intelligent</b> does this person look to <b>most people</b>? Rate from 1-9</p>\"",\""labels\"":[\""1 <br/>Not intelligent at all\"",\""2\"",\""3\"",\""4\"",\""5\"",\""6\"",\""7\"",\""8\"",\""9  <br/>Extremely intelligent\""],\""required\"":true}]"", ""task_unique_trial"": 100, ""task_name"": ""intelligent-gt"", ""trial_index"": 21, ""isRepeat"": 0}"
AARRC49LFF1O:3YDGXNSEO113X8K92KBS2EN0I0784Z,22,1547945774177,"{""rt"": 3858, ""trial_type"": ""face-likert-amanda"", ""debug_mode"": ""live"", ""task_type"": ""face trials"", ""responses"": ""{\""Q0\"":6}"", ""task_payment"": 1, ""task_version"": 1, ""internal_node_id"": ""0.0-3.0-0.0-9.0"", ""time_elapsed"": 188442, ""imgName"": ""/static/images/celeba_gt_crop/intelligent/152865.jpg"", ""questions"": ""[{\""prompt\"":\""<p>How <b>intelligent</b> does this person look to <b>most people</b>? Rate from 1-9</p>\"",\""labels\"":[\""1 <br/>Not intelligent at all\"",\""2\"",\""3\"",\""4\"",\""5\"",\""6\"",\""7\"",\""8\"",\""9  <br/>Extremely intelligent\""],\""required\"":true}]"", ""task_unique_trial"": 100, ""task_name"": ""intelligent-gt"", ""trial_index"": 22, ""isRepeat"": 0}"
AARRC49LFF1O:3YDGXNSEO113X8K92KBS2EN0I0784Z,23,1547945776182,"{""rt"": null, ""trial_type"": ""html-keyboard-response"", ""task_unique_trial"": 100, ""stimulus"": ""<p>Good job!</p>"", ""task_version"": 1, ""internal_node_id"": ""0.0-3.0-1.0"", ""task_payment"": 1, ""time_elapsed"": 190447, ""debug_mode"": ""live"", ""key_press"": null, ""task_name"": ""intelligent-gt"", ""trial_index"": 23}"
AARRC49LFF1O:3YDGXNSEO113X8K92KBS2EN0I0784Z,24,1547945785986,"{""rt"": 9799, ""trial_type"": ""face-likert-amanda"", ""debug_mode"": ""live"", ""task_type"": ""face trials"", ""responses"": ""{\""Q0\"":4}"", ""task_payment"": 1, ""task_version"": 1, ""internal_node_id"": ""0.0-4.0-0.0-0.0"", ""time_elapsed"": 200251, ""imgName"": ""/static/images/celeba_gt_crop/intelligent/152827.jpg"", ""questions"": ""[{\""prompt\"":\""<p>How <b>intelligent</b> does this person look to <b>most people</b>? Rate from 1-9</p>\"",\""labels\"":[\""1 <br/>Not intelligent at all\"",\""2\"",\""3\"",\""4\"",\""5\"",\""6\"",\""7\"",\""8\"",\""9  <br/>Extremely intelligent\""],\""required\"":true}]"", ""task_unique_trial"": 100, ""task_name"": ""intelligent-gt"", ""trial_index"": 24, ""isRepeat"": 0}"
AARRC49LFF1O:3YDGXNSEO113X8K92KBS2EN0I0784Z,25,1547945792650,"{""rt"": 6658, ""trial_type"": ""face-likert-amanda"", ""debug_mode"": ""live"", ""task_type"": ""face trials"", ""responses"": ""{\""Q0\"":6}"", ""task_payment"": 1, ""task_version"": 1, ""internal_node_id"": ""0.0-4.0-0.0-1.0"", ""time_elapsed"": 206914, ""imgName"": ""/static/images/celeba_gt_crop/intelligent/118886.jpg"", ""questions"": ""[{\""prompt\"":\""<p>How <b>intelligent</b> does this person look to <b>most people</b>? Rate from 1-9</p>\"",\""labels\"":[\""1 <br/>Not intelligent at all\"",\""2\"",\""3\"",\""4\"",\""5\"",\""6\"",\""7\"",\""8\"",\""9  <br/>Extremely intelligent\""],\""required\"":true}]"", ""task_unique_trial"": 100, ""task_name"": ""intelligent-gt"", ""trial_index"": 25, ""isRepeat"": 0}"
AARRC49LFF1O:3YDGXNSEO113X8K92KBS2EN0I0784Z,26,1547945804520,"{""rt"": 11865, ""trial_type"": ""face-likert-amanda"", ""debug_mode"": ""live"", ""task_type"": ""face trials"", ""responses"": ""{\""Q0\"":5}"", ""task_payment"": 1, ""task_version"": 1, ""internal_node_id"": ""0.0-4.0-0.0-2.0"", ""time_elapsed"": 218785, ""imgName"": ""/static/images/celeba_gt_crop/intelligent/003560.jpg"", ""questions"": ""[{\""prompt\"":\""<p>How <b>intelligent</b> does this person look to <b>most people</b>? Rate from 1-9</p>\"",\""labels\"":[\""1 <br/>Not intelligent at all\"",\""2\"",\""3\"",\""4\"",\""5\"",\""6\"",\""7\"",\""8\"",\""9  <br/>Extremely intelligent\""],\""required\"":true}]"", ""task_unique_trial"": 100, ""task_name"": ""intelligent-gt"", ""trial_index"": 26, ""isRepeat"": 0}"
AARRC49LFF1O:3YDGXNSEO113X8K92KBS2EN0I0784Z,27,1547945810283,"{""rt"": 5757, ""trial_type"": ""face-likert-amanda"", ""debug_mode"": ""live"", ""task_type"": ""face trials"", ""responses"": ""{\""Q0\"":6}"", ""task_payment"": 1, ""task_version"": 1, ""internal_node_id"": ""0.0-4.0-0.0-3.0"", ""time_elapsed"": 224547, ""imgName"": ""/static/images/celeba_gt_crop/intelligent/088505.jpg"", ""questions"": ""[{\""prompt\"":\""<p>How <b>intelligent</b> does this person look to <b>most people</b>? Rate from 1-9</p>\"",\""labels\"":[\""1 <br/>Not intelligent at all\"",\""2\"",\""3\"",\""4\"",\""5\"",\""6\"",\""7\"",\""8\"",\""9  <br/>Extremely intelligent\""],\""required\"":true}]"", ""task_unique_trial"": 100, ""task_name"": ""intelligent-gt"", ""trial_index"": 27, ""isRepeat"": 0}"
AARRC49LFF1O:3YDGXNSEO113X8K92KBS2EN0I0784Z,28,1547945814506,"{""rt"": 4218, ""trial_type"": ""face-likert-amanda"", ""debug_mode"": ""live"", ""task_type"": ""face trials"", ""responses"": ""{\""Q0\"":7}"", ""task_payment"": 1, ""task_version"": 1, ""internal_node_id"": ""0.0-4.0-0.0-4.0"", ""time_elapsed"": 228771, ""imgName"": ""/static/images/celeba_gt_crop/intelligent/027687.jpg"", ""questions"": ""[{\""prompt\"":\""<p>How <b>intelligent</b> does this person look to <b>most people</b>? Rate from 1-9</p>\"",\""labels\"":[\""1 <br/>Not intelligent at all\"",\""2\"",\""3\"",\""4\"",\""5\"",\""6\"",\""7\"",\""8\"",\""9  <br/>Extremely intelligent\""],\""required\"":true}]"", ""task_unique_trial"": 100, ""task_name"": ""intelligent-gt"", ""trial_index"": 28, ""isRepeat"": 0}"
AARRC49LFF1O:3YDGXNSEO113X8K92KBS2EN0I0784Z,29,1547945820299,"{""rt"": 5787, ""trial_type"": ""face-likert-amanda"", ""debug_mode"": ""live"", ""task_type"": ""face trials"", ""responses"": ""{\""Q0\"":6}"", ""task_payment"": 1, ""task_version"": 1, ""internal_node_id"": ""0.0-4.0-0.0-5.0"", ""time_elapsed"": 234564, ""imgName"": ""/static/images/celeba_gt_crop/intelligent/178434.jpg"", ""questions"": ""[{\""prompt\"":\""<p>How <b>intelligent</b> does this person look to <b>most people</b>? Rate from 1-9</p>\"",\""labels\"":[\""1 <br/>Not intelligent at all\"",\""2\"",\""3\"",\""4\"",\""5\"",\""6\"",\""7\"",\""8\"",\""9  <br/>Extremely intelligent\""],\""required\"":true}]"", ""task_unique_trial"": 100, ""task_name"": ""intelligent-gt"", ""trial_index"": 29, ""isRepeat"": 0}"
AARRC49LFF1O:3YDGXNSEO113X8K92KBS2EN0I0784Z,30,1547945824219,"{""rt"": 3914, ""trial_type"": ""face-likert-amanda"", ""debug_mode"": ""live"", ""task_type"": ""face trials"", ""responses"": ""{\""Q0\"":7}"", ""task_payment"": 1, ""task_version"": 1, ""internal_node_id"": ""0.0-4.0-0.0-6.0"", ""time_elapsed"": 238483, ""imgName"": ""/static/images/celeba_gt_crop/intelligent/033310.jpg"", ""questions"": ""[{\""prompt\"":\""<p>How <b>intelligent</b> does this person look to <b>most people</b>? Rate from 1-9</p>\"",\""labels\"":[\""1 <br/>Not intelligent at all\"",\""2\"",\""3\"",\""4\"",\""5\"",\""6\"",\""7\"",\""8\"",\""9  <br/>Extremely intelligent\""],\""required\"":true}]"", ""task_unique_trial"": 100, ""task_name"": ""intelligent-gt"", ""trial_index"": 30, ""isRepeat"": 0}"
AARRC49LFF1O:3YDGXNSEO113X8K92KBS2EN0I0784Z,31,1547945830225,"{""rt"": 6002, ""trial_type"": ""face-likert-amanda"", ""debug_mode"": ""live"", ""task_type"": ""face trials"", ""responses"": ""{\""Q0\"":6}"", ""task_payment"": 1, ""task_version"": 1, ""internal_node_id"": ""0.0-4.0-0.0-7.0"", ""time_elapsed"": 244490, ""imgName"": ""/static/images/celeba_gt_crop/intelligent/182358.jpg"", ""questions"": ""[{\""prompt\"":\""<p>How <b>intelligent</b> does this person look to <b>most people</b>? Rate from 1-9</p>\"",\""labels\"":[\""1 <br/>Not intelligent at all\"",\""2\"",\""3\"",\""4\"",\""5\"",\""6\"",\""7\"",\""8\"",\""9  <br/>Extremely intelligent\""],\""required\"":true}]"", ""task_unique_trial"": 100, ""task_name"": ""intelligent-gt"", ""trial_index"": 31, ""isRepeat"": 0}"
AARRC49LFF1O:3YDGXNSEO113X8K92KBS2EN0I0784Z,32,1547945834817,"{""rt"": 4587, ""trial_type"": ""face-likert-amanda"", ""debug_mode"": ""live"", ""task_type"": ""face trials"", ""responses"": ""{\""Q0\"":5}"", ""task_payment"": 1, ""task_version"": 1, ""internal_node_id"": ""0.0-4.0-0.0-8.0"", ""time_elapsed"": 249082, ""imgName"": ""/static/images/celeba_gt_crop/intelligent/124386.jpg"", ""questions"": ""[{\""prompt\"":\""<p>How <b>intelligent</b> does this person look to <b>most people</b>? Rate from 1-9</p>\"",\""labels\"":[\""1 <br/>Not intelligent at all\"",\""2\"",\""3\"",\""4\"",\""5\"",\""6\"",\""7\"",\""8\"",\""9  <br/>Extremely intelligent\""],\""required\"":true}]"", ""task_unique_trial"": 100, ""task_name"": ""intelligent-gt"", ""trial_index"": 32, ""isRepeat"": 0}"
AARRC49LFF1O:3YDGXNSEO113X8K92KBS2EN0I0784Z,33,1547945840338,"{""rt"": 5515, ""trial_type"": ""face-likert-amanda"", ""debug_mode"": ""live"", ""task_type"": ""face trials"", ""responses"": ""{\""Q0\"":6}"", ""task_payment"": 1, ""task_version"": 1, ""internal_node_id"": ""0.0-4.0-0.0-9.0"", ""time_elapsed"": 254603, ""imgName"": ""/static/images/celeba_gt_crop/intelligent/074442.jpg"", ""questions"": ""[{\""prompt\"":\""<p>How <b>intelligent</b> does this person look to <b>most people</b>? Rate from 1-9</p>\"",\""labels\"":[\""1 <br/>Not intelligent at all\"",\""2\"",\""3\"",\""4\"",\""5\"",\""6\"",\""7\"",\""8\"",\""9  <br/>Extremely intelligent\""],\""required\"":true}]"", ""task_unique_trial"": 100, ""task_name"": ""intelligent-gt"", ""trial_index"": 33, ""isRepeat"": 0}"
AARRC49LFF1O:3YDGXNSEO113X8K92KBS2EN0I0784Z,34,1547945841843,"{""rt"": null, ""trial_type"": ""html-keyboard-response"", ""task_unique_trial"": 100, ""stimulus"": ""<p>Good job!</p>"", ""task_version"": 1, ""internal_node_id"": ""0.0-4.0-1.0"", ""task_payment"": 1, ""time_elapsed"": 256107, ""debug_mode"": ""live"", ""key_press"": null, ""task_name"": ""intelligent-gt"", ""trial_index"": 34}"
AARRC49LFF1O:3YDGXNSEO113X8K92KBS2EN0I0784Z,35,1547945847433,"{""rt"": 5587, ""trial_type"": ""face-likert-amanda"", ""debug_mode"": ""live"", ""task_type"": ""face trials"", ""responses"": ""{\""Q0\"":6}"", ""task_payment"": 1, ""task_version"": 1, ""internal_node_id"": ""0.0-5.0-0.0-0.0"", ""time_elapsed"": 261698, ""imgName"": ""/static/images/celeba_gt_crop/intelligent/159474.jpg"", ""questions"": ""[{\""prompt\"":\""<p>How <b>intelligent</b> does this person look to <b>most people</b>? Rate from 1-9</p>\"",\""labels\"":[\""1 <br/>Not intelligent at all\"",\""2\"",\""3\"",\""4\"",\""5\"",\""6\"",\""7\"",\""8\"",\""9  <br/>Extremely intelligent\""],\""required\"":true}]"", ""task_unique_trial"": 100, ""task_name"": ""intelligent-gt"", ""trial_index"": 35, ""isRepeat"": 0}"
AARRC49LFF1O:3YDGXNSEO113X8K92KBS2EN0I0784Z,36,1547945851585,"{""rt"": 4147, ""trial_type"": ""face-likert-amanda"", ""debug_mode"": ""live"", ""task_type"": ""face trials"", ""responses"": ""{\""Q0\"":6}"", ""task_payment"": 1, ""task_version"": 1, ""internal_node_id"": ""0.0-5.0-0.0-1.0"", ""time_elapsed"": 265850, ""imgName"": ""/static/images/celeba_gt_crop/intelligent/163429.jpg"", ""questions"": ""[{\""prompt\"":\""<p>How <b>intelligent</b> does this person look to <b>most people</b>? Rate from 1-9</p>\"",\""labels\"":[\""1 <br/>Not intelligent at all\"",\""2\"",\""3\"",\""4\"",\""5\"",\""6\"",\""7\"",\""8\"",\""9  <br/>Extremely intelligent\""],\""required\"":true}]"", ""task_unique_trial"": 100, ""task_name"": ""intelligent-gt"", ""trial_index"": 36, ""isRepeat"": 0}"
AARRC49LFF1O:3YDGXNSEO113X8K92KBS2EN0I0784Z,37,1547945857113,"{""rt"": 5523, ""trial_type"": ""face-likert-amanda"", ""debug_mode"": ""live"", ""task_type"": ""face trials"", ""responses"": ""{\""Q0\"":6}"", ""task_payment"": 1, ""task_version"": 1, ""internal_node_id"": ""0.0-5.0-0.0-2.0"", ""time_elapsed"": 271378, ""imgName"": ""/static/images/celeba_gt_crop/intelligent/161851.jpg"", ""questions"": ""[{\""prompt\"":\""<p>How <b>intelligent</b> does this person look to <b>most people</b>? Rate from 1-9</p>\"",\""labels\"":[\""1 <br/>Not intelligent at all\"",\""2\"",\""3\"",\""4\"",\""5\"",\""6\"",\""7\"",\""8\"",\""9  <br/>Extremely intelligent\""],\""required\"":true}]"", ""task_unique_trial"": 100, ""task_name"": ""intelligent-gt"", ""trial_index"": 37, ""isRepeat"": 0}"
AARRC49LFF1O:3YDGXNSEO113X8K92KBS2EN0I0784Z,38,1547945863633,"{""rt"": 6514, ""trial_type"": ""face-likert-amanda"", ""debug_mode"": ""live"", ""task_type"": ""face trials"", ""responses"": ""{\""Q0\"":7}"", ""task_payment"": 1, ""task_version"": 1, ""internal_node_id"": ""0.0-5.0-0.0-3.0"", ""time_elapsed"": 277898, ""imgName"": ""/static/images/celeba_gt_crop/intelligent/186564.jpg"", ""questions"": ""[{\""prompt\"":\""<p>How <b>intelligent</b> does this person look to <b>most people</b>? Rate from 1-9</p>\"",\""labels\"":[\""1 <br/>Not intelligent at all\"",\""2\"",\""3\"",\""4\"",\""5\"",\""6\"",\""7\"",\""8\"",\""9  <br/>Extremely intelligent\""],\""required\"":true}]"", ""task_unique_trial"": 100, ""task_name"": ""intelligent-gt"", ""trial_index"": 38, ""isRepeat"": 0}"
AARRC49LFF1O:3YDGXNSEO113X8K92KBS2EN0I0784Z,39,1547945868073,"{""rt"": 4435, ""trial_type"": ""face-likert-amanda"", ""debug_mode"": ""live"", ""task_type"": ""face trials"", ""responses"": ""{\""Q0\"":6}"", ""task_payment"": 1, ""task_version"": 1, ""internal_node_id"": ""0.0-5.0-0.0-4.0"", ""time_elapsed"": 282338, ""imgName"": ""/static/images/celeba_gt_crop/intelligent/163099.jpg"", ""questions"": ""[{\""prompt\"":\""<p>How <b>intelligent</b> does this person look to <b>most people</b>? Rate from 1-9</p>\"",\""labels\"":[\""1 <br/>Not intelligent at all\"",\""2\"",\""3\"",\""4\"",\""5\"",\""6\"",\""7\"",\""8\"",\""9  <br/>Extremely intelligent\""],\""required\"":true}]"", ""task_unique_trial"": 100, ""task_name"": ""intelligent-gt"", ""trial_index"": 39, ""isRepeat"": 0}"
AARRC49LFF1O:3YDGXNSEO113X8K92KBS2EN0I0784Z,40,1547945873565,"{""rt"": 5487, ""trial_type"": ""face-likert-amanda"", ""debug_mode"": ""live"", ""task_type"": ""face trials"", ""responses"": ""{\""Q0\"":6}"", ""task_payment"": 1, ""task_version"": 1, ""internal_node_id"": ""0.0-5.0-0.0-5.0"", ""time_elapsed"": 287830, ""imgName"": ""/static/images/celeba_gt_crop/intelligent/055914.jpg"", ""questions"": ""[{\""prompt\"":\""<p>How <b>intelligent</b> does this person look to <b>most people</b>? Rate from 1-9</p>\"",\""labels\"":[\""1 <br/>Not intelligent at all\"",\""2\"",\""3\"",\""4\"",\""5\"",\""6\"",\""7\"",\""8\"",\""9  <br/>Extremely intelligent\""],\""required\"":true}]"", ""task_unique_trial"": 100, ""task_name"": ""intelligent-gt"", ""trial_index"": 40, ""isRepeat"": 0}"
AARRC49LFF1O:3YDGXNSEO113X8K92KBS2EN0I0784Z,41,1547945879069,"{""rt"": 5498, ""trial_type"": ""face-likert-amanda"", ""debug_mode"": ""live"", ""task_type"": ""face trials"", ""responses"": ""{\""Q0\"":7}"", ""task_payment"": 1, ""task_version"": 1, ""internal_node_id"": ""0.0-5.0-0.0-6.0"", ""time_elapsed"": 293334, ""imgName"": ""/static/images/celeba_gt_crop/intelligent/033658.jpg"", ""questions"": ""[{\""prompt\"":\""<p>How <b>intelligent</b> does this person look to <b>most people</b>? Rate from 1-9</p>\"",\""labels\"":[\""1 <br/>Not intelligent at all\"",\""2\"",\""3\"",\""4\"",\""5\"",\""6\"",\""7\"",\""8\"",\""9  <br/>Extremely intelligent\""],\""required\"":true}]"", ""task_unique_trial"": 100, ""task_name"": ""intelligent-gt"", ""trial_index"": 41, ""isRepeat"": 0}"
AARRC49LFF1O:3YDGXNSEO113X8K92KBS2EN0I0784Z,42,1547945884340,"{""rt"": 5266, ""trial_type"": ""face-likert-amanda"", ""debug_mode"": ""live"", ""task_type"": ""face trials"", ""responses"": ""{\""Q0\"":6}"", ""task_payment"": 1, ""task_version"": 1, ""internal_node_id"": ""0.0-5.0-0.0-7.0"", ""time_elapsed"": 298604, ""imgName"": ""/static/images/celeba_gt_crop/intelligent/078330.jpg"", ""questions"": ""[{\""prompt\"":\""<p>How <b>intelligent</b> does this person look to <b>most people</b>? Rate from 1-9</p>\"",\""labels\"":[\""1 <br/>Not intelligent at all\"",\""2\"",\""3\"",\""4\"",\""5\"",\""6\"",\""7\"",\""8\"",\""9  <br/>Extremely intelligent\""],\""required\"":true}]"", ""task_unique_trial"": 100, ""task_name"": ""intelligent-gt"", ""trial_index"": 42, ""isRepeat"": 0}"
AARRC49LFF1O:3YDGXNSEO113X8K92KBS2EN0I0784Z,43,1547945887852,"{""rt"": 3508, ""trial_type"": ""face-likert-amanda"", ""debug_mode"": ""live"", ""task_type"": ""face trials"", ""responses"": ""{\""Q0\"":7}"", ""task_payment"": 1, ""task_version"": 1, ""internal_node_id"": ""0.0-5.0-0.0-8.0"", ""time_elapsed"": 302117, ""imgName"": ""/static/images/celeba_gt_crop/intelligent/163429.jpg"", ""questions"": ""[{\""prompt\"":\""<p>How <b>intelligent</b> does this person look to <b>most people</b>? Rate from 1-9</p>\"",\""labels\"":[\""1 <br/>Not intelligent at all\"",\""2\"",\""3\"",\""4\"",\""5\"",\""6\"",\""7\"",\""8\"",\""9  <br/>Extremely intelligent\""],\""required\"":true}]"", ""task_unique_trial"": 100, ""task_name"": ""intelligent-gt"", ""trial_index"": 43, ""isRepeat"": 0}"
AARRC49LFF1O:3YDGXNSEO113X8K92KBS2EN0I0784Z,44,1547945896555,"{""rt"": 8697, ""trial_type"": ""face-likert-amanda"", ""debug_mode"": ""live"", ""task_type"": ""face trials"", ""responses"": ""{\""Q0\"":7}"", ""task_payment"": 1, ""task_version"": 1, ""internal_node_id"": ""0.0-5.0-0.0-9.0"", ""time_elapsed"": 310820, ""imgName"": ""/static/images/celeba_gt_crop/intelligent/022657.jpg"", ""questions"": ""[{\""prompt\"":\""<p>How <b>intelligent</b> does this person look to <b>most people</b>? Rate from 1-9</p>\"",\""labels\"":[\""1 <br/>Not intelligent at all\"",\""2\"",\""3\"",\""4\"",\""5\"",\""6\"",\""7\"",\""8\"",\""9  <br/>Extremely intelligent\""],\""required\"":true}]"", ""task_unique_trial"": 100, ""task_name"": ""intelligent-gt"", ""trial_index"": 44, ""isRepeat"": 0}"
AARRC49LFF1O:3YDGXNSEO113X8K92KBS2EN0I0784Z,45,1547945898558,"{""rt"": null, ""trial_type"": ""html-keyboard-response"", ""task_unique_trial"": 100, ""stimulus"": ""<p>Good job!</p>"", ""task_version"": 1, ""internal_node_id"": ""0.0-5.0-1.0"", ""task_payment"": 1, ""time_elapsed"": 312823, ""debug_mode"": ""live"", ""key_press"": null, ""task_name"": ""intelligent-gt"", ""trial_index"": 45}"
AARRC49LFF1O:3YDGXNSEO113X8K92KBS2EN0I0784Z,46,1547945902204,"{""rt"": 3640, ""trial_type"": ""face-likert-amanda"", ""debug_mode"": ""live"", ""task_type"": ""face trials"", ""responses"": ""{\""Q0\"":7}"", ""task_payment"": 1, ""task_version"": 1, ""internal_node_id"": ""0.0-6.0-0.0-0.0"", ""time_elapsed"": 316467, ""imgName"": ""/static/images/celeba_gt_crop/intelligent/186784.jpg"", ""questions"": ""[{\""prompt\"":\""<p>How <b>intelligent</b> does this person look to <b>most people</b>? Rate from 1-9</p>\"",\""labels\"":[\""1 <br/>Not intelligent at all\"",\""2\"",\""3\"",\""4\"",\""5\"",\""6\"",\""7\"",\""8\"",\""9  <br/>Extremely intelligent\""],\""required\"":true}]"", ""task_unique_trial"": 100, ""task_name"": ""intelligent-gt"", ""trial_index"": 46, ""isRepeat"": 0}"
AARRC49LFF1O:3YDGXNSEO113X8K92KBS2EN0I0784Z,47,1547945906787,"{""rt"": 4578, ""trial_type"": ""face-likert-amanda"", ""debug_mode"": ""live"", ""task_type"": ""face trials"", ""responses"": ""{\""Q0\"":6}"", ""task_payment"": 1, ""task_version"": 1, ""internal_node_id"": ""0.0-6.0-0.0-1.0"", ""time_elapsed"": 321052, ""imgName"": ""/static/images/celeba_gt_crop/intelligent/160218.jpg"", ""questions"": ""[{\""prompt\"":\""<p>How <b>intelligent</b> does this person look to <b>most people</b>? Rate from 1-9</p>\"",\""labels\"":[\""1 <br/>Not intelligent at all\"",\""2\"",\""3\"",\""4\"",\""5\"",\""6\"",\""7\"",\""8\"",\""9  <br/>Extremely intelligent\""],\""required\"":true}]"", ""task_unique_trial"": 100, ""task_name"": ""intelligent-gt"", ""trial_index"": 47, ""isRepeat"": 0}"
AARRC49LFF1O:3YDGXNSEO113X8K92KBS2EN0I0784Z,48,1547945910235,"{""rt"": 3442, ""trial_type"": ""face-likert-amanda"", ""debug_mode"": ""live"", ""task_type"": ""face trials"", ""responses"": ""{\""Q0\"":7}"", ""task_payment"": 1, ""task_version"": 1, ""internal_node_id"": ""0.0-6.0-0.0-2.0"", ""time_elapsed"": 324500, ""imgName"": ""/static/images/celeba_gt_crop/intelligent/114506.jpg"", ""questions"": ""[{\""prompt\"":\""<p>How <b>intelligent</b> does this person look to <b>most people</b>? Rate from 1-9</p>\"",\""labels\"":[\""1 <br/>Not intelligent at all\"",\""2\"",\""3\"",\""4\"",\""5\"",\""6\"",\""7\"",\""8\"",\""9  <br/>Extremely intelligent\""],\""required\"":true}]"", ""task_unique_trial"": 100, ""task_name"": ""intelligent-gt"", ""trial_index"": 48, ""isRepeat"": 0}"
AARRC49LFF1O:3YDGXNSEO113X8K92KBS2EN0I0784Z,49,1547945916403,"{""rt"": 6162, ""trial_type"": ""face-likert-amanda"", ""debug_mode"": ""live"", ""task_type"": ""face trials"", ""responses"": ""{\""Q0\"":6}"", ""task_payment"": 1, ""task_version"": 1, ""internal_node_id"": ""0.0-6.0-0.0-3.0"", ""time_elapsed"": 330667, ""imgName"": ""/static/images/celeba_gt_crop/intelligent/135747.jpg"", ""questions"": ""[{\""prompt\"":\""<p>How <b>intelligent</b> does this person look to <b>most people</b>? Rate from 1-9</p>\"",\""labels\"":[\""1 <br/>Not intelligent at all\"",\""2\"",\""3\"",\""4\"",\""5\"",\""6\"",\""7\"",\""8\"",\""9  <br/>Extremely intelligent\""],\""required\"":true}]"", ""task_unique_trial"": 100, ""task_name"": ""intelligent-gt"", ""trial_index"": 49, ""isRepeat"": 0}"
AARRC49LFF1O:3YDGXNSEO113X8K92KBS2EN0I0784Z,50,1547945920618,"{""rt"": 4211, ""trial_type"": ""face-likert-amanda"", ""debug_mode"": ""live"", ""task_type"": ""face trials"", ""responses"": ""{\""Q0\"":7}"", ""task_payment"": 1, ""task_version"": 1, ""internal_node_id"": ""0.0-6.0-0.0-4.0"", ""time_elapsed"": 334883, ""imgName"": ""/static/images/celeba_gt_crop/intelligent/035709.jpg"", ""questions"": ""[{\""prompt\"":\""<p>How <b>intelligent</b> does this person look to <b>most people</b>? Rate from 1-9</p>\"",\""labels\"":[\""1 <br/>Not intelligent at all\"",\""2\"",\""3\"",\""4\"",\""5\"",\""6\"",\""7\"",\""8\"",\""9  <br/>Extremely intelligent\""],\""required\"":true}]"", ""task_unique_trial"": 100, ""task_name"": ""intelligent-gt"", ""trial_index"": 50, ""isRepeat"": 0}"
AARRC49LFF1O:3YDGXNSEO113X8K92KBS2EN0I0784Z,51,1547945927643,"{""rt"": 7019, ""trial_type"": ""face-likert-amanda"", ""debug_mode"": ""live"", ""task_type"": ""face trials"", ""responses"": ""{\""Q0\"":6}"", ""task_payment"": 1, ""task_version"": 1, ""internal_node_id"": ""0.0-6.0-0.0-5.0"", ""time_elapsed"": 341908, ""imgName"": ""/static/images/celeba_gt_crop/intelligent/108820.jpg"", ""questions"": ""[{\""prompt\"":\""<p>How <b>intelligent</b> does this person look to <b>most people</b>? Rate from 1-9</p>\"",\""labels\"":[\""1 <br/>Not intelligent at all\"",\""2\"",\""3\"",\""4\"",\""5\"",\""6\"",\""7\"",\""8\"",\""9  <br/>Extremely intelligent\""],\""required\"":true}]"", ""task_unique_trial"": 100, ""task_name"": ""intelligent-gt"", ""trial_index"": 51, ""isRepeat"": 0}"
AARRC49LFF1O:3YDGXNSEO113X8K92KBS2EN0I0784Z,52,1547945931253,"{""rt"": 3605, ""trial_type"": ""face-likert-amanda"", ""debug_mode"": ""live"", ""task_type"": ""face trials"", ""responses"": ""{\""Q0\"":7}"", ""task_payment"": 1, ""task_version"": 1, ""internal_node_id"": ""0.0-6.0-0.0-6.0"", ""time_elapsed"": 345518, ""imgName"": ""/static/images/celeba_gt_crop/intelligent/166652.jpg"", ""questions"": ""[{\""prompt\"":\""<p>How <b>intelligent</b> does this person look to <b>most people</b>? Rate from 1-9</p>\"",\""labels\"":[\""1 <br/>Not intelligent at all\"",\""2\"",\""3\"",\""4\"",\""5\"",\""6\"",\""7\"",\""8\"",\""9  <br/>Extremely intelligent\""],\""required\"":true}]"", ""task_unique_trial"": 100, ""task_name"": ""intelligent-gt"", ""trial_index"": 52, ""isRepeat"": 0}"
AARRC49LFF1O:3YDGXNSEO113X8K92KBS2EN0I0784Z,53,1547945937381,"{""rt"": 6122, ""trial_type"": ""face-likert-amanda"", ""debug_mode"": ""live"", ""task_type"": ""face trials"", ""responses"": ""{\""Q0\"":5}"", ""task_payment"": 1, ""task_version"": 1, ""internal_node_id"": ""0.0-6.0-0.0-7.0"", ""time_elapsed"": 351646, ""imgName"": ""/static/images/celeba_gt_crop/intelligent/141241.jpg"", ""questions"": ""[{\""prompt\"":\""<p>How <b>intelligent</b> does this person look to <b>most people</b>? Rate from 1-9</p>\"",\""labels\"":[\""1 <br/>Not intelligent at all\"",\""2\"",\""3\"",\""4\"",\""5\"",\""6\"",\""7\"",\""8\"",\""9  <br/>Extremely intelligent\""],\""required\"":true}]"", ""task_unique_trial"": 100, ""task_name"": ""intelligent-gt"", ""trial_index"": 53, ""isRepeat"": 0}"
AARRC49LFF1O:3YDGXNSEO113X8K92KBS2EN0I0784Z,54,1547945942061,"{""rt"": 4674, ""trial_type"": ""face-likert-amanda"", ""debug_mode"": ""live"", ""task_type"": ""face trials"", ""responses"": ""{\""Q0\"":5}"", ""task_payment"": 1, ""task_version"": 1, ""internal_node_id"": ""0.0-6.0-0.0-8.0"", ""time_elapsed"": 356326, ""imgName"": ""/static/images/celeba_gt_crop/intelligent/197708.jpg"", ""questions"": ""[{\""prompt\"":\""<p>How <b>intelligent</b> does this person look to <b>most people</b>? Rate from 1-9</p>\"",\""labels\"":[\""1 <br/>Not intelligent at all\"",\""2\"",\""3\"",\""4\"",\""5\"",\""6\"",\""7\"",\""8\"",\""9  <br/>Extremely intelligent\""],\""required\"":true}]"", ""task_unique_trial"": 100, ""task_name"": ""intelligent-gt"", ""trial_index"": 54, ""isRepeat"": 0}"
AARRC49LFF1O:3YDGXNSEO113X8K92KBS2EN0I0784Z,55,1547945947949,"{""rt"": 5882, ""trial_type"": ""face-likert-amanda"", ""debug_mode"": ""live"", ""task_type"": ""face trials"", ""responses"": ""{\""Q0\"":6}"", ""task_payment"": 1, ""task_version"": 1, ""internal_node_id"": ""0.0-6.0-0.0-9.0"", ""time_elapsed"": 362213, ""imgName"": ""/static/images/celeba_gt_crop/intelligent/040498.jpg"", ""questions"": ""[{\""prompt\"":\""<p>How <b>intelligent</b> does this person look to <b>most people</b>? Rate from 1-9</p>\"",\""labels\"":[\""1 <br/>Not intelligent at all\"",\""2\"",\""3\"",\""4\"",\""5\"",\""6\"",\""7\"",\""8\"",\""9  <br/>Extremely intelligent\""],\""required\"":true}]"", ""task_unique_trial"": 100, ""task_name"": ""intelligent-gt"", ""trial_index"": 55, ""isRepeat"": 0}"
AARRC49LFF1O:3YDGXNSEO113X8K92KBS2EN0I0784Z,56,1547945949952,"{""rt"": null, ""trial_type"": ""html-keyboard-response"", ""task_unique_trial"": 100, ""stimulus"": ""<p>Good job!</p>"", ""task_version"": 1, ""internal_node_id"": ""0.0-6.0-1.0"", ""task_payment"": 1, ""time_elapsed"": 364217, ""debug_mode"": ""live"", ""key_press"": null, ""task_name"": ""intelligent-gt"", ""trial_index"": 56}"
AARRC49LFF1O:3YDGXNSEO113X8K92KBS2EN0I0784Z,57,1547945953572,"{""rt"": 3616, ""trial_type"": ""face-likert-amanda"", ""debug_mode"": ""live"", ""task_type"": ""face trials"", ""responses"": ""{\""Q0\"":7}"", ""task_payment"": 1, ""task_version"": 1, ""internal_node_id"": ""0.0-7.0-0.0-0.0"", ""time_elapsed"": 367837, ""imgName"": ""/static/images/celeba_gt_crop/intelligent/102692.jpg"", ""questions"": ""[{\""prompt\"":\""<p>How <b>intelligent</b> does this person look to <b>most people</b>? Rate from 1-9</p>\"",\""labels\"":[\""1 <br/>Not intelligent at all\"",\""2\"",\""3\"",\""4\"",\""5\"",\""6\"",\""7\"",\""8\"",\""9  <br/>Extremely intelligent\""],\""required\"":true}]"", ""task_unique_trial"": 100, ""task_name"": ""intelligent-gt"", ""trial_index"": 57, ""isRepeat"": 0}"
AARRC49LFF1O:3YDGXNSEO113X8K92KBS2EN0I0784Z,58,1547945957789,"{""rt"": 4210, ""trial_type"": ""face-likert-amanda"", ""debug_mode"": ""live"", ""task_type"": ""face trials"", ""responses"": ""{\""Q0\"":7}"", ""task_payment"": 1, ""task_version"": 1, ""internal_node_id"": ""0.0-7.0-0.0-1.0"", ""time_elapsed"": 372053, ""imgName"": ""/static/images/celeba_gt_crop/intelligent/159474.jpg"", ""questions"": ""[{\""prompt\"":\""<p>How <b>intelligent</b> does this person look to <b>most people</b>? Rate from 1-9</p>\"",\""labels\"":[\""1 <br/>Not intelligent at all\"",\""2\"",\""3\"",\""4\"",\""5\"",\""6\"",\""7\"",\""8\"",\""9  <br/>Extremely intelligent\""],\""required\"":true}]"", ""task_unique_trial"": 100, ""task_name"": ""intelligent-gt"", ""trial_index"": 58, ""isRepeat"": 0}"
AARRC49LFF1O:3YDGXNSEO113X8K92KBS2EN0I0784Z,59,1547945962244,"{""rt"": 4451, ""trial_type"": ""face-likert-amanda"", ""debug_mode"": ""live"", ""task_type"": ""face trials"", ""responses"": ""{\""Q0\"":5}"", ""task_payment"": 1, ""task_version"": 1, ""internal_node_id"": ""0.0-7.0-0.0-2.0"", ""time_elapsed"": 376509, ""imgName"": ""/static/images/celeba_gt_crop/intelligent/069096.jpg"", ""questions"": ""[{\""prompt\"":\""<p>How <b>intelligent</b> does this person look to <b>most people</b>? Rate from 1-9</p>\"",\""labels\"":[\""1 <br/>Not intelligent at all\"",\""2\"",\""3\"",\""4\"",\""5\"",\""6\"",\""7\"",\""8\"",\""9  <br/>Extremely intelligent\""],\""required\"":true}]"", ""task_unique_trial"": 100, ""task_name"": ""intelligent-gt"", ""trial_index"": 59, ""isRepeat"": 0}"
AARRC49LFF1O:3YDGXNSEO113X8K92KBS2EN0I0784Z,60,1547945966988,"{""rt"": 4739, ""trial_type"": ""face-likert-amanda"", ""debug_mode"": ""live"", ""task_type"": ""face trials"", ""responses"": ""{\""Q0\"":7}"", ""task_payment"": 1, ""task_version"": 1, ""internal_node_id"": ""0.0-7.0-0.0-3.0"", ""time_elapsed"": 381252, ""imgName"": ""/static/images/celeba_gt_crop/intelligent/171826.jpg"", ""questions"": ""[{\""prompt\"":\""<p>How <b>intelligent</b> does this person look to <b>most people</b>? Rate from 1-9</p>\"",\""labels\"":[\""1 <br/>Not intelligent at all\"",\""2\"",\""3\"",\""4\"",\""5\"",\""6\"",\""7\"",\""8\"",\""9  <br/>Extremely intelligent\""],\""required\"":true}]"", ""task_unique_trial"": 100, ""task_name"": ""intelligent-gt"", ""trial_index"": 60, ""isRepeat"": 0}"
AARRC49LFF1O:3YDGXNSEO113X8K92KBS2EN0I0784Z,61,1547945971363,"{""rt"": 4370, ""trial_type"": ""face-likert-amanda"", ""debug_mode"": ""live"", ""task_type"": ""face trials"", ""responses"": ""{\""Q0\"":7}"", ""task_payment"": 1, ""task_version"": 1, ""internal_node_id"": ""0.0-7.0-0.0-4.0"", ""time_elapsed"": 385627, ""imgName"": ""/static/images/celeba_gt_crop/intelligent/027687.jpg"", ""questions"": ""[{\""prompt\"":\""<p>How <b>intelligent</b> does this person look to <b>most people</b>? Rate from 1-9</p>\"",\""labels\"":[\""1 <br/>Not intelligent at all\"",\""2\"",\""3\"",\""4\"",\""5\"",\""6\"",\""7\"",\""8\"",\""9  <br/>Extremely intelligent\""],\""required\"":true}]"", ""task_unique_trial"": 100, ""task_name"": ""intelligent-gt"", ""trial_index"": 61, ""isRepeat"": 0}"
AARRC49LFF1O:3YDGXNSEO113X8K92KBS2EN0I0784Z,62,1547945976475,"{""rt"": 5106, ""trial_type"": ""face-likert-amanda"", ""debug_mode"": ""live"", ""task_type"": ""face trials"", ""responses"": ""{\""Q0\"":6}"", ""task_payment"": 1, ""task_version"": 1, ""internal_node_id"": ""0.0-7.0-0.0-5.0"", ""time_elapsed"": 390740, ""imgName"": ""/static/images/celeba_gt_crop/intelligent/171257.jpg"", ""questions"": ""[{\""prompt\"":\""<p>How <b>intelligent</b> does this person look to <b>most people</b>? Rate from 1-9</p>\"",\""labels\"":[\""1 <br/>Not intelligent at all\"",\""2\"",\""3\"",\""4\"",\""5\"",\""6\"",\""7\"",\""8\"",\""9  <br/>Extremely intelligent\""],\""required\"":true}]"", ""task_unique_trial"": 100, ""task_name"": ""intelligent-gt"", ""trial_index"": 62, ""isRepeat"": 0}"
AARRC49LFF1O:3YDGXNSEO113X8K92KBS2EN0I0784Z,63,1547945980987,"{""rt"": 4506, ""trial_type"": ""face-likert-amanda"", ""debug_mode"": ""live"", ""task_type"": ""face trials"", ""responses"": ""{\""Q0\"":7}"", ""task_payment"": 1, ""task_version"": 1, ""internal_node_id"": ""0.0-7.0-0.0-6.0"", ""time_elapsed"": 395252, ""imgName"": ""/static/images/celeba_gt_crop/intelligent/078663.jpg"", ""questions"": ""[{\""prompt\"":\""<p>How <b>intelligent</b> does this person look to <b>most people</b>? Rate from 1-9</p>\"",\""labels\"":[\""1 <br/>Not intelligent at all\"",\""2\"",\""3\"",\""4\"",\""5\"",\""6\"",\""7\"",\""8\"",\""9  <br/>Extremely intelligent\""],\""required\"":true}]"", ""task_unique_trial"": 100, ""task_name"": ""intelligent-gt"", ""trial_index"": 63, ""isRepeat"": 0}"
AARRC49LFF1O:3YDGXNSEO113X8K92KBS2EN0I0784Z,64,1547945986811,"{""rt"": 5819, ""trial_type"": ""face-likert-amanda"", ""debug_mode"": ""live"", ""task_type"": ""face trials"", ""responses"": ""{\""Q0\"":6}"", ""task_payment"": 1, ""task_version"": 1, ""internal_node_id"": ""0.0-7.0-0.0-7.0"", ""time_elapsed"": 401076, ""imgName"": ""/static/images/celeba_gt_crop/intelligent/122478.jpg"", ""questions"": ""[{\""prompt\"":\""<p>How <b>intelligent</b> does this person look to <b>most people</b>? Rate from 1-9</p>\"",\""labels\"":[\""1 <br/>Not intelligent at all\"",\""2\"",\""3\"",\""4\"",\""5\"",\""6\"",\""7\"",\""8\"",\""9  <br/>Extremely intelligent\""],\""required\"":true}]"", ""task_unique_trial"": 100, ""task_name"": ""intelligent-gt"", ""trial_index"": 64, ""isRepeat"": 0}"
AARRC49LFF1O:3YDGXNSEO113X8K92KBS2EN0I0784Z,65,1547946012500,"{""rt"": 25683, ""trial_type"": ""face-likert-amanda"", ""debug_mode"": ""live"", ""task_type"": ""face trials"", ""responses"": ""{\""Q0\"":7}"", ""task_payment"": 1, ""task_version"": 1, ""internal_node_id"": ""0.0-7.0-0.0-8.0"", ""time_elapsed"": 426765, ""imgName"": ""/static/images/celeba_gt_crop/intelligent/070908.jpg"", ""questions"": ""[{\""prompt\"":\""<p>How <b>intelligent</b> does this person look to <b>most people</b>? Rate from 1-9</p>\"",\""labels\"":[\""1 <br/>Not intelligent at all\"",\""2\"",\""3\"",\""4\"",\""5\"",\""6\"",\""7\"",\""8\"",\""9  <br/>Extremely intelligent\""],\""required\"":true}]"", ""task_unique_trial"": 100, ""task_name"": ""intelligent-gt"", ""trial_index"": 65, ""isRepeat"": 0}"
AARRC49LFF1O:3YDGXNSEO113X8K92KBS2EN0I0784Z,66,1547946042731,"{""rt"": 30225, ""trial_type"": ""face-likert-amanda"", ""debug_mode"": ""live"", ""task_type"": ""face trials"", ""responses"": ""{\""Q0\"":7}"", ""task_payment"": 1, ""task_version"": 1, ""internal_node_id"": ""0.0-7.0-0.0-9.0"", ""time_elapsed"": 456995, ""imgName"": ""/static/images/celeba_gt_crop/intelligent/116443.jpg"", ""questions"": ""[{\""prompt\"":\""<p>How <b>intelligent</b> does this person look to <b>most people</b>? Rate from 1-9</p>\"",\""labels\"":[\""1 <br/>Not intelligent at all\"",\""2\"",\""3\"",\""4\"",\""5\"",\""6\"",\""7\"",\""8\"",\""9  <br/>Extremely intelligent\""],\""required\"":true}]"", ""task_unique_trial"": 100, ""task_name"": ""intelligent-gt"", ""trial_index"": 66, ""isRepeat"": 0}"
AARRC49LFF1O:3YDGXNSEO113X8K92KBS2EN0I0784Z,67,1547946043736,"{""rt"": null, ""trial_type"": ""html-keyboard-response"", ""task_unique_trial"": 100, ""stimulus"": ""<p>Good job!</p>"", ""task_version"": 1, ""internal_node_id"": ""0.0-7.0-1.0"", ""task_payment"": 1, ""time_elapsed"": 458001, ""debug_mode"": ""live"", ""key_press"": null, ""task_name"": ""intelligent-gt"", ""trial_index"": 67}"
AARRC49LFF1O:3YDGXNSEO113X8K92KBS2EN0I0784Z,68,1547946050473,"{""rt"": 6726, ""trial_type"": ""face-likert-amanda"", ""debug_mode"": ""live"", ""task_type"": ""face trials"", ""responses"": ""{\""Q0\"":7}"", ""task_payment"": 1, ""task_version"": 1, ""internal_node_id"": ""0.0-8.0-0.0-0.0"", ""time_elapsed"": 464731, ""imgName"": ""/static/images/celeba_gt_crop/intelligent/070908.jpg"", ""questions"": ""[{\""prompt\"":\""<p>How <b>intelligent</b> does this person look to <b>most people</b>? Rate from 1-9</p>\"",\""labels\"":[\""1 <br/>Not intelligent at all\"",\""2\"",\""3\"",\""4\"",\""5\"",\""6\"",\""7\"",\""8\"",\""9  <br/>Extremely intelligent\""],\""required\"":true}]"", ""task_unique_trial"": 100, ""task_name"": ""intelligent-gt"", ""trial_index"": 68, ""isRepeat"": 0}"
AARRC49LFF1O:3YDGXNSEO113X8K92KBS2EN0I0784Z,69,1547946054610,"{""rt"": 4131, ""trial_type"": ""face-likert-amanda"", ""debug_mode"": ""live"", ""task_type"": ""face trials"", ""responses"": ""{\""Q0\"":7}"", ""task_payment"": 1, ""task_version"": 1, ""internal_node_id"": ""0.0-8.0-0.0-1.0"", ""time_elapsed"": 468875, ""imgName"": ""/static/images/celeba_gt_crop/intelligent/030503.jpg"", ""questions"": ""[{\""prompt\"":\""<p>How <b>intelligent</b> does this person look to <b>most people</b>? Rate from 1-9</p>\"",\""labels\"":[\""1 <br/>Not intelligent at all\"",\""2\"",\""3\"",\""4\"",\""5\"",\""6\"",\""7\"",\""8\"",\""9  <br/>Extremely intelligent\""],\""required\"":true}]"", ""task_unique_trial"": 100, ""task_name"": ""intelligent-gt"", ""trial_index"": 69, ""isRepeat"": 0}"
AARRC49LFF1O:3YDGXNSEO113X8K92KBS2EN0I0784Z,70,1547946058841,"{""rt"": 4226, ""trial_type"": ""face-likert-amanda"", ""debug_mode"": ""live"", ""task_type"": ""face trials"", ""responses"": ""{\""Q0\"":6}"", ""task_payment"": 1, ""task_version"": 1, ""internal_node_id"": ""0.0-8.0-0.0-2.0"", ""time_elapsed"": 473106, ""imgName"": ""/static/images/celeba_gt_crop/intelligent/057478.jpg"", ""questions"": ""[{\""prompt\"":\""<p>How <b>intelligent</b> does this person look to <b>most people</b>? Rate from 1-9</p>\"",\""labels\"":[\""1 <br/>Not intelligent at all\"",\""2\"",\""3\"",\""4\"",\""5\"",\""6\"",\""7\"",\""8\"",\""9  <br/>Extremely intelligent\""],\""required\"":true}]"", ""task_unique_trial"": 100, ""task_name"": ""intelligent-gt"", ""trial_index"": 70, ""isRepeat"": 0}"
AARRC49LFF1O:3YDGXNSEO113X8K92KBS2EN0I0784Z,71,1547946064081,"{""rt"": 5235, ""trial_type"": ""face-likert-amanda"", ""debug_mode"": ""live"", ""task_type"": ""face trials"", ""responses"": ""{\""Q0\"":5}"", ""task_payment"": 1, ""task_version"": 1, ""internal_node_id"": ""0.0-8.0-0.0-3.0"", ""time_elapsed"": 478346, ""imgName"": ""/static/images/celeba_gt_crop/intelligent/016460.jpg"", ""questions"": ""[{\""prompt\"":\""<p>How <b>intelligent</b> does this person look to <b>most people</b>? Rate from 1-9</p>\"",\""labels\"":[\""1 <br/>Not intelligent at all\"",\""2\"",\""3\"",\""4\"",\""5\"",\""6\"",\""7\"",\""8\"",\""9  <br/>Extremely intelligent\""],\""required\"":true}]"", ""task_unique_trial"": 100, ""task_name"": ""intelligent-gt"", ""trial_index"": 71, ""isRepeat"": 0}"
AARRC49LFF1O:3YDGXNSEO113X8K92KBS2EN0I0784Z,72,1547946068068,"{""rt"": 3982, ""trial_type"": ""face-likert-amanda"", ""debug_mode"": ""live"", ""task_type"": ""face trials"", ""responses"": ""{\""Q0\"":7}"", ""task_payment"": 1, ""task_version"": 1, ""internal_node_id"": ""0.0-8.0-0.0-4.0"", ""time_elapsed"": 482333, ""imgName"": ""/static/images/celeba_gt_crop/intelligent/130873.jpg"", ""questions"": ""[{\""prompt\"":\""<p>How <b>intelligent</b> does this person look to <b>most people</b>? Rate from 1-9</p>\"",\""labels\"":[\""1 <br/>Not intelligent at all\"",\""2\"",\""3\"",\""4\"",\""5\"",\""6\"",\""7\"",\""8\"",\""9  <br/>Extremely intelligent\""],\""required\"":true}]"", ""task_unique_trial"": 100, ""task_name"": ""intelligent-gt"", ""trial_index"": 72, ""isRepeat"": 0}"
AARRC49LFF1O:3YDGXNSEO113X8K92KBS2EN0I0784Z,73,1547946074716,"{""rt"": 6641, ""trial_type"": ""face-likert-amanda"", ""debug_mode"": ""live"", ""task_type"": ""face trials"", ""responses"": ""{\""Q0\"":7}"", ""task_payment"": 1, ""task_version"": 1, ""internal_node_id"": ""0.0-8.0-0.0-5.0"", ""time_elapsed"": 488981, ""imgName"": ""/static/images/celeba_gt_crop/intelligent/033708.jpg"", ""questions"": ""[{\""prompt\"":\""<p>How <b>intelligent</b> does this person look to <b>most people</b>? Rate from 1-9</p>\"",\""labels\"":[\""1 <br/>Not intelligent at all\"",\""2\"",\""3\"",\""4\"",\""5\"",\""6\"",\""7\"",\""8\"",\""9  <br/>Extremely intelligent\""],\""required\"":true}]"", ""task_unique_trial"": 100, ""task_name"": ""intelligent-gt"", ""trial_index"": 73, ""isRepeat"": 0}"
AARRC49LFF1O:3YDGXNSEO113X8K92KBS2EN0I0784Z,74,1547946080212,"{""rt"": 5490, ""trial_type"": ""face-likert-amanda"", ""debug_mode"": ""live"", ""task_type"": ""face trials"", ""responses"": ""{\""Q0\"":7}"", ""task_payment"": 1, ""task_version"": 1, ""internal_node_id"": ""0.0-8.0-0.0-6.0"", ""time_elapsed"": 494477, ""imgName"": ""/static/images/celeba_gt_crop/intelligent/048695.jpg"", ""questions"": ""[{\""prompt\"":\""<p>How <b>intelligent</b> does this person look to <b>most people</b>? Rate from 1-9</p>\"",\""labels\"":[\""1 <br/>Not intelligent at all\"",\""2\"",\""3\"",\""4\"",\""5\"",\""6\"",\""7\"",\""8\"",\""9  <br/>Extremely intelligent\""],\""required\"":true}]"", ""task_unique_trial"": 100, ""task_name"": ""intelligent-gt"", ""trial_index"": 74, ""isRepeat"": 0}"
AARRC49LFF1O:3YDGXNSEO113X8K92KBS2EN0I0784Z,75,1547946087188,"{""rt"": 6970, ""trial_type"": ""face-likert-amanda"", ""debug_mode"": ""live"", ""task_type"": ""face trials"", ""responses"": ""{\""Q0\"":6}"", ""task_payment"": 1, ""task_version"": 1, ""internal_node_id"": ""0.0-8.0-0.0-7.0"", ""time_elapsed"": 501453, ""imgName"": ""/static/images/celeba_gt_crop/intelligent/020874.jpg"", ""questions"": ""[{\""prompt\"":\""<p>How <b>intelligent</b> does this person look to <b>most people</b>? Rate from 1-9</p>\"",\""labels\"":[\""1 <br/>Not intelligent at all\"",\""2\"",\""3\"",\""4\"",\""5\"",\""6\"",\""7\"",\""8\"",\""9  <br/>Extremely intelligent\""],\""required\"":true}]"", ""task_unique_trial"": 100, ""task_name"": ""intelligent-gt"", ""trial_index"": 75, ""isRepeat"": 0}"
AARRC49LFF1O:3YDGXNSEO113X8K92KBS2EN0I0784Z,76,1547946091211,"{""rt"": 4018, ""trial_type"": ""face-likert-amanda"", ""debug_mode"": ""live"", ""task_type"": ""face trials"", ""responses"": ""{\""Q0\"":6}"", ""task_payment"": 1, ""task_version"": 1, ""internal_node_id"": ""0.0-8.0-0.0-8.0"", ""time_elapsed"": 505476, ""imgName"": ""/static/images/celeba_gt_crop/intelligent/060748.jpg"", ""questions"": ""[{\""prompt\"":\""<p>How <b>intelligent</b> does this person look to <b>most people</b>? Rate from 1-9</p>\"",\""labels\"":[\""1 <br/>Not intelligent at all\"",\""2\"",\""3\"",\""4\"",\""5\"",\""6\"",\""7\"",\""8\"",\""9  <br/>Extremely intelligent\""],\""required\"":true}]"", ""task_unique_trial"": 100, ""task_name"": ""intelligent-gt"", ""trial_index"": 76, ""isRepeat"": 0}"
AARRC49LFF1O:3YDGXNSEO113X8K92KBS2EN0I0784Z,77,1547946100386,"{""rt"": 9169, ""trial_type"": ""face-likert-amanda"", ""debug_mode"": ""live"", ""task_type"": ""face trials"", ""responses"": ""{\""Q0\"":6}"", ""task_payment"": 1, ""task_version"": 1, ""internal_node_id"": ""0.0-8.0-0.0-9.0"", ""time_elapsed"": 514651, ""imgName"": ""/static/images/celeba_gt_crop/intelligent/114506.jpg"", ""questions"": ""[{\""prompt\"":\""<p>How <b>intelligent</b> does this person look to <b>most people</b>? Rate from 1-9</p>\"",\""labels\"":[\""1 <br/>Not intelligent at all\"",\""2\"",\""3\"",\""4\"",\""5\"",\""6\"",\""7\"",\""8\"",\""9  <br/>Extremely intelligent\""],\""required\"":true}]"", ""task_unique_trial"": 100, ""task_name"": ""intelligent-gt"", ""trial_index"": 77, ""isRepeat"": 0}"
AARRC49LFF1O:3YDGXNSEO113X8K92KBS2EN0I0784Z,78,1547946102391,"{""rt"": null, ""trial_type"": ""html-keyboard-response"", ""task_unique_trial"": 100, ""stimulus"": ""<p>Good job!</p>"", ""task_version"": 1, ""internal_node_id"": ""0.0-8.0-1.0"", ""task_payment"": 1, ""time_elapsed"": 516656, ""debug_mode"": ""live"", ""key_press"": null, ""task_name"": ""intelligent-gt"", ""trial_index"": 78}"
AARRC49LFF1O:3YDGXNSEO113X8K92KBS2EN0I0784Z,79,1547946107491,"{""rt"": 5094, ""trial_type"": ""face-likert-amanda"", ""debug_mode"": ""live"", ""task_type"": ""face trials"", ""responses"": ""{\""Q0\"":7}"", ""task_payment"": 1, ""task_version"": 1, ""internal_node_id"": ""0.0-9.0-0.0-0.0"", ""time_elapsed"": 521756, ""imgName"": ""/static/images/celeba_gt_crop/intelligent/118886.jpg"", ""questions"": ""[{\""prompt\"":\""<p>How <b>intelligent</b> does this person look to <b>most people</b>? Rate from 1-9</p>\"",\""labels\"":[\""1 <br/>Not intelligent at all\"",\""2\"",\""3\"",\""4\"",\""5\"",\""6\"",\""7\"",\""8\"",\""9  <br/>Extremely intelligent\""],\""required\"":true}]"", ""task_unique_trial"": 100, ""task_name"": ""intelligent-gt"", ""trial_index"": 79, ""isRepeat"": 0}"
AARRC49LFF1O:3YDGXNSEO113X8K92KBS2EN0I0784Z,80,1547946113098,"{""rt"": 5602, ""trial_type"": ""face-likert-amanda"", ""debug_mode"": ""live"", ""task_type"": ""face trials"", ""responses"": ""{\""Q0\"":6}"", ""task_payment"": 1, ""task_version"": 1, ""internal_node_id"": ""0.0-9.0-0.0-1.0"", ""time_elapsed"": 527362, ""imgName"": ""/static/images/celeba_gt_crop/intelligent/135747.jpg"", ""questions"": ""[{\""prompt\"":\""<p>How <b>intelligent</b> does this person look to <b>most people</b>? Rate from 1-9</p>\"",\""labels\"":[\""1 <br/>Not intelligent at all\"",\""2\"",\""3\"",\""4\"",\""5\"",\""6\"",\""7\"",\""8\"",\""9  <br/>Extremely intelligent\""],\""required\"":true}]"", ""task_unique_trial"": 100, ""task_name"": ""intelligent-gt"", ""trial_index"": 80, ""isRepeat"": 0}"
AARRC49LFF1O:3YDGXNSEO113X8K92KBS2EN0I0784Z,81,1547946121138,"{""rt"": 8034, ""trial_type"": ""face-likert-amanda"", ""debug_mode"": ""live"", ""task_type"": ""face trials"", ""responses"": ""{\""Q0\"":6}"", ""task_payment"": 1, ""task_version"": 1, ""internal_node_id"": ""0.0-9.0-0.0-2.0"", ""time_elapsed"": 535403, ""imgName"": ""/static/images/celeba_gt_crop/intelligent/103511.jpg"", ""questions"": ""[{\""prompt\"":\""<p>How <b>intelligent</b> does this person look to <b>most people</b>? Rate from 1-9</p>\"",\""labels\"":[\""1 <br/>Not intelligent at all\"",\""2\"",\""3\"",\""4\"",\""5\"",\""6\"",\""7\"",\""8\"",\""9  <br/>Extremely intelligent\""],\""required\"":true}]"", ""task_unique_trial"": 100, ""task_name"": ""intelligent-gt"", ""trial_index"": 81, ""isRepeat"": 0}"
AARRC49LFF1O:3YDGXNSEO113X8K92KBS2EN0I0784Z,82,1547946129275,"{""rt"": 8133, ""trial_type"": ""face-likert-amanda"", ""debug_mode"": ""live"", ""task_type"": ""face trials"", ""responses"": ""{\""Q0\"":6}"", ""task_payment"": 1, ""task_version"": 1, ""internal_node_id"": ""0.0-9.0-0.0-3.0"", ""time_elapsed"": 543540, ""imgName"": ""/static/images/celeba_gt_crop/intelligent/136091.jpg"", ""questions"": ""[{\""prompt\"":\""<p>How <b>intelligent</b> does this person look to <b>most people</b>? Rate from 1-9</p>\"",\""labels\"":[\""1 <br/>Not intelligent at all\"",\""2\"",\""3\"",\""4\"",\""5\"",\""6\"",\""7\"",\""8\"",\""9  <br/>Extremely intelligent\""],\""required\"":true}]"", ""task_unique_trial"": 100, ""task_name"": ""intelligent-gt"", ""trial_index"": 82, ""isRepeat"": 0}"
AARRC49LFF1O:3YDGXNSEO113X8K92KBS2EN0I0784Z,83,1547946132899,"{""rt"": 3619, ""trial_type"": ""face-likert-amanda"", ""debug_mode"": ""live"", ""task_type"": ""face trials"", ""responses"": ""{\""Q0\"":5}"", ""task_payment"": 1, ""task_version"": 1, ""internal_node_id"": ""0.0-9.0-0.0-4.0"", ""time_elapsed"": 547164, ""imgName"": ""/static/images/celeba_gt_crop/intelligent/127312.jpg"", ""questions"": ""[{\""prompt\"":\""<p>How <b>intelligent</b> does this person look to <b>most people</b>? Rate from 1-9</p>\"",\""labels\"":[\""1 <br/>Not intelligent at all\"",\""2\"",\""3\"",\""4\"",\""5\"",\""6\"",\""7\"",\""8\"",\""9  <br/>Extremely intelligent\""],\""required\"":true}]"", ""task_unique_trial"": 100, ""task_name"": ""intelligent-gt"", ""trial_index"": 83, ""isRepeat"": 0}"
AARRC49LFF1O:3YDGXNSEO113X8K92KBS2EN0I0784Z,84,1547946138946,"{""rt"": 6042, ""trial_type"": ""face-likert-amanda"", ""debug_mode"": ""live"", ""task_type"": ""face trials"", ""responses"": ""{\""Q0\"":5}"", ""task_payment"": 1, ""task_version"": 1, ""internal_node_id"": ""0.0-9.0-0.0-5.0"", ""time_elapsed"": 553211, ""imgName"": ""/static/images/celeba_gt_crop/intelligent/040400.jpg"", ""questions"": ""[{\""prompt\"":\""<p>How <b>intelligent</b> does this person look to <b>most people</b>? Rate from 1-9</p>\"",\""labels\"":[\""1 <br/>Not intelligent at all\"",\""2\"",\""3\"",\""4\"",\""5\"",\""6\"",\""7\"",\""8\"",\""9  <br/>Extremely intelligent\""],\""required\"":true}]"", ""task_unique_trial"": 100, ""task_name"": ""intelligent-gt"", ""trial_index"": 84, ""isRepeat"": 0}"
AARRC49LFF1O:3YDGXNSEO113X8K92KBS2EN0I0784Z,85,1547946142738,"{""rt"": 3785, ""trial_type"": ""face-likert-amanda"", ""debug_mode"": ""live"", ""task_type"": ""face trials"", ""responses"": ""{\""Q0\"":6}"", ""task_payment"": 1, ""task_version"": 1, ""internal_node_id"": ""0.0-9.0-0.0-6.0"", ""time_elapsed"": 557003, ""imgName"": ""/static/images/celeba_gt_crop/intelligent/064300.jpg"", ""questions"": ""[{\""prompt\"":\""<p>How <b>intelligent</b> does this person look to <b>most people</b>? Rate from 1-9</p>\"",\""labels\"":[\""1 <br/>Not intelligent at all\"",\""2\"",\""3\"",\""4\"",\""5\"",\""6\"",\""7\"",\""8\"",\""9  <br/>Extremely intelligent\""],\""required\"":true}]"", ""task_unique_trial"": 100, ""task_name"": ""intelligent-gt"", ""trial_index"": 85, ""isRepeat"": 0}"
AARRC49LFF1O:3YDGXNSEO113X8K92KBS2EN0I0784Z,86,1547946148675,"{""rt"": 5932, ""trial_type"": ""face-likert-amanda"", ""debug_mode"": ""live"", ""task_type"": ""face trials"", ""responses"": ""{\""Q0\"":5}"", ""task_payment"": 1, ""task_version"": 1, ""internal_node_id"": ""0.0-9.0-0.0-7.0"", ""time_elapsed"": 562940, ""imgName"": ""/static/images/celeba_gt_crop/intelligent/123983.jpg"", ""questions"": ""[{\""prompt\"":\""<p>How <b>intelligent</b> does this person look to <b>most people</b>? Rate from 1-9</p>\"",\""labels\"":[\""1 <br/>Not intelligent at all\"",\""2\"",\""3\"",\""4\"",\""5\"",\""6\"",\""7\"",\""8\"",\""9  <br/>Extremely intelligent\""],\""required\"":true}]"", ""task_unique_trial"": 100, ""task_name"": ""intelligent-gt"", ""trial_index"": 86, ""isRepeat"": 0}"
AARRC49LFF1O:3YDGXNSEO113X8K92KBS2EN0I0784Z,87,1547946153962,"{""rt"": 5282, ""trial_type"": ""face-likert-amanda"", ""debug_mode"": ""live"", ""task_type"": ""face trials"", ""responses"": ""{\""Q0\"":6}"", ""task_payment"": 1, ""task_version"": 1, ""internal_node_id"": ""0.0-9.0-0.0-8.0"", ""time_elapsed"": 568227, ""imgName"": ""/static/images/celeba_gt_crop/intelligent/189212.jpg"", ""questions"": ""[{\""prompt\"":\""<p>How <b>intelligent</b> does this person look to <b>most people</b>? Rate from 1-9</p>\"",\""labels\"":[\""1 <br/>Not intelligent at all\"",\""2\"",\""3\"",\""4\"",\""5\"",\""6\"",\""7\"",\""8\"",\""9  <br/>Extremely intelligent\""],\""required\"":true}]"", ""task_unique_trial"": 100, ""task_name"": ""intelligent-gt"", ""trial_index"": 87, ""isRepeat"": 0}"
AARRC49LFF1O:3YDGXNSEO113X8K92KBS2EN0I0784Z,88,1547946158298,"{""rt"": 4330, ""trial_type"": ""face-likert-amanda"", ""debug_mode"": ""live"", ""task_type"": ""face trials"", ""responses"": ""{\""Q0\"":7}"", ""task_payment"": 1, ""task_version"": 1, ""internal_node_id"": ""0.0-9.0-0.0-9.0"", ""time_elapsed"": 572563, ""imgName"": ""/static/images/celeba_gt_crop/intelligent/058057.jpg"", ""questions"": ""[{\""prompt\"":\""<p>How <b>intelligent</b> does this person look to <b>most people</b>? Rate from 1-9</p>\"",\""labels\"":[\""1 <br/>Not intelligent at all\"",\""2\"",\""3\"",\""4\"",\""5\"",\""6\"",\""7\"",\""8\"",\""9  <br/>Extremely intelligent\""],\""required\"":true}]"", ""task_unique_trial"": 100, ""task_name"": ""intelligent-gt"", ""trial_index"": 88, ""isRepeat"": 0}"
AARRC49LFF1O:3YDGXNSEO113X8K92KBS2EN0I0784Z,89,1547946159801,"{""rt"": null, ""trial_type"": ""html-keyboard-response"", ""task_unique_trial"": 100, ""stimulus"": ""<p>Good job!</p>"", ""task_version"": 1, ""internal_node_id"": ""0.0-9.0-1.0"", ""task_payment"": 1, ""time_elapsed"": 574066, ""debug_mode"": ""live"", ""key_press"": null, ""task_name"": ""intelligent-gt"", ""trial_index"": 89}"
AARRC49LFF1O:3YDGXNSEO113X8K92KBS2EN0I0784Z,90,1547946164298,"{""rt"": 4492, ""trial_type"": ""face-likert-amanda"", ""debug_mode"": ""live"", ""task_type"": ""face trials"", ""responses"": ""{\""Q0\"":5}"", ""task_payment"": 1, ""task_version"": 1, ""internal_node_id"": ""0.0-10.0-0.0-0.0"", ""time_elapsed"": 578562, ""imgName"": ""/static/images/celeba_gt_crop/intelligent/024915.jpg"", ""questions"": ""[{\""prompt\"":\""<p>How <b>intelligent</b> does this person look to <b>most people</b>? Rate from 1-9</p>\"",\""labels\"":[\""1 <br/>Not intelligent at all\"",\""2\"",\""3\"",\""4\"",\""5\"",\""6\"",\""7\"",\""8\"",\""9  <br/>Extremely intelligent\""],\""required\"":true}]"", ""task_unique_trial"": 100, ""task_name"": ""intelligent-gt"", ""trial_index"": 90, ""isRepeat"": 0}"
AARRC49LFF1O:3YDGXNSEO113X8K92KBS2EN0I0784Z,91,1547946169289,"{""rt"": 4986, ""trial_type"": ""face-likert-amanda"", ""debug_mode"": ""live"", ""task_type"": ""face trials"", ""responses"": ""{\""Q0\"":5}"", ""task_payment"": 1, ""task_version"": 1, ""internal_node_id"": ""0.0-10.0-0.0-1.0"", ""time_elapsed"": 583554, ""imgName"": ""/static/images/celeba_gt_crop/intelligent/160870.jpg"", ""questions"": ""[{\""prompt\"":\""<p>How <b>intelligent</b> does this person look to <b>most people</b>? Rate from 1-9</p>\"",\""labels\"":[\""1 <br/>Not intelligent at all\"",\""2\"",\""3\"",\""4\"",\""5\"",\""6\"",\""7\"",\""8\"",\""9  <br/>Extremely intelligent\""],\""required\"":true}]"", ""task_unique_trial"": 100, ""task_name"": ""intelligent-gt"", ""trial_index"": 91, ""isRepeat"": 0}"
AARRC49LFF1O:3YDGXNSEO113X8K92KBS2EN0I0784Z,92,1547946173626,"{""rt"": 4331, ""trial_type"": ""face-likert-amanda"", ""debug_mode"": ""live"", ""task_type"": ""face trials"", ""responses"": ""{\""Q0\"":6}"", ""task_payment"": 1, ""task_version"": 1, ""internal_node_id"": ""0.0-10.0-0.0-2.0"", ""time_elapsed"": 587891, ""imgName"": ""/static/images/celeba_gt_crop/intelligent/012976.jpg"", ""questions"": ""[{\""prompt\"":\""<p>How <b>intelligent</b> does this person look to <b>most people</b>? Rate from 1-9</p>\"",\""labels\"":[\""1 <br/>Not intelligent at all\"",\""2\"",\""3\"",\""4\"",\""5\"",\""6\"",\""7\"",\""8\"",\""9  <br/>Extremely intelligent\""],\""required\"":true}]"", ""task_unique_trial"": 100, ""task_name"": ""intelligent-gt"", ""trial_index"": 92, ""isRepeat"": 0}"
AARRC49LFF1O:3YDGXNSEO113X8K92KBS2EN0I0784Z,93,1547946178233,"{""rt"": 4603, ""trial_type"": ""face-likert-amanda"", ""debug_mode"": ""live"", ""task_type"": ""face trials"", ""responses"": ""{\""Q0\"":6}"", ""task_payment"": 1, ""task_version"": 1, ""internal_node_id"": ""0.0-10.0-0.0-3.0"", ""time_elapsed"": 592498, ""imgName"": ""/static/images/celeba_gt_crop/intelligent/165297.jpg"", ""questions"": ""[{\""prompt\"":\""<p>How <b>intelligent</b> does this person look to <b>most people</b>? Rate from 1-9</p>\"",\""labels\"":[\""1 <br/>Not intelligent at all\"",\""2\"",\""3\"",\""4\"",\""5\"",\""6\"",\""7\"",\""8\"",\""9  <br/>Extremely intelligent\""],\""required\"":true}]"", ""task_unique_trial"": 100, ""task_name"": ""intelligent-gt"", ""trial_index"": 93, ""isRepeat"": 0}"
AARRC49LFF1O:3YDGXNSEO113X8K92KBS2EN0I0784Z,94,1547946183072,"{""rt"": 4833, ""trial_type"": ""face-likert-amanda"", ""debug_mode"": ""live"", ""task_type"": ""face trials"", ""responses"": ""{\""Q0\"":6}"", ""task_payment"": 1, ""task_version"": 1, ""internal_node_id"": ""0.0-10.0-0.0-4.0"", ""time_elapsed"": 597337, ""imgName"": ""/static/images/celeba_gt_crop/intelligent/020874.jpg"", ""questions"": ""[{\""prompt\"":\""<p>How <b>intelligent</b> does this person look to <b>most people</b>? Rate from 1-9</p>\"",\""labels\"":[\""1 <br/>Not intelligent at all\"",\""2\"",\""3\"",\""4\"",\""5\"",\""6\"",\""7\"",\""8\"",\""9  <br/>Extremely intelligent\""],\""required\"":true}]"", ""task_unique_trial"": 100, ""task_name"": ""intelligent-gt"", ""trial_index"": 94, ""isRepeat"": 0}"
AARRC49LFF1O:3YDGXNSEO113X8K92KBS2EN0I0784Z,95,1547946189892,"{""rt"": 6814, ""trial_type"": ""face-likert-amanda"", ""debug_mode"": ""live"", ""task_type"": ""face trials"", ""responses"": ""{\""Q0\"":7}"", ""task_payment"": 1, ""task_version"": 1, ""internal_node_id"": ""0.0-10.0-0.0-5.0"", ""time_elapsed"": 604157, ""imgName"": ""/static/images/celeba_gt_crop/intelligent/050840.jpg"", ""questions"": ""[{\""prompt\"":\""<p>How <b>intelligent</b> does this person look to <b>most people</b>? Rate from 1-9</p>\"",\""labels\"":[\""1 <br/>Not intelligent at all\"",\""2\"",\""3\"",\""4\"",\""5\"",\""6\"",\""7\"",\""8\"",\""9  <br/>Extremely intelligent\""],\""required\"":true}]"", ""task_unique_trial"": 100, ""task_name"": ""intelligent-gt"", ""trial_index"": 95, ""isRepeat"": 0}"
AARRC49LFF1O:3YDGXNSEO113X8K92KBS2EN0I0784Z,96,1547946194340,"{""rt"": 4442, ""trial_type"": ""face-likert-amanda"", ""debug_mode"": ""live"", ""task_type"": ""face trials"", ""responses"": ""{\""Q0\"":7}"", ""task_payment"": 1, ""task_version"": 1, ""internal_node_id"": ""0.0-10.0-0.0-6.0"", ""time_elapsed"": 608605, ""imgName"": ""/static/images/celeba_gt_crop/intelligent/002854.jpg"", ""questions"": ""[{\""prompt\"":\""<p>How <b>intelligent</b> does this person look to <b>most people</b>? Rate from 1-9</p>\"",\""labels\"":[\""1 <br/>Not intelligent at all\"",\""2\"",\""3\"",\""4\"",\""5\"",\""6\"",\""7\"",\""8\"",\""9  <br/>Extremely intelligent\""],\""required\"":true}]"", ""task_unique_trial"": 100, ""task_name"": ""intelligent-gt"", ""trial_index"": 96, ""isRepeat"": 0}"
AARRC49LFF1O:3YDGXNSEO113X8K92KBS2EN0I0784Z,97,1547946199012,"{""rt"": 4666, ""trial_type"": ""face-likert-amanda"", ""debug_mode"": ""live"", ""task_type"": ""face trials"", ""responses"": ""{\""Q0\"":6}"", ""task_payment"": 1, ""task_version"": 1, ""internal_node_id"": ""0.0-10.0-0.0-7.0"", ""time_elapsed"": 613277, ""imgName"": ""/static/images/celeba_gt_crop/intelligent/199097.jpg"", ""questions"": ""[{\""prompt\"":\""<p>How <b>intelligent</b> does this person look to <b>most people</b>? Rate from 1-9</p>\"",\""labels\"":[\""1 <br/>Not intelligent at all\"",\""2\"",\""3\"",\""4\"",\""5\"",\""6\"",\""7\"",\""8\"",\""9  <br/>Extremely intelligent\""],\""required\"":true}]"", ""task_unique_trial"": 100, ""task_name"": ""intelligent-gt"", ""trial_index"": 97, ""isRepeat"": 0}"
AARRC49LFF1O:3YDGXNSEO113X8K92KBS2EN0I0784Z,98,1547946202323,"{""rt"": 3305, ""trial_type"": ""face-likert-amanda"", ""debug_mode"": ""live"", ""task_type"": ""face trials"", ""responses"": ""{\""Q0\"":6}"", ""task_payment"": 1, ""task_version"": 1, ""internal_node_id"": ""0.0-10.0-0.0-8.0"", ""time_elapsed"": 616588, ""imgName"": ""/static/images/celeba_gt_crop/intelligent/122478.jpg"", ""questions"": ""[{\""prompt\"":\""<p>How <b>intelligent</b> does this person look to <b>most people</b>? Rate from 1-9</p>\"",\""labels\"":[\""1 <br/>Not intelligent at all\"",\""2\"",\""3\"",\""4\"",\""5\"",\""6\"",\""7\"",\""8\"",\""9  <br/>Extremely intelligent\""],\""required\"":true}]"", ""task_unique_trial"": 100, ""task_name"": ""intelligent-gt"", ""trial_index"": 98, ""isRepeat"": 0}"
AARRC49LFF1O:3YDGXNSEO113X8K92KBS2EN0I0784Z,99,1547946207963,"{""rt"": 5636, ""trial_type"": ""face-likert-amanda"", ""debug_mode"": ""live"", ""task_type"": ""face trials"", ""responses"": ""{\""Q0\"":5}"", ""task_payment"": 1, ""task_version"": 1, ""internal_node_id"": ""0.0-10.0-0.0-9.0"", ""time_elapsed"": 622228, ""imgName"": ""/static/images/celeba_gt_crop/intelligent/123983.jpg"", ""questions"": ""[{\""prompt\"":\""<p>How <b>intelligent</b> does this person look to <b>most people</b>? Rate from 1-9</p>\"",\""labels\"":[\""1 <br/>Not intelligent at all\"",\""2\"",\""3\"",\""4\"",\""5\"",\""6\"",\""7\"",\""8\"",\""9  <br/>Extremely intelligent\""],\""required\"":true}]"", ""task_unique_trial"": 100, ""task_name"": ""intelligent-gt"", ""trial_index"": 99, ""isRepeat"": 0}"
AARRC49LFF1O:3YDGXNSEO113X8K92KBS2EN0I0784Z,100,1547946209968,"{""rt"": null, ""trial_type"": ""html-keyboard-response"", ""task_unique_trial"": 100, ""stimulus"": ""<p>Good job!</p>"", ""task_version"": 1, ""internal_node_id"": ""0.0-10.0-1.0"", ""task_payment"": 1, ""time_elapsed"": 624233, ""debug_mode"": ""live"", ""key_press"": null, ""task_name"": ""intelligent-gt"", ""trial_index"": 100}"
AARRC49LFF1O:3YDGXNSEO113X8K92KBS2EN0I0784Z,101,1547946213954,"{""rt"": 3981, ""trial_type"": ""face-likert-amanda"", ""debug_mode"": ""live"", ""task_type"": ""face trials"", ""responses"": ""{\""Q0\"":7}"", ""task_payment"": 1, ""task_version"": 1, ""internal_node_id"": ""0.0-11.0-0.0-0.0"", ""time_elapsed"": 628219, ""imgName"": ""/static/images/celeba_gt_crop/intelligent/128683.jpg"", ""questions"": ""[{\""prompt\"":\""<p>How <b>intelligent</b> does this person look to <b>most people</b>? Rate from 1-9</p>\"",\""labels\"":[\""1 <br/>Not intelligent at all\"",\""2\"",\""3\"",\""4\"",\""5\"",\""6\"",\""7\"",\""8\"",\""9  <br/>Extremely intelligent\""],\""required\"":true}]"", ""task_unique_trial"": 100, ""task_name"": ""intelligent-gt"", ""trial_index"": 101, ""isRepeat"": 0}"
AARRC49LFF1O:3YDGXNSEO113X8K92KBS2EN0I0784Z,102,1547946221386,"{""rt"": 7426, ""trial_type"": ""face-likert-amanda"", ""debug_mode"": ""live"", ""task_type"": ""face trials"", ""responses"": ""{\""Q0\"":5}"", ""task_payment"": 1, ""task_version"": 1, ""internal_node_id"": ""0.0-11.0-0.0-1.0"", ""time_elapsed"": 635651, ""imgName"": ""/static/images/celeba_gt_crop/intelligent/096298.jpg"", ""questions"": ""[{\""prompt\"":\""<p>How <b>intelligent</b> does this person look to <b>most people</b>? Rate from 1-9</p>\"",\""labels\"":[\""1 <br/>Not intelligent at all\"",\""2\"",\""3\"",\""4\"",\""5\"",\""6\"",\""7\"",\""8\"",\""9  <br/>Extremely intelligent\""],\""required\"":true}]"", ""task_unique_trial"": 100, ""task_name"": ""intelligent-gt"", ""trial_index"": 102, ""isRepeat"": 0}"
AARRC49LFF1O:3YDGXNSEO113X8K92KBS2EN0I0784Z,103,1547946226226,"{""rt"": 4835, ""trial_type"": ""face-likert-amanda"", ""debug_mode"": ""live"", ""task_type"": ""face trials"", ""responses"": ""{\""Q0\"":6}"", ""task_payment"": 1, ""task_version"": 1, ""internal_node_id"": ""0.0-11.0-0.0-2.0"", ""time_elapsed"": 640491, ""imgName"": ""/static/images/celeba_gt_crop/intelligent/058369.jpg"", ""questions"": ""[{\""prompt\"":\""<p>How <b>intelligent</b> does this person look to <b>most people</b>? Rate from 1-9</p>\"",\""labels\"":[\""1 <br/>Not intelligent at all\"",\""2\"",\""3\"",\""4\"",\""5\"",\""6\"",\""7\"",\""8\"",\""9  <br/>Extremely intelligent\""],\""required\"":true}]"", ""task_unique_trial"": 100, ""task_name"": ""intelligent-gt"", ""trial_index"": 103, ""isRepeat"": 0}"
AARRC49LFF1O:3YDGXNSEO113X8K92KBS2EN0I0784Z,104,1547946230690,"{""rt"": 4458, ""trial_type"": ""face-likert-amanda"", ""debug_mode"": ""live"", ""task_type"": ""face trials"", ""responses"": ""{\""Q0\"":6}"", ""task_payment"": 1, ""task_version"": 1, ""internal_node_id"": ""0.0-11.0-0.0-3.0"", ""time_elapsed"": 644954, ""imgName"": ""/static/images/celeba_gt_crop/intelligent/009366.jpg"", ""questions"": ""[{\""prompt\"":\""<p>How <b>intelligent</b> does this person look to <b>most people</b>? Rate from 1-9</p>\"",\""labels\"":[\""1 <br/>Not intelligent at all\"",\""2\"",\""3\"",\""4\"",\""5\"",\""6\"",\""7\"",\""8\"",\""9  <br/>Extremely intelligent\""],\""required\"":true}]"", ""task_unique_trial"": 100, ""task_name"": ""intelligent-gt"", ""trial_index"": 104, ""isRepeat"": 0}"
AARRC49LFF1O:3YDGXNSEO113X8K92KBS2EN0I0784Z,105,1547946235353,"{""rt"": 4657, ""trial_type"": ""face-likert-amanda"", ""debug_mode"": ""live"", ""task_type"": ""face trials"", ""responses"": ""{\""Q0\"":7}"", ""task_payment"": 1, ""task_version"": 1, ""internal_node_id"": ""0.0-11.0-0.0-4.0"", ""time_elapsed"": 649618, ""imgName"": ""/static/images/celeba_gt_crop/intelligent/171257.jpg"", ""questions"": ""[{\""prompt\"":\""<p>How <b>intelligent</b> does this person look to <b>most people</b>? Rate from 1-9</p>\"",\""labels\"":[\""1 <br/>Not intelligent at all\"",\""2\"",\""3\"",\""4\"",\""5\"",\""6\"",\""7\"",\""8\"",\""9  <br/>Extremely intelligent\""],\""required\"":true}]"", ""task_unique_trial"": 100, ""task_name"": ""intelligent-gt"", ""trial_index"": 105, ""isRepeat"": 0}"
AARRC49LFF1O:3YDGXNSEO113X8K92KBS2EN0I0784Z,106,1547946243313,"{""rt"": 7954, ""trial_type"": ""face-likert-amanda"", ""debug_mode"": ""live"", ""task_type"": ""face trials"", ""responses"": ""{\""Q0\"":7}"", ""task_payment"": 1, ""task_version"": 1, ""internal_node_id"": ""0.0-11.0-0.0-5.0"", ""time_elapsed"": 657578, ""imgName"": ""/static/images/celeba_gt_crop/intelligent/182358.jpg"", ""questions"": ""[{\""prompt\"":\""<p>How <b>intelligent</b> does this person look to <b>most people</b>? Rate from 1-9</p>\"",\""labels\"":[\""1 <br/>Not intelligent at all\"",\""2\"",\""3\"",\""4\"",\""5\"",\""6\"",\""7\"",\""8\"",\""9  <br/>Extremely intelligent\""],\""required\"":true}]"", ""task_unique_trial"": 100, ""task_name"": ""intelligent-gt"", ""trial_index"": 106, ""isRepeat"": 0}"
AARRC49LFF1O:3YDGXNSEO113X8K92KBS2EN0I0784Z,107,1547946246994,"{""rt"": 3673, ""trial_type"": ""face-likert-amanda"", ""debug_mode"": ""live"", ""task_type"": ""face trials"", ""responses"": ""{\""Q0\"":5}"", ""task_payment"": 1, ""task_version"": 1, ""internal_node_id"": ""0.0-11.0-0.0-6.0"", ""time_elapsed"": 661259, ""imgName"": ""/static/images/celeba_gt_crop/intelligent/133078.jpg"", ""questions"": ""[{\""prompt\"":\""<p>How <b>intelligent</b> does this person look to <b>most people</b>? Rate from 1-9</p>\"",\""labels\"":[\""1 <br/>Not intelligent at all\"",\""2\"",\""3\"",\""4\"",\""5\"",\""6\"",\""7\"",\""8\"",\""9  <br/>Extremely intelligent\""],\""required\"":true}]"", ""task_unique_trial"": 100, ""task_name"": ""intelligent-gt"", ""trial_index"": 107, ""isRepeat"": 0}"
AARRC49LFF1O:3YDGXNSEO113X8K92KBS2EN0I0784Z,108,1547946252195,"{""rt"": 5195, ""trial_type"": ""face-likert-amanda"", ""debug_mode"": ""live"", ""task_type"": ""face trials"", ""responses"": ""{\""Q0\"":5}"", ""task_payment"": 1, ""task_version"": 1, ""internal_node_id"": ""0.0-11.0-0.0-7.0"", ""time_elapsed"": 666460, ""imgName"": ""/static/images/celeba_gt_crop/intelligent/109934.jpg"", ""questions"": ""[{\""prompt\"":\""<p>How <b>intelligent</b> does this person look to <b>most people</b>? Rate from 1-9</p>\"",\""labels\"":[\""1 <br/>Not intelligent at all\"",\""2\"",\""3\"",\""4\"",\""5\"",\""6\"",\""7\"",\""8\"",\""9  <br/>Extremely intelligent\""],\""required\"":true}]"", ""task_unique_trial"": 100, ""task_name"": ""intelligent-gt"", ""trial_index"": 108, ""isRepeat"": 0}"
AARRC49LFF1O:3YDGXNSEO113X8K92KBS2EN0I0784Z,109,1547946255707,"{""rt"": 3507, ""trial_type"": ""face-likert-amanda"", ""debug_mode"": ""live"", ""task_type"": ""face trials"", ""responses"": ""{\""Q0\"":6}"", ""task_payment"": 1, ""task_version"": 1, ""internal_node_id"": ""0.0-11.0-0.0-8.0"", ""time_elapsed"": 669971, ""imgName"": ""/static/images/celeba_gt_crop/intelligent/055914.jpg"", ""questions"": ""[{\""prompt\"":\""<p>How <b>intelligent</b> does this person look to <b>most people</b>? Rate from 1-9</p>\"",\""labels\"":[\""1 <br/>Not intelligent at all\"",\""2\"",\""3\"",\""4\"",\""5\"",\""6\"",\""7\"",\""8\"",\""9  <br/>Extremely intelligent\""],\""required\"":true}]"", ""task_unique_trial"": 100, ""task_name"": ""intelligent-gt"", ""trial_index"": 109, ""isRepeat"": 0}"
AARRC49LFF1O:3YDGXNSEO113X8K92KBS2EN0I0784Z,110,1547946260123,"{""rt"": 4410, ""trial_type"": ""face-likert-amanda"", ""debug_mode"": ""live"", ""task_type"": ""face trials"", ""responses"": ""{\""Q0\"":5}"", ""task_payment"": 1, ""task_version"": 1, ""internal_node_id"": ""0.0-11.0-0.0-9.0"", ""time_elapsed"": 674387, ""imgName"": ""/static/images/celeba_gt_crop/intelligent/069096.jpg"", ""questions"": ""[{\""prompt\"":\""<p>How <b>intelligent</b> does this person look to <b>most people</b>? Rate from 1-9</p>\"",\""labels\"":[\""1 <br/>Not intelligent at all\"",\""2\"",\""3\"",\""4\"",\""5\"",\""6\"",\""7\"",\""8\"",\""9  <br/>Extremely intelligent\""],\""required\"":true}]"", ""task_unique_trial"": 100, ""task_name"": ""intelligent-gt"", ""trial_index"": 110, ""isRepeat"": 0}"
AARRC49LFF1O:3YDGXNSEO113X8K92KBS2EN0I0784Z,111,1547946261126,"{""rt"": null, ""trial_type"": ""html-keyboard-response"", ""task_unique_trial"": 100, ""stimulus"": ""<p>Good job!</p>"", ""task_version"": 1, ""internal_node_id"": ""0.0-11.0-1.0"", ""task_payment"": 1, ""time_elapsed"": 675391, ""debug_mode"": ""live"", ""key_press"": null, ""task_name"": ""intelligent-gt"", ""trial_index"": 111}"
AARRC49LFF1O:3YDGXNSEO113X8K92KBS2EN0I0784Z,112,1547946334538,"{""rt"": 73405, ""trial_type"": ""survey-text-req"", ""task_type"": ""feedback for HIT"", ""responses"": ""{\""Q0\"":\""Its  interesting,I love this task.\""}"", ""task_payment"": 1, ""task_version"": 1, ""internal_node_id"": ""0.0-12.0"", ""time_elapsed"": 748803, ""debug_mode"": ""live"", ""task_name"": ""intelligent-gt"", ""task_unique_trial"": 100, ""trial_index"": 112}"
ABL3H3O3BI8ZD:3MHW492WW2KHCA5SGHMYGMO8FPTMVD,0,1547945652164,"{""rt"": 38507, ""trial_type"": ""instructions"", ""view_history"": ""[{\""page_index\"":0,\""viewing_time\"":22055},{\""page_index\"":1,\""viewing_time\"":11891},{\""page_index\"":2,\""viewing_time\"":4560}]"", ""task_type"": ""instruction"", ""task_payment"": 1, ""task_version"": 1, ""internal_node_id"": ""0.0-0.0"", ""time_elapsed"": 38509, ""debug_mode"": ""live"", ""task_name"": ""intelligent-gt"", ""task_unique_trial"": 100, ""trial_index"": 0}"
ABL3H3O3BI8ZD:3MHW492WW2KHCA5SGHMYGMO8FPTMVD,1,1547945688242,"{""rt"": 36070, ""trial_type"": ""survey-multi-choice"", ""task_type"": ""demographic-multichoice"", ""responses"": ""{\""Q0\"":\""26-35\"",\""Q1\"":\""Female\"",\""Q2\"":\""No\"",\""Q3\"":\""2\"",\""Q4\"":\""White\"",\""Q5\"":\""Associate degree (e.g. AA, AS)\"",\""Q6\"":\""$50,000 - $74,999\""}"", ""task_payment"": 1, ""task_version"": 1, ""time_elapsed"": 74587, ""sanity_check_1_continue"": true, ""random_num"": 2, ""debug_mode"": ""live"", ""questions"": ""[{\""prompt\"":\""What is your age?\"",\""options\"":[\""Under 18\"",\""18-25\"",\""26-35\"",\""36-45\"",\""46-55\"",\""56+\""],\""required\"":true},{\""prompt\"":\""What is your gender?\"",\""options\"":[\""Male\"",\""Female\"",\""Other/Prefer not to say\""],\""required\"":true},{\""prompt\"":\""Are you of Hispanic, Latino, or Spanish origin?\"",\""options\"":[\""Yes\"",\""No\""],\""required\"":true},{\""prompt\"":\""Please choose the option that matches the number here: 2\"",\""options\"":[\""1\"",\""2\"",\""3\"",\""4\""],\""required\"":true},{\""prompt\"":\""How would you describe yourself?\"",\""options\"":[\""American Indian or Alaskan Native\"",\""Asian\"",\""Black or African-American\"",\""Native Hawaiian or Other Pacific Islander\"",\""White\""],\""required\"":true},{\""prompt\"":\""What is the highest degree or level of school you have completed? (If you&#8217;re currently enrolled in school, please indicate the highest degree you have received)\"",\""options\"":[\""Less than a high school diploma\"",\""High school degree or equivalent (e.g. GED)\"",\""Some college, no degree\"",\""Associate degree (e.g. AA, AS)\"",\""Bachelor&#8217;s degree (e.g. BA, BS) or above\""],\""required\"":true},{\""prompt\"":\""What is the total income of all members of your household?\"",\""options\"":[\""Less than $20,000\"",\""$20,000  - $49,999\"",\""$50,000 - $74,999\"",\""$75,000 and above\""],\""required\"":true}]"", ""internal_node_id"": ""0.0-1.0-0.0"", ""task_unique_trial"": 100, ""task_name"": ""intelligent-gt"", ""trial_index"": 1}"
ABL3H3O3BI8ZD:3MHW492WW2KHCA5SGHMYGMO8FPTMVD,2,1547945691456,"{""rt"": 3213, ""trial_type"": ""face-likert-amanda"", ""debug_mode"": ""live"", ""task_type"": ""face trials"", ""responses"": ""{\""Q0\"":5}"", ""task_payment"": 1, ""task_version"": 1, ""internal_node_id"": ""0.0-2.0-0.0-0.0"", ""time_elapsed"": 77801, ""imgName"": ""/static/images/celeba_gt_crop/intelligent/159474.jpg"", ""questions"": ""[{\""prompt\"":\""<p>How <b>intelligent</b> does this person look to <b>most people</b>? Rate from 1-9</p>\"",\""labels\"":[\""1 <br/>Not intelligent at all\"",\""2\"",\""3\"",\""4\"",\""5\"",\""6\"",\""7\"",\""8\"",\""9  <br/>Extremely intelligent\""],\""required\"":true}]"", ""task_unique_trial"": 100, ""task_name"": ""intelligent-gt"", ""trial_index"": 2, ""isRepeat"": 0}"
ABL3H3O3BI8ZD:3MHW492WW2KHCA5SGHMYGMO8FPTMVD,3,1547945694436,"{""rt"": 2979, ""trial_type"": ""face-likert-amanda"", ""debug_mode"": ""live"", ""task_type"": ""face trials"", ""responses"": ""{\""Q0\"":4}"", ""task_payment"": 1, ""task_version"": 1, ""internal_node_id"": ""0.0-2.0-0.0-1.0"", ""time_elapsed"": 80781, ""imgName"": ""/static/images/celeba_gt_crop/intelligent/118886.jpg"", ""questions"": ""[{\""prompt\"":\""<p>How <b>intelligent</b> does this person look to <b>most people</b>? Rate from 1-9</p>\"",\""labels\"":[\""1 <br/>Not intelligent at all\"",\""2\"",\""3\"",\""4\"",\""5\"",\""6\"",\""7\"",\""8\"",\""9  <br/>Extremely intelligent\""],\""required\"":true}]"", ""task_unique_trial"": 100, ""task_name"": ""intelligent-gt"", ""trial_index"": 3, ""isRepeat"": 0}"
ABL3H3O3BI8ZD:3MHW492WW2KHCA5SGHMYGMO8FPTMVD,4,1547945699255,"{""rt"": 4818, ""trial_type"": ""face-likert-amanda"", ""debug_mode"": ""live"", ""task_type"": ""face trials"", ""responses"": ""{\""Q0\"":6}"", ""task_payment"": 1, ""task_version"": 1, ""internal_node_id"": ""0.0-2.0-0.0-2.0"", ""time_elapsed"": 85600, ""imgName"": ""/static/images/celeba_gt_crop/intelligent/109934.jpg"", ""questions"": ""[{\""prompt\"":\""<p>How <b>intelligent</b> does this person look to <b>most people</b>? Rate from 1-9</p>\"",\""labels\"":[\""1 <br/>Not intelligent at all\"",\""2\"",\""3\"",\""4\"",\""5\"",\""6\"",\""7\"",\""8\"",\""9  <br/>Extremely intelligent\""],\""required\"":true}]"", ""task_unique_trial"": 100, ""task_name"": ""intelligent-gt"", ""trial_index"": 4, ""isRepeat"": 0}"
ABL3H3O3BI8ZD:3MHW492WW2KHCA5SGHMYGMO8FPTMVD,5,1547945702002,"{""rt"": 2746, ""trial_type"": ""face-likert-amanda"", ""debug_mode"": ""live"", ""task_type"": ""face trials"", ""responses"": ""{\""Q0\"":5}"", ""task_payment"": 1, ""task_version"": 1, ""internal_node_id"": ""0.0-2.0-0.0-3.0"", ""time_elapsed"": 88347, ""imgName"": ""/static/images/celeba_gt_crop/intelligent/165297.jpg"", ""questions"": ""[{\""prompt\"":\""<p>How <b>intelligent</b> does this person look to <b>most people</b>? Rate from 1-9</p>\"",\""labels\"":[\""1 <br/>Not intelligent at all\"",\""2\"",\""3\"",\""4\"",\""5\"",\""6\"",\""7\"",\""8\"",\""9  <br/>Extremely intelligent\""],\""required\"":true}]"", ""task_unique_trial"": 100, ""task_name"": ""intelligent-gt"", ""trial_index"": 5, ""isRepeat"": 0}"
ABL3H3O3BI8ZD:3MHW492WW2KHCA5SGHMYGMO8FPTMVD,6,1547945712983,"{""rt"": 10980, ""trial_type"": ""face-likert-amanda"", ""debug_mode"": ""live"", ""task_type"": ""face trials"", ""responses"": ""{\""Q0\"":6}"", ""task_payment"": 1, ""task_version"": 1, ""internal_node_id"": ""0.0-2.0-0.0-4.0"", ""time_elapsed"": 99328, ""imgName"": ""/static/images/celeba_gt_crop/intelligent/136091.jpg"", ""questions"": ""[{\""prompt\"":\""<p>How <b>intelligent</b> does this person look to <b>most people</b>? Rate from 1-9</p>\"",\""labels\"":[\""1 <br/>Not intelligent at all\"",\""2\"",\""3\"",\""4\"",\""5\"",\""6\"",\""7\"",\""8\"",\""9  <br/>Extremely intelligent\""],\""required\"":true}]"", ""task_unique_trial"": 100, ""task_name"": ""intelligent-gt"", ""trial_index"": 6, ""isRepeat"": 0}"
ABL3H3O3BI8ZD:3MHW492WW2KHCA5SGHMYGMO8FPTMVD,7,1547945716358,"{""rt"": 3375, ""trial_type"": ""face-likert-amanda"", ""debug_mode"": ""live"", ""task_type"": ""face trials"", ""responses"": ""{\""Q0\"":6}"", ""task_payment"": 1, ""task_version"": 1, ""internal_node_id"": ""0.0-2.0-0.0-5.0"", ""time_elapsed"": 102703, ""imgName"": ""/static/images/celeba_gt_crop/intelligent/030503.jpg"", ""questions"": ""[{\""prompt\"":\""<p>How <b>intelligent</b> does this person look to <b>most people</b>? Rate from 1-9</p>\"",\""labels\"":[\""1 <br/>Not intelligent at all\"",\""2\"",\""3\"",\""4\"",\""5\"",\""6\"",\""7\"",\""8\"",\""9  <br/>Extremely intelligent\""],\""required\"":true}]"", ""task_unique_trial"": 100, ""task_name"": ""intelligent-gt"", ""trial_index"": 7, ""isRepeat"": 0}"
ABL3H3O3BI8ZD:3MHW492WW2KHCA5SGHMYGMO8FPTMVD,8,1547945717677,"{""rt"": 1318, ""trial_type"": ""face-likert-amanda"", ""debug_mode"": ""live"", ""task_type"": ""face trials"", ""responses"": ""{\""Q0\"":5}"", ""task_payment"": 1, ""task_version"": 1, ""internal_node_id"": ""0.0-2.0-0.0-6.0"", ""time_elapsed"": 104022, ""imgName"": ""/static/images/celeba_gt_crop/intelligent/160218.jpg"", ""questions"": ""[{\""prompt\"":\""<p>How <b>intelligent</b> does this person look to <b>most people</b>? Rate from 1-9</p>\"",\""labels\"":[\""1 <br/>Not intelligent at all\"",\""2\"",\""3\"",\""4\"",\""5\"",\""6\"",\""7\"",\""8\"",\""9  <br/>Extremely intelligent\""],\""required\"":true}]"", ""task_unique_trial"": 100, ""task_name"": ""intelligent-gt"", ""trial_index"": 8, ""isRepeat"": 0}"
ABL3H3O3BI8ZD:3MHW492WW2KHCA5SGHMYGMO8FPTMVD,9,1547945719058,"{""rt"": 1380, ""trial_type"": ""face-likert-amanda"", ""debug_mode"": ""live"", ""task_type"": ""face trials"", ""responses"": ""{\""Q0\"":5}"", ""task_payment"": 1, ""task_version"": 1, ""internal_node_id"": ""0.0-2.0-0.0-7.0"", ""time_elapsed"": 105403, ""imgName"": ""/static/images/celeba_gt_crop/intelligent/110128.jpg"", ""questions"": ""[{\""prompt\"":\""<p>How <b>intelligent</b> does this person look to <b>most people</b>? Rate from 1-9</p>\"",\""labels\"":[\""1 <br/>Not intelligent at all\"",\""2\"",\""3\"",\""4\"",\""5\"",\""6\"",\""7\"",\""8\"",\""9  <br/>Extremely intelligent\""],\""required\"":true}]"", ""task_unique_trial"": 100, ""task_name"": ""intelligent-gt"", ""trial_index"": 9, ""isRepeat"": 0}"
ABL3H3O3BI8ZD:3MHW492WW2KHCA5SGHMYGMO8FPTMVD,10,1547945720288,"{""rt"": 1229, ""trial_type"": ""face-likert-amanda"", ""debug_mode"": ""live"", ""task_type"": ""face trials"", ""responses"": ""{\""Q0\"":5}"", ""task_payment"": 1, ""task_version"": 1, ""internal_node_id"": ""0.0-2.0-0.0-8.0"", ""time_elapsed"": 106633, ""imgName"": ""/static/images/celeba_gt_crop/intelligent/185318.jpg"", ""questions"": ""[{\""prompt\"":\""<p>How <b>intelligent</b> does this person look to <b>most people</b>? Rate from 1-9</p>\"",\""labels\"":[\""1 <br/>Not intelligent at all\"",\""2\"",\""3\"",\""4\"",\""5\"",\""6\"",\""7\"",\""8\"",\""9  <br/>Extremely intelligent\""],\""required\"":true}]"", ""task_unique_trial"": 100, ""task_name"": ""intelligent-gt"", ""trial_index"": 10, ""isRepeat"": 0}"
ABL3H3O3BI8ZD:3MHW492WW2KHCA5SGHMYGMO8FPTMVD,11,1547945721428,"{""rt"": 1138, ""trial_type"": ""face-likert-amanda"", ""debug_mode"": ""live"", ""task_type"": ""face trials"", ""responses"": ""{\""Q0\"":5}"", ""task_payment"": 1, ""task_version"": 1, ""internal_node_id"": ""0.0-2.0-0.0-9.0"", ""time_elapsed"": 107773, ""imgName"": ""/static/images/celeba_gt_crop/intelligent/163099.jpg"", ""questions"": ""[{\""prompt\"":\""<p>How <b>intelligent</b> does this person look to <b>most people</b>? Rate from 1-9</p>\"",\""labels\"":[\""1 <br/>Not intelligent at all\"",\""2\"",\""3\"",\""4\"",\""5\"",\""6\"",\""7\"",\""8\"",\""9  <br/>Extremely intelligent\""],\""required\"":true}]"", ""task_unique_trial"": 100, ""task_name"": ""intelligent-gt"", ""trial_index"": 11, ""isRepeat"": 0}"
ABL3H3O3BI8ZD:3MHW492WW2KHCA5SGHMYGMO8FPTMVD,12,1547945722930,"{""rt"": null, ""trial_type"": ""html-keyboard-response"", ""task_unique_trial"": 100, ""stimulus"": ""<p>Good job!</p>"", ""task_version"": 1, ""internal_node_id"": ""0.0-2.0-1.0"", ""task_payment"": 1, ""time_elapsed"": 109275, ""debug_mode"": ""live"", ""key_press"": null, ""task_name"": ""intelligent-gt"", ""trial_index"": 12}"
ABL3H3O3BI8ZD:3MHW492WW2KHCA5SGHMYGMO8FPTMVD,13,1547945725298,"{""rt"": 2366, ""trial_type"": ""face-likert-amanda"", ""debug_mode"": ""live"", ""task_type"": ""face trials"", ""responses"": ""{\""Q0\"":6}"", ""task_payment"": 1, ""task_version"": 1, ""internal_node_id"": ""0.0-3.0-0.0-0.0"", ""time_elapsed"": 111643, ""imgName"": ""/static/images/celeba_gt_crop/intelligent/027687.jpg"", ""questions"": ""[{\""prompt\"":\""<p>How <b>intelligent</b> does this person look to <b>most people</b>? Rate from 1-9</p>\"",\""labels\"":[\""1 <br/>Not intelligent at all\"",\""2\"",\""3\"",\""4\"",\""5\"",\""6\"",\""7\"",\""8\"",\""9  <br/>Extremely intelligent\""],\""required\"":true}]"", ""task_unique_trial"": 100, ""task_name"": ""intelligent-gt"", ""trial_index"": 13, ""isRepeat"": 0}"
ABL3H3O3BI8ZD:3MHW492WW2KHCA5SGHMYGMO8FPTMVD,14,1547945726453,"{""rt"": 1153, ""trial_type"": ""face-likert-amanda"", ""debug_mode"": ""live"", ""task_type"": ""face trials"", ""responses"": ""{\""Q0\"":6}"", ""task_payment"": 1, ""task_version"": 1, ""internal_node_id"": ""0.0-3.0-0.0-1.0"", ""time_elapsed"": 112798, ""imgName"": ""/static/images/celeba_gt_crop/intelligent/005221.jpg"", ""questions"": ""[{\""prompt\"":\""<p>How <b>intelligent</b> does this person look to <b>most people</b>? Rate from 1-9</p>\"",\""labels\"":[\""1 <br/>Not intelligent at all\"",\""2\"",\""3\"",\""4\"",\""5\"",\""6\"",\""7\"",\""8\"",\""9  <br/>Extremely intelligent\""],\""required\"":true}]"", ""task_unique_trial"": 100, ""task_name"": ""intelligent-gt"", ""trial_index"": 14, ""isRepeat"": 0}"
ABL3H3O3BI8ZD:3MHW492WW2KHCA5SGHMYGMO8FPTMVD,15,1547945727623,"{""rt"": 1168, ""trial_type"": ""face-likert-amanda"", ""debug_mode"": ""live"", ""task_type"": ""face trials"", ""responses"": ""{\""Q0\"":6}"", ""task_payment"": 1, ""task_version"": 1, ""internal_node_id"": ""0.0-3.0-0.0-2.0"", ""time_elapsed"": 113968, ""imgName"": ""/static/images/celeba_gt_crop/intelligent/069096.jpg"", ""questions"": ""[{\""prompt\"":\""<p>How <b>intelligent</b> does this person look to <b>most people</b>? Rate from 1-9</p>\"",\""labels\"":[\""1 <br/>Not intelligent at all\"",\""2\"",\""3\"",\""4\"",\""5\"",\""6\"",\""7\"",\""8\"",\""9  <br/>Extremely intelligent\""],\""required\"":true}]"", ""task_unique_trial"": 100, ""task_name"": ""intelligent-gt"", ""trial_index"": 15, ""isRepeat"": 0}"
ABL3H3O3BI8ZD:3MHW492WW2KHCA5SGHMYGMO8FPTMVD,16,1547945728688,"{""rt"": 1065, ""trial_type"": ""face-likert-amanda"", ""debug_mode"": ""live"", ""task_type"": ""face trials"", ""responses"": ""{\""Q0\"":6}"", ""task_payment"": 1, ""task_version"": 1, ""internal_node_id"": ""0.0-3.0-0.0-3.0"", ""time_elapsed"": 115033, ""imgName"": ""/static/images/celeba_gt_crop/intelligent/033310.jpg"", ""questions"": ""[{\""prompt\"":\""<p>How <b>intelligent</b> does this person look to <b>most people</b>? Rate from 1-9</p>\"",\""labels\"":[\""1 <br/>Not intelligent at all\"",\""2\"",\""3\"",\""4\"",\""5\"",\""6\"",\""7\"",\""8\"",\""9  <br/>Extremely intelligent\""],\""required\"":true}]"", ""task_unique_trial"": 100, ""task_name"": ""intelligent-gt"", ""trial_index"": 16, ""isRepeat"": 0}"
