A1QVNF19XSRSD7:369J354OFFHW5AU546GVRPOC3B76GI,0,1548284346044,"{""rt"": 3430, ""trial_type"": ""instructions"", ""view_history"": ""[{\""page_index\"":0,\""viewing_time\"":1738},{\""page_index\"":1,\""viewing_time\"":896},{\""page_index\"":2,\""viewing_time\"":796}]"", ""task_type"": ""instruction"", ""task_payment"": 1, ""task_version"": 1, ""internal_node_id"": ""0.0-0.0"", ""time_elapsed"": 3431, ""debug_mode"": ""live"", ""task_name"": ""intelligent-modifae-single"", ""task_unique_trial"": 100, ""trial_index"": 0}"
A1QVNF19XSRSD7:369J354OFFHW5AU546GVRPOC3B76GI,1,1548284357888,"{""rt"": 11835, ""trial_type"": ""survey-multi-choice"", ""task_type"": ""demographic-multichoice"", ""responses"": ""{\""Q0\"":\""26-35\"",\""Q1\"":\""Male\"",\""Q2\"":\""No\"",\""Q3\"":\""2\"",\""Q4\"":\""White\"",\""Q5\"":\""Bachelor&#8217;s degree (e.g. BA, BS) or above\"",\""Q6\"":\""Less than $20,000\""}"", ""task_payment"": 1, ""task_version"": 1, ""time_elapsed"": 15275, ""sanity_check_1_continue"": true, ""random_num"": 2, ""debug_mode"": ""live"", ""questions"": ""[{\""prompt\"":\""What is your age?\"",\""options\"":[\""Under 18\"",\""18-25\"",\""26-35\"",\""36-45\"",\""46-55\"",\""56+\""],\""required\"":true},{\""prompt\"":\""What is your gender?\"",\""options\"":[\""Male\"",\""Female\"",\""Other/Prefer not to say\""],\""required\"":true},{\""prompt\"":\""Are you of Hispanic, Latino, or Spanish origin?\"",\""options\"":[\""Yes\"",\""No\""],\""required\"":true},{\""prompt\"":\""Please choose the option that matches the number here: 2\"",\""options\"":[\""1\"",\""2\"",\""3\"",\""4\""],\""required\"":true},{\""prompt\"":\""How would you describe yourself?\"",\""options\"":[\""American Indian or Alaskan Native\"",\""Asian\"",\""Black or African-American\"",\""Native Hawaiian or Other Pacific Islander\"",\""White\""],\""required\"":true},{\""prompt\"":\""What is the highest degree or level of school you have completed? (If you&#8217;re currently enrolled in school, please indicate the highest degree you have received)\"",\""options\"":[\""Less than a high school diploma\"",\""High school degree or equivalent (e.g. GED)\"",\""Some college, no degree\"",\""Associate degree (e.g. AA, AS)\"",\""Bachelor&#8217;s degree (e.g. BA, BS) or above\""],\""required\"":true},{\""prompt\"":\""What is the total income of all members of your household?\"",\""options\"":[\""Less than $20,000\"",\""$20,000  - $49,999\"",\""$50,000 - $74,999\"",\""$75,000 and above\""],\""required\"":true}]"", ""internal_node_id"": ""0.0-1.0-0.0"", ""task_unique_trial"": 100, ""task_name"": ""intelligent-modifae-single"", ""trial_index"": 1}"
A1QVNF19XSRSD7:369J354OFFHW5AU546GVRPOC3B76GI,2,1548284360281,"{""rt"": 2388, ""trial_type"": ""face-likert-amanda"", ""debug_mode"": ""live"", ""task_type"": ""face trials"", ""responses"": ""{\""Q0\"":3}"", ""task_payment"": 1, ""task_version"": 1, ""internal_node_id"": ""0.0-2.0-0.0-0.0"", ""time_elapsed"": 17668, ""imgName"": ""/static/images/modifae_new_linspace/intelligent/104389_0.40909090909090917.png"", ""questions"": ""[{\""prompt\"":\""<p>How <b>intelligent</b> does this person look to <b>most people</b>? Rate from 1-9</p>\"",\""labels\"":[\""1 <br/><b>Not intelligent at all</b>\"",\""2\"",\""3\"",\""4\"",\""5\"",\""6\"",\""7\"",\""8\"",\""9  <br/><b>Extremely intelligent</b>\""],\""required\"":true}]"", ""task_unique_trial"": 100, ""task_name"": ""intelligent-modifae-single"", ""trial_index"": 2, ""isRepeat"": 0}"
A1QVNF19XSRSD7:369J354OFFHW5AU546GVRPOC3B76GI,3,1548284362768,"{""rt"": 2482, ""trial_type"": ""face-likert-amanda"", ""debug_mode"": ""live"", ""task_type"": ""face trials"", ""responses"": ""{\""Q0\"":2}"", ""task_payment"": 1, ""task_version"": 1, ""internal_node_id"": ""0.0-2.0-0.0-1.0"", ""time_elapsed"": 20155, ""imgName"": ""/static/images/modifae_new_linspace/intelligent/186898_-0.035353535353535304.png"", ""questions"": ""[{\""prompt\"":\""<p>How <b>intelligent</b> does this person look to <b>most people</b>? Rate from 1-9</p>\"",\""labels\"":[\""1 <br/><b>Not intelligent at all</b>\"",\""2\"",\""3\"",\""4\"",\""5\"",\""6\"",\""7\"",\""8\"",\""9  <br/><b>Extremely intelligent</b>\""],\""required\"":true}]"", ""task_unique_trial"": 100, ""task_name"": ""intelligent-modifae-single"", ""trial_index"": 3, ""isRepeat"": 0}"
A1QVNF19XSRSD7:369J354OFFHW5AU546GVRPOC3B76GI,4,1548284364462,"{""rt"": 1693, ""trial_type"": ""face-likert-amanda"", ""debug_mode"": ""live"", ""task_type"": ""face trials"", ""responses"": ""{\""Q0\"":5}"", ""task_payment"": 1, ""task_version"": 1, ""internal_node_id"": ""0.0-2.0-0.0-2.0"", ""time_elapsed"": 21849, ""imgName"": ""/static/images/modifae_new_linspace/intelligent/099209_-0.045454545454545414.png"", ""questions"": ""[{\""prompt\"":\""<p>How <b>intelligent</b> does this person look to <b>most people</b>? Rate from 1-9</p>\"",\""labels\"":[\""1 <br/><b>Not intelligent at all</b>\"",\""2\"",\""3\"",\""4\"",\""5\"",\""6\"",\""7\"",\""8\"",\""9  <br/><b>Extremely intelligent</b>\""],\""required\"":true}]"", ""task_unique_trial"": 100, ""task_name"": ""intelligent-modifae-single"", ""trial_index"": 4, ""isRepeat"": 0}"
A1QVNF19XSRSD7:369J354OFFHW5AU546GVRPOC3B76GI,5,1548284366255,"{""rt"": 1791, ""trial_type"": ""face-likert-amanda"", ""debug_mode"": ""live"", ""task_type"": ""face trials"", ""responses"": ""{\""Q0\"":6}"", ""task_payment"": 1, ""task_version"": 1, ""internal_node_id"": ""0.0-2.0-0.0-3.0"", ""time_elapsed"": 23642, ""imgName"": ""/static/images/modifae_new_linspace/intelligent/043227_-0.10606060606060602.png"", ""questions"": ""[{\""prompt\"":\""<p>How <b>intelligent</b> does this person look to <b>most people</b>? Rate from 1-9</p>\"",\""labels\"":[\""1 <br/><b>Not intelligent at all</b>\"",\""2\"",\""3\"",\""4\"",\""5\"",\""6\"",\""7\"",\""8\"",\""9  <br/><b>Extremely intelligent</b>\""],\""required\"":true}]"", ""task_unique_trial"": 100, ""task_name"": ""intelligent-modifae-single"", ""trial_index"": 5, ""isRepeat"": 0}"
A1QVNF19XSRSD7:369J354OFFHW5AU546GVRPOC3B76GI,6,1548284368124,"{""rt"": 1867, ""trial_type"": ""face-likert-amanda"", ""debug_mode"": ""live"", ""task_type"": ""face trials"", ""responses"": ""{\""Q0\"":8}"", ""task_payment"": 1, ""task_version"": 1, ""internal_node_id"": ""0.0-2.0-0.0-4.0"", ""time_elapsed"": 25511, ""imgName"": ""/static/images/modifae_new_linspace/intelligent/078578_-0.28787878787878785.png"", ""questions"": ""[{\""prompt\"":\""<p>How <b>intelligent</b> does this person look to <b>most people</b>? Rate from 1-9</p>\"",\""labels\"":[\""1 <br/><b>Not intelligent at all</b>\"",\""2\"",\""3\"",\""4\"",\""5\"",\""6\"",\""7\"",\""8\"",\""9  <br/><b>Extremely intelligent</b>\""],\""required\"":true}]"", ""task_unique_trial"": 100, ""task_name"": ""intelligent-modifae-single"", ""trial_index"": 6, ""isRepeat"": 0}"
A1QVNF19XSRSD7:369J354OFFHW5AU546GVRPOC3B76GI,7,1548284369711,"{""rt"": 1586, ""trial_type"": ""face-likert-amanda"", ""debug_mode"": ""live"", ""task_type"": ""face trials"", ""responses"": ""{\""Q0\"":5}"", ""task_payment"": 1, ""task_version"": 1, ""internal_node_id"": ""0.0-2.0-0.0-5.0"", ""time_elapsed"": 27098, ""imgName"": ""/static/images/modifae_new_linspace/intelligent/165313_-0.11616161616161613.png"", ""questions"": ""[{\""prompt\"":\""<p>How <b>intelligent</b> does this person look to <b>most people</b>? Rate from 1-9</p>\"",\""labels\"":[\""1 <br/><b>Not intelligent at all</b>\"",\""2\"",\""3\"",\""4\"",\""5\"",\""6\"",\""7\"",\""8\"",\""9  <br/><b>Extremely intelligent</b>\""],\""required\"":true}]"", ""task_unique_trial"": 100, ""task_name"": ""intelligent-modifae-single"", ""trial_index"": 7, ""isRepeat"": 0}"
A1QVNF19XSRSD7:369J354OFFHW5AU546GVRPOC3B76GI,8,1548284371343,"{""rt"": 1630, ""trial_type"": ""face-likert-amanda"", ""debug_mode"": ""live"", ""task_type"": ""face trials"", ""responses"": ""{\""Q0\"":4}"", ""task_payment"": 1, ""task_version"": 1, ""internal_node_id"": ""0.0-2.0-0.0-6.0"", ""time_elapsed"": 28730, ""imgName"": ""/static/images/modifae_new_linspace/intelligent/036503_-0.4494949494949495.png"", ""questions"": ""[{\""prompt\"":\""<p>How <b>intelligent</b> does this person look to <b>most people</b>? Rate from 1-9</p>\"",\""labels\"":[\""1 <br/><b>Not intelligent at all</b>\"",\""2\"",\""3\"",\""4\"",\""5\"",\""6\"",\""7\"",\""8\"",\""9  <br/><b>Extremely intelligent</b>\""],\""required\"":true}]"", ""task_unique_trial"": 100, ""task_name"": ""intelligent-modifae-single"", ""trial_index"": 8, ""isRepeat"": 0}"
A1QVNF19XSRSD7:369J354OFFHW5AU546GVRPOC3B76GI,9,1548284373004,"{""rt"": 1660, ""trial_type"": ""face-likert-amanda"", ""debug_mode"": ""live"", ""task_type"": ""face trials"", ""responses"": ""{\""Q0\"":6}"", ""task_payment"": 1, ""task_version"": 1, ""internal_node_id"": ""0.0-2.0-0.0-7.0"", ""time_elapsed"": 30391, ""imgName"": ""/static/images/modifae_new_linspace/intelligent/043227_-0.10606060606060602.png"", ""questions"": ""[{\""prompt\"":\""<p>How <b>intelligent</b> does this person look to <b>most people</b>? Rate from 1-9</p>\"",\""labels\"":[\""1 <br/><b>Not intelligent at all</b>\"",\""2\"",\""3\"",\""4\"",\""5\"",\""6\"",\""7\"",\""8\"",\""9  <br/><b>Extremely intelligent</b>\""],\""required\"":true}]"", ""task_unique_trial"": 100, ""task_name"": ""intelligent-modifae-single"", ""trial_index"": 9, ""isRepeat"": 0}"
A1QVNF19XSRSD7:369J354OFFHW5AU546GVRPOC3B76GI,10,1548284375098,"{""rt"": 2092, ""trial_type"": ""face-likert-amanda"", ""debug_mode"": ""live"", ""task_type"": ""face trials"", ""responses"": ""{\""Q0\"":5}"", ""task_payment"": 1, ""task_version"": 1, ""internal_node_id"": ""0.0-2.0-0.0-8.0"", ""time_elapsed"": 32485, ""imgName"": ""/static/images/modifae_new_linspace/intelligent/017660_-0.025252525252525193.png"", ""questions"": ""[{\""prompt\"":\""<p>How <b>intelligent</b> does this person look to <b>most people</b>? Rate from 1-9</p>\"",\""labels\"":[\""1 <br/><b>Not intelligent at all</b>\"",\""2\"",\""3\"",\""4\"",\""5\"",\""6\"",\""7\"",\""8\"",\""9  <br/><b>Extremely intelligent</b>\""],\""required\"":true}]"", ""task_unique_trial"": 100, ""task_name"": ""intelligent-modifae-single"", ""trial_index"": 10, ""isRepeat"": 0}"
A1QVNF19XSRSD7:369J354OFFHW5AU546GVRPOC3B76GI,11,1548284377684,"{""rt"": 2584, ""trial_type"": ""face-likert-amanda"", ""debug_mode"": ""live"", ""task_type"": ""face trials"", ""responses"": ""{\""Q0\"":3}"", ""task_payment"": 1, ""task_version"": 1, ""internal_node_id"": ""0.0-2.0-0.0-9.0"", ""time_elapsed"": 35071, ""imgName"": ""/static/images/modifae_new_linspace/intelligent/186898_-0.035353535353535304.png"", ""questions"": ""[{\""prompt\"":\""<p>How <b>intelligent</b> does this person look to <b>most people</b>? Rate from 1-9</p>\"",\""labels\"":[\""1 <br/><b>Not intelligent at all</b>\"",\""2\"",\""3\"",\""4\"",\""5\"",\""6\"",\""7\"",\""8\"",\""9  <br/><b>Extremely intelligent</b>\""],\""required\"":true}]"", ""task_unique_trial"": 100, ""task_name"": ""intelligent-modifae-single"", ""trial_index"": 11, ""isRepeat"": 0}"
A1QVNF19XSRSD7:369J354OFFHW5AU546GVRPOC3B76GI,12,1548284378689,"{""rt"": null, ""trial_type"": ""html-keyboard-response"", ""task_unique_trial"": 100, ""stimulus"": ""<p>Good job!</p>"", ""task_version"": 1, ""internal_node_id"": ""0.0-2.0-1.0"", ""task_payment"": 1, ""time_elapsed"": 36076, ""debug_mode"": ""live"", ""key_press"": null, ""task_name"": ""intelligent-modifae-single"", ""trial_index"": 12}"
A1QVNF19XSRSD7:369J354OFFHW5AU546GVRPOC3B76GI,13,1548284380899,"{""rt"": 2206, ""trial_type"": ""face-likert-amanda"", ""debug_mode"": ""live"", ""task_type"": ""face trials"", ""responses"": ""{\""Q0\"":4}"", ""task_payment"": 1, ""task_version"": 1, ""internal_node_id"": ""0.0-3.0-0.0-0.0"", ""time_elapsed"": 38286, ""imgName"": ""/static/images/modifae_new_linspace/intelligent/141987_-0.29797979797979796.png"", ""questions"": ""[{\""prompt\"":\""<p>How <b>intelligent</b> does this person look to <b>most people</b>? Rate from 1-9</p>\"",\""labels\"":[\""1 <br/><b>Not intelligent at all</b>\"",\""2\"",\""3\"",\""4\"",\""5\"",\""6\"",\""7\"",\""8\"",\""9  <br/><b>Extremely intelligent</b>\""],\""required\"":true}]"", ""task_unique_trial"": 100, ""task_name"": ""intelligent-modifae-single"", ""trial_index"": 13, ""isRepeat"": 0}"
A1QVNF19XSRSD7:369J354OFFHW5AU546GVRPOC3B76GI,14,1548284382789,"{""rt"": 1889, ""trial_type"": ""face-likert-amanda"", ""debug_mode"": ""live"", ""task_type"": ""face trials"", ""responses"": ""{\""Q0\"":2}"", ""task_payment"": 1, ""task_version"": 1, ""internal_node_id"": ""0.0-3.0-0.0-1.0"", ""time_elapsed"": 40176, ""imgName"": ""/static/images/modifae_new_linspace/intelligent/062769_0.3989898989898991.png"", ""questions"": ""[{\""prompt\"":\""<p>How <b>intelligent</b> does this person look to <b>most people</b>? Rate from 1-9</p>\"",\""labels\"":[\""1 <br/><b>Not intelligent at all</b>\"",\""2\"",\""3\"",\""4\"",\""5\"",\""6\"",\""7\"",\""8\"",\""9  <br/><b>Extremely intelligent</b>\""],\""required\"":true}]"", ""task_unique_trial"": 100, ""task_name"": ""intelligent-modifae-single"", ""trial_index"": 14, ""isRepeat"": 0}"
A1QVNF19XSRSD7:369J354OFFHW5AU546GVRPOC3B76GI,15,1548284385007,"{""rt"": 2217, ""trial_type"": ""face-likert-amanda"", ""debug_mode"": ""live"", ""task_type"": ""face trials"", ""responses"": ""{\""Q0\"":2}"", ""task_payment"": 1, ""task_version"": 1, ""internal_node_id"": ""0.0-3.0-0.0-2.0"", ""time_elapsed"": 42394, ""imgName"": ""/static/images/modifae_new_linspace/intelligent/153694_-0.4898989898989899.png"", ""questions"": ""[{\""prompt\"":\""<p>How <b>intelligent</b> does this person look to <b>most people</b>? Rate from 1-9</p>\"",\""labels\"":[\""1 <br/><b>Not intelligent at all</b>\"",\""2\"",\""3\"",\""4\"",\""5\"",\""6\"",\""7\"",\""8\"",\""9  <br/><b>Extremely intelligent</b>\""],\""required\"":true}]"", ""task_unique_trial"": 100, ""task_name"": ""intelligent-modifae-single"", ""trial_index"": 15, ""isRepeat"": 0}"
A1QVNF19XSRSD7:369J354OFFHW5AU546GVRPOC3B76GI,16,1548284386478,"{""rt"": 1469, ""trial_type"": ""face-likert-amanda"", ""debug_mode"": ""live"", ""task_type"": ""face trials"", ""responses"": ""{\""Q0\"":3}"", ""task_payment"": 1, ""task_version"": 1, ""internal_node_id"": ""0.0-3.0-0.0-3.0"", ""time_elapsed"": 43865, ""imgName"": ""/static/images/modifae_new_linspace/intelligent/064914_-0.07575757575757575.png"", ""questions"": ""[{\""prompt\"":\""<p>How <b>intelligent</b> does this person look to <b>most people</b>? Rate from 1-9</p>\"",\""labels\"":[\""1 <br/><b>Not intelligent at all</b>\"",\""2\"",\""3\"",\""4\"",\""5\"",\""6\"",\""7\"",\""8\"",\""9  <br/><b>Extremely intelligent</b>\""],\""required\"":true}]"", ""task_unique_trial"": 100, ""task_name"": ""intelligent-modifae-single"", ""trial_index"": 16, ""isRepeat"": 0}"
A1QVNF19XSRSD7:369J354OFFHW5AU546GVRPOC3B76GI,17,1548284389072,"{""rt"": 2591, ""trial_type"": ""face-likert-amanda"", ""debug_mode"": ""live"", ""task_type"": ""face trials"", ""responses"": ""{\""Q0\"":3}"", ""task_payment"": 1, ""task_version"": 1, ""internal_node_id"": ""0.0-3.0-0.0-4.0"", ""time_elapsed"": 46459, ""imgName"": ""/static/images/modifae_new_linspace/intelligent/159919_0.1767676767676768.png"", ""questions"": ""[{\""prompt\"":\""<p>How <b>intelligent</b> does this person look to <b>most people</b>? Rate from 1-9</p>\"",\""labels\"":[\""1 <br/><b>Not intelligent at all</b>\"",\""2\"",\""3\"",\""4\"",\""5\"",\""6\"",\""7\"",\""8\"",\""9  <br/><b>Extremely intelligent</b>\""],\""required\"":true}]"", ""task_unique_trial"": 100, ""task_name"": ""intelligent-modifae-single"", ""trial_index"": 17, ""isRepeat"": 0}"
A1QVNF19XSRSD7:369J354OFFHW5AU546GVRPOC3B76GI,18,1548284390290,"{""rt"": 1217, ""trial_type"": ""face-likert-amanda"", ""debug_mode"": ""live"", ""task_type"": ""face trials"", ""responses"": ""{\""Q0\"":4}"", ""task_payment"": 1, ""task_version"": 1, ""internal_node_id"": ""0.0-3.0-0.0-5.0"", ""time_elapsed"": 47677, ""imgName"": ""/static/images/modifae_new_linspace/intelligent/005291_0.4797979797979799.png"", ""questions"": ""[{\""prompt\"":\""<p>How <b>intelligent</b> does this person look to <b>most people</b>? Rate from 1-9</p>\"",\""labels\"":[\""1 <br/><b>Not intelligent at all</b>\"",\""2\"",\""3\"",\""4\"",\""5\"",\""6\"",\""7\"",\""8\"",\""9  <br/><b>Extremely intelligent</b>\""],\""required\"":true}]"", ""task_unique_trial"": 100, ""task_name"": ""intelligent-modifae-single"", ""trial_index"": 18, ""isRepeat"": 0}"
A1QVNF19XSRSD7:369J354OFFHW5AU546GVRPOC3B76GI,19,1548284393055,"{""rt"": 2764, ""trial_type"": ""face-likert-amanda"", ""debug_mode"": ""live"", ""task_type"": ""face trials"", ""responses"": ""{\""Q0\"":4}"", ""task_payment"": 1, ""task_version"": 1, ""internal_node_id"": ""0.0-3.0-0.0-6.0"", ""time_elapsed"": 50442, ""imgName"": ""/static/images/modifae_new_linspace/intelligent/179053_-0.2777777777777778.png"", ""questions"": ""[{\""prompt\"":\""<p>How <b>intelligent</b> does this person look to <b>most people</b>? Rate from 1-9</p>\"",\""labels\"":[\""1 <br/><b>Not intelligent at all</b>\"",\""2\"",\""3\"",\""4\"",\""5\"",\""6\"",\""7\"",\""8\"",\""9  <br/><b>Extremely intelligent</b>\""],\""required\"":true}]"", ""task_unique_trial"": 100, ""task_name"": ""intelligent-modifae-single"", ""trial_index"": 19, ""isRepeat"": 0}"
A1QVNF19XSRSD7:369J354OFFHW5AU546GVRPOC3B76GI,20,1548284394516,"{""rt"": 1459, ""trial_type"": ""face-likert-amanda"", ""debug_mode"": ""live"", ""task_type"": ""face trials"", ""responses"": ""{\""Q0\"":3}"", ""task_payment"": 1, ""task_version"": 1, ""internal_node_id"": ""0.0-3.0-0.0-7.0"", ""time_elapsed"": 51902, ""imgName"": ""/static/images/modifae_new_linspace/intelligent/178771_-0.3484848484848485.png"", ""questions"": ""[{\""prompt\"":\""<p>How <b>intelligent</b> does this person look to <b>most people</b>? Rate from 1-9</p>\"",\""labels\"":[\""1 <br/><b>Not intelligent at all</b>\"",\""2\"",\""3\"",\""4\"",\""5\"",\""6\"",\""7\"",\""8\"",\""9  <br/><b>Extremely intelligent</b>\""],\""required\"":true}]"", ""task_unique_trial"": 100, ""task_name"": ""intelligent-modifae-single"", ""trial_index"": 20, ""isRepeat"": 0}"
A1QVNF19XSRSD7:369J354OFFHW5AU546GVRPOC3B76GI,21,1548284396334,"{""rt"": 1814, ""trial_type"": ""face-likert-amanda"", ""debug_mode"": ""live"", ""task_type"": ""face trials"", ""responses"": ""{\""Q0\"":5}"", ""task_payment"": 1, ""task_version"": 1, ""internal_node_id"": ""0.0-3.0-0.0-8.0"", ""time_elapsed"": 53720, ""imgName"": ""/static/images/modifae_new_linspace/intelligent/135849_0.36868686868686873.png"", ""questions"": ""[{\""prompt\"":\""<p>How <b>intelligent</b> does this person look to <b>most people</b>? Rate from 1-9</p>\"",\""labels\"":[\""1 <br/><b>Not intelligent at all</b>\"",\""2\"",\""3\"",\""4\"",\""5\"",\""6\"",\""7\"",\""8\"",\""9  <br/><b>Extremely intelligent</b>\""],\""required\"":true}]"", ""task_unique_trial"": 100, ""task_name"": ""intelligent-modifae-single"", ""trial_index"": 21, ""isRepeat"": 0}"
A1QVNF19XSRSD7:369J354OFFHW5AU546GVRPOC3B76GI,22,1548284398217,"{""rt"": 1880, ""trial_type"": ""face-likert-amanda"", ""debug_mode"": ""live"", ""task_type"": ""face trials"", ""responses"": ""{\""Q0\"":5}"", ""task_payment"": 1, ""task_version"": 1, ""internal_node_id"": ""0.0-3.0-0.0-9.0"", ""time_elapsed"": 55604, ""imgName"": ""/static/images/modifae_new_linspace/intelligent/046067_0.19696969696969702.png"", ""questions"": ""[{\""prompt\"":\""<p>How <b>intelligent</b> does this person look to <b>most people</b>? Rate from 1-9</p>\"",\""labels\"":[\""1 <br/><b>Not intelligent at all</b>\"",\""2\"",\""3\"",\""4\"",\""5\"",\""6\"",\""7\"",\""8\"",\""9  <br/><b>Extremely intelligent</b>\""],\""required\"":true}]"", ""task_unique_trial"": 100, ""task_name"": ""intelligent-modifae-single"", ""trial_index"": 22, ""isRepeat"": 0}"
A1QVNF19XSRSD7:369J354OFFHW5AU546GVRPOC3B76GI,23,1548284399719,"{""rt"": null, ""trial_type"": ""html-keyboard-response"", ""task_unique_trial"": 100, ""stimulus"": ""<p>Good job!</p>"", ""task_version"": 1, ""internal_node_id"": ""0.0-3.0-1.0"", ""task_payment"": 1, ""time_elapsed"": 57105, ""debug_mode"": ""live"", ""key_press"": null, ""task_name"": ""intelligent-modifae-single"", ""trial_index"": 23}"
A1QVNF19XSRSD7:369J354OFFHW5AU546GVRPOC3B76GI,24,1548284402528,"{""rt"": 2801, ""trial_type"": ""face-likert-amanda"", ""debug_mode"": ""live"", ""task_type"": ""face trials"", ""responses"": ""{\""Q0\"":5}"", ""task_payment"": 1, ""task_version"": 1, ""internal_node_id"": ""0.0-4.0-0.0-0.0"", ""time_elapsed"": 59914, ""imgName"": ""/static/images/modifae_new_linspace/intelligent/162991_-0.1464646464646464.png"", ""questions"": ""[{\""prompt\"":\""<p>How <b>intelligent</b> does this person look to <b>most people</b>? Rate from 1-9</p>\"",\""labels\"":[\""1 <br/><b>Not intelligent at all</b>\"",\""2\"",\""3\"",\""4\"",\""5\"",\""6\"",\""7\"",\""8\"",\""9  <br/><b>Extremely intelligent</b>\""],\""required\"":true}]"", ""task_unique_trial"": 100, ""task_name"": ""intelligent-modifae-single"", ""trial_index"": 24, ""isRepeat"": 0}"
A1QVNF19XSRSD7:369J354OFFHW5AU546GVRPOC3B76GI,25,1548284406535,"{""rt"": 4004, ""trial_type"": ""face-likert-amanda"", ""debug_mode"": ""live"", ""task_type"": ""face trials"", ""responses"": ""{\""Q0\"":6}"", ""task_payment"": 1, ""task_version"": 1, ""internal_node_id"": ""0.0-4.0-0.0-1.0"", ""time_elapsed"": 63921, ""imgName"": ""/static/images/modifae_new_linspace/intelligent/165771_0.26767676767676774.png"", ""questions"": ""[{\""prompt\"":\""<p>How <b>intelligent</b> does this person look to <b>most people</b>? Rate from 1-9</p>\"",\""labels\"":[\""1 <br/><b>Not intelligent at all</b>\"",\""2\"",\""3\"",\""4\"",\""5\"",\""6\"",\""7\"",\""8\"",\""9  <br/><b>Extremely intelligent</b>\""],\""required\"":true}]"", ""task_unique_trial"": 100, ""task_name"": ""intelligent-modifae-single"", ""trial_index"": 25, ""isRepeat"": 0}"
A1QVNF19XSRSD7:369J354OFFHW5AU546GVRPOC3B76GI,26,1548284408555,"{""rt"": 2016, ""trial_type"": ""face-likert-amanda"", ""debug_mode"": ""live"", ""task_type"": ""face trials"", ""responses"": ""{\""Q0\"":5}"", ""task_payment"": 1, ""task_version"": 1, ""internal_node_id"": ""0.0-4.0-0.0-2.0"", ""time_elapsed"": 65942, ""imgName"": ""/static/images/modifae_new_linspace/intelligent/180549_0.03535353535353536.png"", ""questions"": ""[{\""prompt\"":\""<p>How <b>intelligent</b> does this person look to <b>most people</b>? Rate from 1-9</p>\"",\""labels\"":[\""1 <br/><b>Not intelligent at all</b>\"",\""2\"",\""3\"",\""4\"",\""5\"",\""6\"",\""7\"",\""8\"",\""9  <br/><b>Extremely intelligent</b>\""],\""required\"":true}]"", ""task_unique_trial"": 100, ""task_name"": ""intelligent-modifae-single"", ""trial_index"": 26, ""isRepeat"": 0}"
A1QVNF19XSRSD7:369J354OFFHW5AU546GVRPOC3B76GI,27,1548284410129,"{""rt"": 1570, ""trial_type"": ""face-likert-amanda"", ""debug_mode"": ""live"", ""task_type"": ""face trials"", ""responses"": ""{\""Q0\"":4}"", ""task_payment"": 1, ""task_version"": 1, ""internal_node_id"": ""0.0-4.0-0.0-3.0"", ""time_elapsed"": 67516, ""imgName"": ""/static/images/modifae_new_linspace/intelligent/051002_-0.4696969696969697.png"", ""questions"": ""[{\""prompt\"":\""<p>How <b>intelligent</b> does this person look to <b>most people</b>? Rate from 1-9</p>\"",\""labels\"":[\""1 <br/><b>Not intelligent at all</b>\"",\""2\"",\""3\"",\""4\"",\""5\"",\""6\"",\""7\"",\""8\"",\""9  <br/><b>Extremely intelligent</b>\""],\""required\"":true}]"", ""task_unique_trial"": 100, ""task_name"": ""intelligent-modifae-single"", ""trial_index"": 27, ""isRepeat"": 0}"
A1QVNF19XSRSD7:369J354OFFHW5AU546GVRPOC3B76GI,28,1548284412077,"{""rt"": 1947, ""trial_type"": ""face-likert-amanda"", ""debug_mode"": ""live"", ""task_type"": ""face trials"", ""responses"": ""{\""Q0\"":5}"", ""task_payment"": 1, ""task_version"": 1, ""internal_node_id"": ""0.0-4.0-0.0-4.0"", ""time_elapsed"": 69464, ""imgName"": ""/static/images/modifae_new_linspace/intelligent/112214_-0.055555555555555525.png"", ""questions"": ""[{\""prompt\"":\""<p>How <b>intelligent</b> does this person look to <b>most people</b>? Rate from 1-9</p>\"",\""labels\"":[\""1 <br/><b>Not intelligent at all</b>\"",\""2\"",\""3\"",\""4\"",\""5\"",\""6\"",\""7\"",\""8\"",\""9  <br/><b>Extremely intelligent</b>\""],\""required\"":true}]"", ""task_unique_trial"": 100, ""task_name"": ""intelligent-modifae-single"", ""trial_index"": 28, ""isRepeat"": 0}"
A1QVNF19XSRSD7:369J354OFFHW5AU546GVRPOC3B76GI,29,1548284414411,"{""rt"": 2331, ""trial_type"": ""face-likert-amanda"", ""debug_mode"": ""live"", ""task_type"": ""face trials"", ""responses"": ""{\""Q0\"":3}"", ""task_payment"": 1, ""task_version"": 1, ""internal_node_id"": ""0.0-4.0-0.0-5.0"", ""time_elapsed"": 71798, ""imgName"": ""/static/images/modifae_new_linspace/intelligent/147096_0.4696969696969697.png"", ""questions"": ""[{\""prompt\"":\""<p>How <b>intelligent</b> does this person look to <b>most people</b>? Rate from 1-9</p>\"",\""labels\"":[\""1 <br/><b>Not intelligent at all</b>\"",\""2\"",\""3\"",\""4\"",\""5\"",\""6\"",\""7\"",\""8\"",\""9  <br/><b>Extremely intelligent</b>\""],\""required\"":true}]"", ""task_unique_trial"": 100, ""task_name"": ""intelligent-modifae-single"", ""trial_index"": 29, ""isRepeat"": 0}"
A1QVNF19XSRSD7:369J354OFFHW5AU546GVRPOC3B76GI,30,1548284416344,"{""rt"": 1930, ""trial_type"": ""face-likert-amanda"", ""debug_mode"": ""live"", ""task_type"": ""face trials"", ""responses"": ""{\""Q0\"":4}"", ""task_payment"": 1, ""task_version"": 1, ""internal_node_id"": ""0.0-4.0-0.0-6.0"", ""time_elapsed"": 73730, ""imgName"": ""/static/images/modifae_new_linspace/intelligent/122663_0.0757575757575758.png"", ""questions"": ""[{\""prompt\"":\""<p>How <b>intelligent</b> does this person look to <b>most people</b>? Rate from 1-9</p>\"",\""labels\"":[\""1 <br/><b>Not intelligent at all</b>\"",\""2\"",\""3\"",\""4\"",\""5\"",\""6\"",\""7\"",\""8\"",\""9  <br/><b>Extremely intelligent</b>\""],\""required\"":true}]"", ""task_unique_trial"": 100, ""task_name"": ""intelligent-modifae-single"", ""trial_index"": 30, ""isRepeat"": 0}"
A1QVNF19XSRSD7:369J354OFFHW5AU546GVRPOC3B76GI,31,1548284418511,"{""rt"": 2165, ""trial_type"": ""face-likert-amanda"", ""debug_mode"": ""live"", ""task_type"": ""face trials"", ""responses"": ""{\""Q0\"":3}"", ""task_payment"": 1, ""task_version"": 1, ""internal_node_id"": ""0.0-4.0-0.0-7.0"", ""time_elapsed"": 75897, ""imgName"": ""/static/images/modifae_new_linspace/intelligent/131690_0.2575757575757577.png"", ""questions"": ""[{\""prompt\"":\""<p>How <b>intelligent</b> does this person look to <b>most people</b>? Rate from 1-9</p>\"",\""labels\"":[\""1 <br/><b>Not intelligent at all</b>\"",\""2\"",\""3\"",\""4\"",\""5\"",\""6\"",\""7\"",\""8\"",\""9  <br/><b>Extremely intelligent</b>\""],\""required\"":true}]"", ""task_unique_trial"": 100, ""task_name"": ""intelligent-modifae-single"", ""trial_index"": 31, ""isRepeat"": 0}"
A1QVNF19XSRSD7:369J354OFFHW5AU546GVRPOC3B76GI,32,1548284420990,"{""rt"": 2476, ""trial_type"": ""face-likert-amanda"", ""debug_mode"": ""live"", ""task_type"": ""face trials"", ""responses"": ""{\""Q0\"":2}"", ""task_payment"": 1, ""task_version"": 1, ""internal_node_id"": ""0.0-4.0-0.0-8.0"", ""time_elapsed"": 78377, ""imgName"": ""/static/images/modifae_new_linspace/intelligent/188020_-0.16666666666666663.png"", ""questions"": ""[{\""prompt\"":\""<p>How <b>intelligent</b> does this person look to <b>most people</b>? Rate from 1-9</p>\"",\""labels\"":[\""1 <br/><b>Not intelligent at all</b>\"",\""2\"",\""3\"",\""4\"",\""5\"",\""6\"",\""7\"",\""8\"",\""9  <br/><b>Extremely intelligent</b>\""],\""required\"":true}]"", ""task_unique_trial"": 100, ""task_name"": ""intelligent-modifae-single"", ""trial_index"": 32, ""isRepeat"": 0}"
A1QVNF19XSRSD7:369J354OFFHW5AU546GVRPOC3B76GI,33,1548284423390,"{""rt"": 2397, ""trial_type"": ""face-likert-amanda"", ""debug_mode"": ""live"", ""task_type"": ""face trials"", ""responses"": ""{\""Q0\"":3}"", ""task_payment"": 1, ""task_version"": 1, ""internal_node_id"": ""0.0-4.0-0.0-9.0"", ""time_elapsed"": 80776, ""imgName"": ""/static/images/modifae_new_linspace/intelligent/062768_-0.15656565656565652.png"", ""questions"": ""[{\""prompt\"":\""<p>How <b>intelligent</b> does this person look to <b>most people</b>? Rate from 1-9</p>\"",\""labels\"":[\""1 <br/><b>Not intelligent at all</b>\"",\""2\"",\""3\"",\""4\"",\""5\"",\""6\"",\""7\"",\""8\"",\""9  <br/><b>Extremely intelligent</b>\""],\""required\"":true}]"", ""task_unique_trial"": 100, ""task_name"": ""intelligent-modifae-single"", ""trial_index"": 33, ""isRepeat"": 0}"
A1QVNF19XSRSD7:369J354OFFHW5AU546GVRPOC3B76GI,34,1548284425391,"{""rt"": null, ""trial_type"": ""html-keyboard-response"", ""task_unique_trial"": 100, ""stimulus"": ""<p>Good job!</p>"", ""task_version"": 1, ""internal_node_id"": ""0.0-4.0-1.0"", ""task_payment"": 1, ""time_elapsed"": 82778, ""debug_mode"": ""live"", ""key_press"": null, ""task_name"": ""intelligent-modifae-single"", ""trial_index"": 34}"
A1QVNF19XSRSD7:369J354OFFHW5AU546GVRPOC3B76GI,35,1548284427325,"{""rt"": 1930, ""trial_type"": ""face-likert-amanda"", ""debug_mode"": ""live"", ""task_type"": ""face trials"", ""responses"": ""{\""Q0\"":4}"", ""task_payment"": 1, ""task_version"": 1, ""internal_node_id"": ""0.0-5.0-0.0-0.0"", ""time_elapsed"": 84712, ""imgName"": ""/static/images/modifae_new_linspace/intelligent/075861_0.43939393939393945.png"", ""questions"": ""[{\""prompt\"":\""<p>How <b>intelligent</b> does this person look to <b>most people</b>? Rate from 1-9</p>\"",\""labels\"":[\""1 <br/><b>Not intelligent at all</b>\"",\""2\"",\""3\"",\""4\"",\""5\"",\""6\"",\""7\"",\""8\"",\""9  <br/><b>Extremely intelligent</b>\""],\""required\"":true}]"", ""task_unique_trial"": 100, ""task_name"": ""intelligent-modifae-single"", ""trial_index"": 35, ""isRepeat"": 0}"
A1QVNF19XSRSD7:369J354OFFHW5AU546GVRPOC3B76GI,36,1548284429092,"{""rt"": 1766, ""trial_type"": ""face-likert-amanda"", ""debug_mode"": ""live"", ""task_type"": ""face trials"", ""responses"": ""{\""Q0\"":5}"", ""task_payment"": 1, ""task_version"": 1, ""internal_node_id"": ""0.0-5.0-0.0-1.0"", ""time_elapsed"": 86479, ""imgName"": ""/static/images/modifae_new_linspace/intelligent/112902_-0.398989898989899.png"", ""questions"": ""[{\""prompt\"":\""<p>How <b>intelligent</b> does this person look to <b>most people</b>? Rate from 1-9</p>\"",\""labels\"":[\""1 <br/><b>Not intelligent at all</b>\"",\""2\"",\""3\"",\""4\"",\""5\"",\""6\"",\""7\"",\""8\"",\""9  <br/><b>Extremely intelligent</b>\""],\""required\"":true}]"", ""task_unique_trial"": 100, ""task_name"": ""intelligent-modifae-single"", ""trial_index"": 36, ""isRepeat"": 0}"
A1QVNF19XSRSD7:369J354OFFHW5AU546GVRPOC3B76GI,37,1548284431077,"{""rt"": 1983, ""trial_type"": ""face-likert-amanda"", ""debug_mode"": ""live"", ""task_type"": ""face trials"", ""responses"": ""{\""Q0\"":6}"", ""task_payment"": 1, ""task_version"": 1, ""internal_node_id"": ""0.0-5.0-0.0-2.0"", ""time_elapsed"": 88464, ""imgName"": ""/static/images/modifae_new_linspace/intelligent/026046_0.06565656565656575.png"", ""questions"": ""[{\""prompt\"":\""<p>How <b>intelligent</b> does this person look to <b>most people</b>? Rate from 1-9</p>\"",\""labels\"":[\""1 <br/><b>Not intelligent at all</b>\"",\""2\"",\""3\"",\""4\"",\""5\"",\""6\"",\""7\"",\""8\"",\""9  <br/><b>Extremely intelligent</b>\""],\""required\"":true}]"", ""task_unique_trial"": 100, ""task_name"": ""intelligent-modifae-single"", ""trial_index"": 37, ""isRepeat"": 0}"
A1QVNF19XSRSD7:369J354OFFHW5AU546GVRPOC3B76GI,38,1548284433111,"{""rt"": 2031, ""trial_type"": ""face-likert-amanda"", ""debug_mode"": ""live"", ""task_type"": ""face trials"", ""responses"": ""{\""Q0\"":3}"", ""task_payment"": 1, ""task_version"": 1, ""internal_node_id"": ""0.0-5.0-0.0-3.0"", ""time_elapsed"": 90498, ""imgName"": ""/static/images/modifae_new_linspace/intelligent/003566_0.11616161616161624.png"", ""questions"": ""[{\""prompt\"":\""<p>How <b>intelligent</b> does this person look to <b>most people</b>? Rate from 1-9</p>\"",\""labels\"":[\""1 <br/><b>Not intelligent at all</b>\"",\""2\"",\""3\"",\""4\"",\""5\"",\""6\"",\""7\"",\""8\"",\""9  <br/><b>Extremely intelligent</b>\""],\""required\"":true}]"", ""task_unique_trial"": 100, ""task_name"": ""intelligent-modifae-single"", ""trial_index"": 38, ""isRepeat"": 0}"
A1QVNF19XSRSD7:369J354OFFHW5AU546GVRPOC3B76GI,39,1548284436145,"{""rt"": 3033, ""trial_type"": ""face-likert-amanda"", ""debug_mode"": ""live"", ""task_type"": ""face trials"", ""responses"": ""{\""Q0\"":4}"", ""task_payment"": 1, ""task_version"": 1, ""internal_node_id"": ""0.0-5.0-0.0-4.0"", ""time_elapsed"": 93532, ""imgName"": ""/static/images/modifae_new_linspace/intelligent/112214_-0.055555555555555525.png"", ""questions"": ""[{\""prompt\"":\""<p>How <b>intelligent</b> does this person look to <b>most people</b>? Rate from 1-9</p>\"",\""labels\"":[\""1 <br/><b>Not intelligent at all</b>\"",\""2\"",\""3\"",\""4\"",\""5\"",\""6\"",\""7\"",\""8\"",\""9  <br/><b>Extremely intelligent</b>\""],\""required\"":true}]"", ""task_unique_trial"": 100, ""task_name"": ""intelligent-modifae-single"", ""trial_index"": 39, ""isRepeat"": 0}"
A1QVNF19XSRSD7:369J354OFFHW5AU546GVRPOC3B76GI,40,1548284437905,"{""rt"": 1758, ""trial_type"": ""face-likert-amanda"", ""debug_mode"": ""live"", ""task_type"": ""face trials"", ""responses"": ""{\""Q0\"":3}"", ""task_payment"": 1, ""task_version"": 1, ""internal_node_id"": ""0.0-5.0-0.0-5.0"", ""time_elapsed"": 95292, ""imgName"": ""/static/images/modifae_new_linspace/intelligent/170306_-0.21717171717171713.png"", ""questions"": ""[{\""prompt\"":\""<p>How <b>intelligent</b> does this person look to <b>most people</b>? Rate from 1-9</p>\"",\""labels\"":[\""1 <br/><b>Not intelligent at all</b>\"",\""2\"",\""3\"",\""4\"",\""5\"",\""6\"",\""7\"",\""8\"",\""9  <br/><b>Extremely intelligent</b>\""],\""required\"":true}]"", ""task_unique_trial"": 100, ""task_name"": ""intelligent-modifae-single"", ""trial_index"": 40, ""isRepeat"": 0}"
A1QVNF19XSRSD7:369J354OFFHW5AU546GVRPOC3B76GI,41,1548284439743,"{""rt"": 1837, ""trial_type"": ""face-likert-amanda"", ""debug_mode"": ""live"", ""task_type"": ""face trials"", ""responses"": ""{\""Q0\"":2}"", ""task_payment"": 1, ""task_version"": 1, ""internal_node_id"": ""0.0-5.0-0.0-6.0"", ""time_elapsed"": 97130, ""imgName"": ""/static/images/modifae_new_linspace/intelligent/135849_0.36868686868686873.png"", ""questions"": ""[{\""prompt\"":\""<p>How <b>intelligent</b> does this person look to <b>most people</b>? Rate from 1-9</p>\"",\""labels\"":[\""1 <br/><b>Not intelligent at all</b>\"",\""2\"",\""3\"",\""4\"",\""5\"",\""6\"",\""7\"",\""8\"",\""9  <br/><b>Extremely intelligent</b>\""],\""required\"":true}]"", ""task_unique_trial"": 100, ""task_name"": ""intelligent-modifae-single"", ""trial_index"": 41, ""isRepeat"": 0}"
A1QVNF19XSRSD7:369J354OFFHW5AU546GVRPOC3B76GI,42,1548284442639,"{""rt"": 2893, ""trial_type"": ""face-likert-amanda"", ""debug_mode"": ""live"", ""task_type"": ""face trials"", ""responses"": ""{\""Q0\"":3}"", ""task_payment"": 1, ""task_version"": 1, ""internal_node_id"": ""0.0-5.0-0.0-7.0"", ""time_elapsed"": 100026, ""imgName"": ""/static/images/modifae_new_linspace/intelligent/005291_0.4797979797979799.png"", ""questions"": ""[{\""prompt\"":\""<p>How <b>intelligent</b> does this person look to <b>most people</b>? Rate from 1-9</p>\"",\""labels\"":[\""1 <br/><b>Not intelligent at all</b>\"",\""2\"",\""3\"",\""4\"",\""5\"",\""6\"",\""7\"",\""8\"",\""9  <br/><b>Extremely intelligent</b>\""],\""required\"":true}]"", ""task_unique_trial"": 100, ""task_name"": ""intelligent-modifae-single"", ""trial_index"": 42, ""isRepeat"": 0}"
A1QVNF19XSRSD7:369J354OFFHW5AU546GVRPOC3B76GI,43,1548284443888,"{""rt"": 1246, ""trial_type"": ""face-likert-amanda"", ""debug_mode"": ""live"", ""task_type"": ""face trials"", ""responses"": ""{\""Q0\"":4}"", ""task_payment"": 1, ""task_version"": 1, ""internal_node_id"": ""0.0-5.0-0.0-8.0"", ""time_elapsed"": 101275, ""imgName"": ""/static/images/modifae_new_linspace/intelligent/107379_-0.3181818181818182.png"", ""questions"": ""[{\""prompt\"":\""<p>How <b>intelligent</b> does this person look to <b>most people</b>? Rate from 1-9</p>\"",\""labels\"":[\""1 <br/><b>Not intelligent at all</b>\"",\""2\"",\""3\"",\""4\"",\""5\"",\""6\"",\""7\"",\""8\"",\""9  <br/><b>Extremely intelligent</b>\""],\""required\"":true}]"", ""task_unique_trial"": 100, ""task_name"": ""intelligent-modifae-single"", ""trial_index"": 43, ""isRepeat"": 0}"
A1QVNF19XSRSD7:369J354OFFHW5AU546GVRPOC3B76GI,44,1548284445287,"{""rt"": 1397, ""trial_type"": ""face-likert-amanda"", ""debug_mode"": ""live"", ""task_type"": ""face trials"", ""responses"": ""{\""Q0\"":4}"", ""task_payment"": 1, ""task_version"": 1, ""internal_node_id"": ""0.0-5.0-0.0-9.0"", ""time_elapsed"": 102674, ""imgName"": ""/static/images/modifae_new_linspace/intelligent/081501_-0.3888888888888889.png"", ""questions"": ""[{\""prompt\"":\""<p>How <b>intelligent</b> does this person look to <b>most people</b>? Rate from 1-9</p>\"",\""labels\"":[\""1 <br/><b>Not intelligent at all</b>\"",\""2\"",\""3\"",\""4\"",\""5\"",\""6\"",\""7\"",\""8\"",\""9  <br/><b>Extremely intelligent</b>\""],\""required\"":true}]"", ""task_unique_trial"": 100, ""task_name"": ""intelligent-modifae-single"", ""trial_index"": 44, ""isRepeat"": 0}"
A1QVNF19XSRSD7:369J354OFFHW5AU546GVRPOC3B76GI,45,1548284447289,"{""rt"": null, ""trial_type"": ""html-keyboard-response"", ""task_unique_trial"": 100, ""stimulus"": ""<p>Good job!</p>"", ""task_version"": 1, ""internal_node_id"": ""0.0-5.0-1.0"", ""task_payment"": 1, ""time_elapsed"": 104676, ""debug_mode"": ""live"", ""key_press"": null, ""task_name"": ""intelligent-modifae-single"", ""trial_index"": 45}"
A1QVNF19XSRSD7:369J354OFFHW5AU546GVRPOC3B76GI,46,1548284449505,"{""rt"": 2213, ""trial_type"": ""face-likert-amanda"", ""debug_mode"": ""live"", ""task_type"": ""face trials"", ""responses"": ""{\""Q0\"":3}"", ""task_payment"": 1, ""task_version"": 1, ""internal_node_id"": ""0.0-6.0-0.0-0.0"", ""time_elapsed"": 106892, ""imgName"": ""/static/images/modifae_new_linspace/intelligent/131742_-0.23737373737373735.png"", ""questions"": ""[{\""prompt\"":\""<p>How <b>intelligent</b> does this person look to <b>most people</b>? Rate from 1-9</p>\"",\""labels\"":[\""1 <br/><b>Not intelligent at all</b>\"",\""2\"",\""3\"",\""4\"",\""5\"",\""6\"",\""7\"",\""8\"",\""9  <br/><b>Extremely intelligent</b>\""],\""required\"":true}]"", ""task_unique_trial"": 100, ""task_name"": ""intelligent-modifae-single"", ""trial_index"": 46, ""isRepeat"": 0}"
A1QVNF19XSRSD7:369J354OFFHW5AU546GVRPOC3B76GI,47,1548284451256,"{""rt"": 1748, ""trial_type"": ""face-likert-amanda"", ""debug_mode"": ""live"", ""task_type"": ""face trials"", ""responses"": ""{\""Q0\"":4}"", ""task_payment"": 1, ""task_version"": 1, ""internal_node_id"": ""0.0-6.0-0.0-1.0"", ""time_elapsed"": 108643, ""imgName"": ""/static/images/modifae_new_linspace/intelligent/140101_0.09595959595959602.png"", ""questions"": ""[{\""prompt\"":\""<p>How <b>intelligent</b> does this person look to <b>most people</b>? Rate from 1-9</p>\"",\""labels\"":[\""1 <br/><b>Not intelligent at all</b>\"",\""2\"",\""3\"",\""4\"",\""5\"",\""6\"",\""7\"",\""8\"",\""9  <br/><b>Extremely intelligent</b>\""],\""required\"":true}]"", ""task_unique_trial"": 100, ""task_name"": ""intelligent-modifae-single"", ""trial_index"": 47, ""isRepeat"": 0}"
A1QVNF19XSRSD7:369J354OFFHW5AU546GVRPOC3B76GI,48,1548284452728,"{""rt"": 1471, ""trial_type"": ""face-likert-amanda"", ""debug_mode"": ""live"", ""task_type"": ""face trials"", ""responses"": ""{\""Q0\"":4}"", ""task_payment"": 1, ""task_version"": 1, ""internal_node_id"": ""0.0-6.0-0.0-2.0"", ""time_elapsed"": 110115, ""imgName"": ""/static/images/modifae_new_linspace/intelligent/156125_0.13636363636363646.png"", ""questions"": ""[{\""prompt\"":\""<p>How <b>intelligent</b> does this person look to <b>most people</b>? Rate from 1-9</p>\"",\""labels\"":[\""1 <br/><b>Not intelligent at all</b>\"",\""2\"",\""3\"",\""4\"",\""5\"",\""6\"",\""7\"",\""8\"",\""9  <br/><b>Extremely intelligent</b>\""],\""required\"":true}]"", ""task_unique_trial"": 100, ""task_name"": ""intelligent-modifae-single"", ""trial_index"": 48, ""isRepeat"": 0}"
A1QVNF19XSRSD7:369J354OFFHW5AU546GVRPOC3B76GI,49,1548284454524,"{""rt"": 1795, ""trial_type"": ""face-likert-amanda"", ""debug_mode"": ""live"", ""task_type"": ""face trials"", ""responses"": ""{\""Q0\"":6}"", ""task_payment"": 1, ""task_version"": 1, ""internal_node_id"": ""0.0-6.0-0.0-3.0"", ""time_elapsed"": 111911, ""imgName"": ""/static/images/modifae_new_linspace/intelligent/170842_-0.09595959595959591.png"", ""questions"": ""[{\""prompt\"":\""<p>How <b>intelligent</b> does this person look to <b>most people</b>? Rate from 1-9</p>\"",\""labels\"":[\""1 <br/><b>Not intelligent at all</b>\"",\""2\"",\""3\"",\""4\"",\""5\"",\""6\"",\""7\"",\""8\"",\""9  <br/><b>Extremely intelligent</b>\""],\""required\"":true}]"", ""task_unique_trial"": 100, ""task_name"": ""intelligent-modifae-single"", ""trial_index"": 49, ""isRepeat"": 0}"
A1QVNF19XSRSD7:369J354OFFHW5AU546GVRPOC3B76GI,50,1548284456186,"{""rt"": 1661, ""trial_type"": ""face-likert-amanda"", ""debug_mode"": ""live"", ""task_type"": ""face trials"", ""responses"": ""{\""Q0\"":5}"", ""task_payment"": 1, ""task_version"": 1, ""internal_node_id"": ""0.0-6.0-0.0-4.0"", ""time_elapsed"": 113573, ""imgName"": ""/static/images/modifae_new_linspace/intelligent/164022_0.025252525252525304.png"", ""questions"": ""[{\""prompt\"":\""<p>How <b>intelligent</b> does this person look to <b>most people</b>? Rate from 1-9</p>\"",\""labels\"":[\""1 <br/><b>Not intelligent at all</b>\"",\""2\"",\""3\"",\""4\"",\""5\"",\""6\"",\""7\"",\""8\"",\""9  <br/><b>Extremely intelligent</b>\""],\""required\"":true}]"", ""task_unique_trial"": 100, ""task_name"": ""intelligent-modifae-single"", ""trial_index"": 50, ""isRepeat"": 0}"
A1QVNF19XSRSD7:369J354OFFHW5AU546GVRPOC3B76GI,51,1548284457758,"{""rt"": 1569, ""trial_type"": ""face-likert-amanda"", ""debug_mode"": ""live"", ""task_type"": ""face trials"", ""responses"": ""{\""Q0\"":5}"", ""task_payment"": 1, ""task_version"": 1, ""internal_node_id"": ""0.0-6.0-0.0-5.0"", ""time_elapsed"": 115145, ""imgName"": ""/static/images/modifae_new_linspace/intelligent/062768_-0.15656565656565652.png"", ""questions"": ""[{\""prompt\"":\""<p>How <b>intelligent</b> does this person look to <b>most people</b>? Rate from 1-9</p>\"",\""labels\"":[\""1 <br/><b>Not intelligent at all</b>\"",\""2\"",\""3\"",\""4\"",\""5\"",\""6\"",\""7\"",\""8\"",\""9  <br/><b>Extremely intelligent</b>\""],\""required\"":true}]"", ""task_unique_trial"": 100, ""task_name"": ""intelligent-modifae-single"", ""trial_index"": 51, ""isRepeat"": 0}"
A1QVNF19XSRSD7:369J354OFFHW5AU546GVRPOC3B76GI,52,1548284459204,"{""rt"": 1444, ""trial_type"": ""face-likert-amanda"", ""debug_mode"": ""live"", ""task_type"": ""face trials"", ""responses"": ""{\""Q0\"":4}"", ""task_payment"": 1, ""task_version"": 1, ""internal_node_id"": ""0.0-6.0-0.0-6.0"", ""time_elapsed"": 116591, ""imgName"": ""/static/images/modifae_new_linspace/intelligent/177685_-0.41919191919191917.png"", ""questions"": ""[{\""prompt\"":\""<p>How <b>intelligent</b> does this person look to <b>most people</b>? Rate from 1-9</p>\"",\""labels\"":[\""1 <br/><b>Not intelligent at all</b>\"",\""2\"",\""3\"",\""4\"",\""5\"",\""6\"",\""7\"",\""8\"",\""9  <br/><b>Extremely intelligent</b>\""],\""required\"":true}]"", ""task_unique_trial"": 100, ""task_name"": ""intelligent-modifae-single"", ""trial_index"": 52, ""isRepeat"": 0}"
A1QVNF19XSRSD7:369J354OFFHW5AU546GVRPOC3B76GI,53,1548284461552,"{""rt"": 2347, ""trial_type"": ""face-likert-amanda"", ""debug_mode"": ""live"", ""task_type"": ""face trials"", ""responses"": ""{\""Q0\"":3}"", ""task_payment"": 1, ""task_version"": 1, ""internal_node_id"": ""0.0-6.0-0.0-7.0"", ""time_elapsed"": 118939, ""imgName"": ""/static/images/modifae_new_linspace/intelligent/025236_0.05555555555555558.png"", ""questions"": ""[{\""prompt\"":\""<p>How <b>intelligent</b> does this person look to <b>most people</b>? Rate from 1-9</p>\"",\""labels\"":[\""1 <br/><b>Not intelligent at all</b>\"",\""2\"",\""3\"",\""4\"",\""5\"",\""6\"",\""7\"",\""8\"",\""9  <br/><b>Extremely intelligent</b>\""],\""required\"":true}]"", ""task_unique_trial"": 100, ""task_name"": ""intelligent-modifae-single"", ""trial_index"": 53, ""isRepeat"": 0}"
A1QVNF19XSRSD7:369J354OFFHW5AU546GVRPOC3B76GI,54,1548284463494,"{""rt"": 1940, ""trial_type"": ""face-likert-amanda"", ""debug_mode"": ""live"", ""task_type"": ""face trials"", ""responses"": ""{\""Q0\"":3}"", ""task_payment"": 1, ""task_version"": 1, ""internal_node_id"": ""0.0-6.0-0.0-8.0"", ""time_elapsed"": 120881, ""imgName"": ""/static/images/modifae_new_linspace/intelligent/165927_-0.19696969696969696.png"", ""questions"": ""[{\""prompt\"":\""<p>How <b>intelligent</b> does this person look to <b>most people</b>? Rate from 1-9</p>\"",\""labels\"":[\""1 <br/><b>Not intelligent at all</b>\"",\""2\"",\""3\"",\""4\"",\""5\"",\""6\"",\""7\"",\""8\"",\""9  <br/><b>Extremely intelligent</b>\""],\""required\"":true}]"", ""task_unique_trial"": 100, ""task_name"": ""intelligent-modifae-single"", ""trial_index"": 54, ""isRepeat"": 0}"
A1QVNF19XSRSD7:369J354OFFHW5AU546GVRPOC3B76GI,55,1548284465023,"{""rt"": 1527, ""trial_type"": ""face-likert-amanda"", ""debug_mode"": ""live"", ""task_type"": ""face trials"", ""responses"": ""{\""Q0\"":4}"", ""task_payment"": 1, ""task_version"": 1, ""internal_node_id"": ""0.0-6.0-0.0-9.0"", ""time_elapsed"": 122410, ""imgName"": ""/static/images/modifae_new_linspace/intelligent/108588_0.15656565656565657.png"", ""questions"": ""[{\""prompt\"":\""<p>How <b>intelligent</b> does this person look to <b>most people</b>? Rate from 1-9</p>\"",\""labels\"":[\""1 <br/><b>Not intelligent at all</b>\"",\""2\"",\""3\"",\""4\"",\""5\"",\""6\"",\""7\"",\""8\"",\""9  <br/><b>Extremely intelligent</b>\""],\""required\"":true}]"", ""task_unique_trial"": 100, ""task_name"": ""intelligent-modifae-single"", ""trial_index"": 55, ""isRepeat"": 0}"
A1QVNF19XSRSD7:369J354OFFHW5AU546GVRPOC3B76GI,56,1548284466025,"{""rt"": null, ""trial_type"": ""html-keyboard-response"", ""task_unique_trial"": 100, ""stimulus"": ""<p>Good job!</p>"", ""task_version"": 1, ""internal_node_id"": ""0.0-6.0-1.0"", ""task_payment"": 1, ""time_elapsed"": 123412, ""debug_mode"": ""live"", ""key_press"": null, ""task_name"": ""intelligent-modifae-single"", ""trial_index"": 56}"
A1QVNF19XSRSD7:369J354OFFHW5AU546GVRPOC3B76GI,57,1548284468245,"{""rt"": 2216, ""trial_type"": ""face-likert-amanda"", ""debug_mode"": ""live"", ""task_type"": ""face trials"", ""responses"": ""{\""Q0\"":2}"", ""task_payment"": 1, ""task_version"": 1, ""internal_node_id"": ""0.0-7.0-0.0-0.0"", ""time_elapsed"": 125631, ""imgName"": ""/static/images/modifae_new_linspace/intelligent/098800_-0.4292929292929293.png"", ""questions"": ""[{\""prompt\"":\""<p>How <b>intelligent</b> does this person look to <b>most people</b>? Rate from 1-9</p>\"",\""labels\"":[\""1 <br/><b>Not intelligent at all</b>\"",\""2\"",\""3\"",\""4\"",\""5\"",\""6\"",\""7\"",\""8\"",\""9  <br/><b>Extremely intelligent</b>\""],\""required\"":true}]"", ""task_unique_trial"": 100, ""task_name"": ""intelligent-modifae-single"", ""trial_index"": 57, ""isRepeat"": 0}"
A1QVNF19XSRSD7:369J354OFFHW5AU546GVRPOC3B76GI,58,1548284469825,"{""rt"": 1577, ""trial_type"": ""face-likert-amanda"", ""debug_mode"": ""live"", ""task_type"": ""face trials"", ""responses"": ""{\""Q0\"":3}"", ""task_payment"": 1, ""task_version"": 1, ""internal_node_id"": ""0.0-7.0-0.0-1.0"", ""time_elapsed"": 127212, ""imgName"": ""/static/images/modifae_new_linspace/intelligent/063261_0.33838383838383845.png"", ""questions"": ""[{\""prompt\"":\""<p>How <b>intelligent</b> does this person look to <b>most people</b>? Rate from 1-9</p>\"",\""labels\"":[\""1 <br/><b>Not intelligent at all</b>\"",\""2\"",\""3\"",\""4\"",\""5\"",\""6\"",\""7\"",\""8\"",\""9  <br/><b>Extremely intelligent</b>\""],\""required\"":true}]"", ""task_unique_trial"": 100, ""task_name"": ""intelligent-modifae-single"", ""trial_index"": 58, ""isRepeat"": 0}"
A1QVNF19XSRSD7:369J354OFFHW5AU546GVRPOC3B76GI,59,1548284471267,"{""rt"": 1440, ""trial_type"": ""face-likert-amanda"", ""debug_mode"": ""live"", ""task_type"": ""face trials"", ""responses"": ""{\""Q0\"":3}"", ""task_payment"": 1, ""task_version"": 1, ""internal_node_id"": ""0.0-7.0-0.0-2.0"", ""time_elapsed"": 128654, ""imgName"": ""/static/images/modifae_new_linspace/intelligent/015409_-0.13636363636363635.png"", ""questions"": ""[{\""prompt\"":\""<p>How <b>intelligent</b> does this person look to <b>most people</b>? Rate from 1-9</p>\"",\""labels\"":[\""1 <br/><b>Not intelligent at all</b>\"",\""2\"",\""3\"",\""4\"",\""5\"",\""6\"",\""7\"",\""8\"",\""9  <br/><b>Extremely intelligent</b>\""],\""required\"":true}]"", ""task_unique_trial"": 100, ""task_name"": ""intelligent-modifae-single"", ""trial_index"": 59, ""isRepeat"": 0}"
A1QVNF19XSRSD7:369J354OFFHW5AU546GVRPOC3B76GI,60,1548284474417,"{""rt"": 3148, ""trial_type"": ""face-likert-amanda"", ""debug_mode"": ""live"", ""task_type"": ""face trials"", ""responses"": ""{\""Q0\"":2}"", ""task_payment"": 1, ""task_version"": 1, ""internal_node_id"": ""0.0-7.0-0.0-3.0"", ""time_elapsed"": 131804, ""imgName"": ""/static/images/modifae_new_linspace/intelligent/156125_0.13636363636363646.png"", ""questions"": ""[{\""prompt\"":\""<p>How <b>intelligent</b> does this person look to <b>most people</b>? Rate from 1-9</p>\"",\""labels\"":[\""1 <br/><b>Not intelligent at all</b>\"",\""2\"",\""3\"",\""4\"",\""5\"",\""6\"",\""7\"",\""8\"",\""9  <br/><b>Extremely intelligent</b>\""],\""required\"":true}]"", ""task_unique_trial"": 100, ""task_name"": ""intelligent-modifae-single"", ""trial_index"": 60, ""isRepeat"": 0}"
A1QVNF19XSRSD7:369J354OFFHW5AU546GVRPOC3B76GI,61,1548284475906,"{""rt"": 1485, ""trial_type"": ""face-likert-amanda"", ""debug_mode"": ""live"", ""task_type"": ""face trials"", ""responses"": ""{\""Q0\"":4}"", ""task_payment"": 1, ""task_version"": 1, ""internal_node_id"": ""0.0-7.0-0.0-4.0"", ""time_elapsed"": 133293, ""imgName"": ""/static/images/modifae_new_linspace/intelligent/127006_0.3282828282828284.png"", ""questions"": ""[{\""prompt\"":\""<p>How <b>intelligent</b> does this person look to <b>most people</b>? Rate from 1-9</p>\"",\""labels\"":[\""1 <br/><b>Not intelligent at all</b>\"",\""2\"",\""3\"",\""4\"",\""5\"",\""6\"",\""7\"",\""8\"",\""9  <br/><b>Extremely intelligent</b>\""],\""required\"":true}]"", ""task_unique_trial"": 100, ""task_name"": ""intelligent-modifae-single"", ""trial_index"": 61, ""isRepeat"": 0}"
A1QVNF19XSRSD7:369J354OFFHW5AU546GVRPOC3B76GI,62,1548284480521,"{""rt"": 4612, ""trial_type"": ""face-likert-amanda"", ""debug_mode"": ""live"", ""task_type"": ""face trials"", ""responses"": ""{\""Q0\"":5}"", ""task_payment"": 1, ""task_version"": 1, ""internal_node_id"": ""0.0-7.0-0.0-5.0"", ""time_elapsed"": 137908, ""imgName"": ""/static/images/modifae_new_linspace/intelligent/170263_0.4494949494949496.png"", ""questions"": ""[{\""prompt\"":\""<p>How <b>intelligent</b> does this person look to <b>most people</b>? Rate from 1-9</p>\"",\""labels\"":[\""1 <br/><b>Not intelligent at all</b>\"",\""2\"",\""3\"",\""4\"",\""5\"",\""6\"",\""7\"",\""8\"",\""9  <br/><b>Extremely intelligent</b>\""],\""required\"":true}]"", ""task_unique_trial"": 100, ""task_name"": ""intelligent-modifae-single"", ""trial_index"": 62, ""isRepeat"": 0}"
A1QVNF19XSRSD7:369J354OFFHW5AU546GVRPOC3B76GI,63,1548284484078,"{""rt"": 3555, ""trial_type"": ""face-likert-amanda"", ""debug_mode"": ""live"", ""task_type"": ""face trials"", ""responses"": ""{\""Q0\"":5}"", ""task_payment"": 1, ""task_version"": 1, ""internal_node_id"": ""0.0-7.0-0.0-6.0"", ""time_elapsed"": 141464, ""imgName"": ""/static/images/modifae_new_linspace/intelligent/106232_-0.4797979797979798.png"", ""questions"": ""[{\""prompt\"":\""<p>How <b>intelligent</b> does this person look to <b>most people</b>? Rate from 1-9</p>\"",\""labels\"":[\""1 <br/><b>Not intelligent at all</b>\"",\""2\"",\""3\"",\""4\"",\""5\"",\""6\"",\""7\"",\""8\"",\""9  <br/><b>Extremely intelligent</b>\""],\""required\"":true}]"", ""task_unique_trial"": 100, ""task_name"": ""intelligent-modifae-single"", ""trial_index"": 63, ""isRepeat"": 0}"
A1QVNF19XSRSD7:369J354OFFHW5AU546GVRPOC3B76GI,64,1548284487570,"{""rt"": 3491, ""trial_type"": ""face-likert-amanda"", ""debug_mode"": ""live"", ""task_type"": ""face trials"", ""responses"": ""{\""Q0\"":4}"", ""task_payment"": 1, ""task_version"": 1, ""internal_node_id"": ""0.0-7.0-0.0-7.0"", ""time_elapsed"": 144956, ""imgName"": ""/static/images/modifae_new_linspace/intelligent/040946_0.3080808080808082.png"", ""questions"": ""[{\""prompt\"":\""<p>How <b>intelligent</b> does this person look to <b>most people</b>? Rate from 1-9</p>\"",\""labels\"":[\""1 <br/><b>Not intelligent at all</b>\"",\""2\"",\""3\"",\""4\"",\""5\"",\""6\"",\""7\"",\""8\"",\""9  <br/><b>Extremely intelligent</b>\""],\""required\"":true}]"", ""task_unique_trial"": 100, ""task_name"": ""intelligent-modifae-single"", ""trial_index"": 64, ""isRepeat"": 0}"
A1QVNF19XSRSD7:369J354OFFHW5AU546GVRPOC3B76GI,65,1548284489298,"{""rt"": 1726, ""trial_type"": ""face-likert-amanda"", ""debug_mode"": ""live"", ""task_type"": ""face trials"", ""responses"": ""{\""Q0\"":6}"", ""task_payment"": 1, ""task_version"": 1, ""internal_node_id"": ""0.0-7.0-0.0-8.0"", ""time_elapsed"": 146684, ""imgName"": ""/static/images/modifae_new_linspace/intelligent/088129_0.2272727272727273.png"", ""questions"": ""[{\""prompt\"":\""<p>How <b>intelligent</b> does this person look to <b>most people</b>? Rate from 1-9</p>\"",\""labels\"":[\""1 <br/><b>Not intelligent at all</b>\"",\""2\"",\""3\"",\""4\"",\""5\"",\""6\"",\""7\"",\""8\"",\""9  <br/><b>Extremely intelligent</b>\""],\""required\"":true}]"", ""task_unique_trial"": 100, ""task_name"": ""intelligent-modifae-single"", ""trial_index"": 65, ""isRepeat"": 0}"
A1QVNF19XSRSD7:369J354OFFHW5AU546GVRPOC3B76GI,66,1548284491107,"{""rt"": 1807, ""trial_type"": ""face-likert-amanda"", ""debug_mode"": ""live"", ""task_type"": ""face trials"", ""responses"": ""{\""Q0\"":5}"", ""task_payment"": 1, ""task_version"": 1, ""internal_node_id"": ""0.0-7.0-0.0-9.0"", ""time_elapsed"": 148494, ""imgName"": ""/static/images/modifae_new_linspace/intelligent/195524_0.4191919191919192.png"", ""questions"": ""[{\""prompt\"":\""<p>How <b>intelligent</b> does this person look to <b>most people</b>? Rate from 1-9</p>\"",\""labels\"":[\""1 <br/><b>Not intelligent at all</b>\"",\""2\"",\""3\"",\""4\"",\""5\"",\""6\"",\""7\"",\""8\"",\""9  <br/><b>Extremely intelligent</b>\""],\""required\"":true}]"", ""task_unique_trial"": 100, ""task_name"": ""intelligent-modifae-single"", ""trial_index"": 66, ""isRepeat"": 0}"
A1QVNF19XSRSD7:369J354OFFHW5AU546GVRPOC3B76GI,67,1548284492610,"{""rt"": null, ""trial_type"": ""html-keyboard-response"", ""task_unique_trial"": 100, ""stimulus"": ""<p>Good job!</p>"", ""task_version"": 1, ""internal_node_id"": ""0.0-7.0-1.0"", ""task_payment"": 1, ""time_elapsed"": 149997, ""debug_mode"": ""live"", ""key_press"": null, ""task_name"": ""intelligent-modifae-single"", ""trial_index"": 67}"
A1QVNF19XSRSD7:369J354OFFHW5AU546GVRPOC3B76GI,68,1548284494564,"{""rt"": 1952, ""trial_type"": ""face-likert-amanda"", ""debug_mode"": ""live"", ""task_type"": ""face trials"", ""responses"": ""{\""Q0\"":4}"", ""task_payment"": 1, ""task_version"": 1, ""internal_node_id"": ""0.0-8.0-0.0-0.0"", ""time_elapsed"": 151951, ""imgName"": ""/static/images/modifae_new_linspace/intelligent/066335_0.3787878787878789.png"", ""questions"": ""[{\""prompt\"":\""<p>How <b>intelligent</b> does this person look to <b>most people</b>? Rate from 1-9</p>\"",\""labels\"":[\""1 <br/><b>Not intelligent at all</b>\"",\""2\"",\""3\"",\""4\"",\""5\"",\""6\"",\""7\"",\""8\"",\""9  <br/><b>Extremely intelligent</b>\""],\""required\"":true}]"", ""task_unique_trial"": 100, ""task_name"": ""intelligent-modifae-single"", ""trial_index"": 68, ""isRepeat"": 0}"
A1QVNF19XSRSD7:369J354OFFHW5AU546GVRPOC3B76GI,69,1548284496390,"{""rt"": 1825, ""trial_type"": ""face-likert-amanda"", ""debug_mode"": ""live"", ""task_type"": ""face trials"", ""responses"": ""{\""Q0\"":3}"", ""task_payment"": 1, ""task_version"": 1, ""internal_node_id"": ""0.0-8.0-0.0-1.0"", ""time_elapsed"": 153777, ""imgName"": ""/static/images/modifae_new_linspace/intelligent/104389_0.40909090909090917.png"", ""questions"": ""[{\""prompt\"":\""<p>How <b>intelligent</b> does this person look to <b>most people</b>? Rate from 1-9</p>\"",\""labels\"":[\""1 <br/><b>Not intelligent at all</b>\"",\""2\"",\""3\"",\""4\"",\""5\"",\""6\"",\""7\"",\""8\"",\""9  <br/><b>Extremely intelligent</b>\""],\""required\"":true}]"", ""task_unique_trial"": 100, ""task_name"": ""intelligent-modifae-single"", ""trial_index"": 69, ""isRepeat"": 0}"
A1QVNF19XSRSD7:369J354OFFHW5AU546GVRPOC3B76GI,70,1548284498983,"{""rt"": 2590, ""trial_type"": ""face-likert-amanda"", ""debug_mode"": ""live"", ""task_type"": ""face trials"", ""responses"": ""{\""Q0\"":2}"", ""task_payment"": 1, ""task_version"": 1, ""internal_node_id"": ""0.0-8.0-0.0-2.0"", ""time_elapsed"": 156370, ""imgName"": ""/static/images/modifae_new_linspace/intelligent/187313_-0.20707070707070707.png"", ""questions"": ""[{\""prompt\"":\""<p>How <b>intelligent</b> does this person look to <b>most people</b>? Rate from 1-9</p>\"",\""labels\"":[\""1 <br/><b>Not intelligent at all</b>\"",\""2\"",\""3\"",\""4\"",\""5\"",\""6\"",\""7\"",\""8\"",\""9  <br/><b>Extremely intelligent</b>\""],\""required\"":true}]"", ""task_unique_trial"": 100, ""task_name"": ""intelligent-modifae-single"", ""trial_index"": 70, ""isRepeat"": 0}"
A1QVNF19XSRSD7:369J354OFFHW5AU546GVRPOC3B76GI,71,1548284501905,"{""rt"": 2921, ""trial_type"": ""face-likert-amanda"", ""debug_mode"": ""live"", ""task_type"": ""face trials"", ""responses"": ""{\""Q0\"":5}"", ""task_payment"": 1, ""task_version"": 1, ""internal_node_id"": ""0.0-8.0-0.0-3.0"", ""time_elapsed"": 159292, ""imgName"": ""/static/images/modifae_new_linspace/intelligent/065751_0.16666666666666674.png"", ""questions"": ""[{\""prompt\"":\""<p>How <b>intelligent</b> does this person look to <b>most people</b>? Rate from 1-9</p>\"",\""labels\"":[\""1 <br/><b>Not intelligent at all</b>\"",\""2\"",\""3\"",\""4\"",\""5\"",\""6\"",\""7\"",\""8\"",\""9  <br/><b>Extremely intelligent</b>\""],\""required\"":true}]"", ""task_unique_trial"": 100, ""task_name"": ""intelligent-modifae-single"", ""trial_index"": 71, ""isRepeat"": 0}"
A1QVNF19XSRSD7:369J354OFFHW5AU546GVRPOC3B76GI,72,1548284503665,"{""rt"": 1757, ""trial_type"": ""face-likert-amanda"", ""debug_mode"": ""live"", ""task_type"": ""face trials"", ""responses"": ""{\""Q0\"":5}"", ""task_payment"": 1, ""task_version"": 1, ""internal_node_id"": ""0.0-8.0-0.0-4.0"", ""time_elapsed"": 161052, ""imgName"": ""/static/images/modifae_new_linspace/intelligent/017328_-0.12626262626262624.png"", ""questions"": ""[{\""prompt\"":\""<p>How <b>intelligent</b> does this person look to <b>most people</b>? Rate from 1-9</p>\"",\""labels\"":[\""1 <br/><b>Not intelligent at all</b>\"",\""2\"",\""3\"",\""4\"",\""5\"",\""6\"",\""7\"",\""8\"",\""9  <br/><b>Extremely intelligent</b>\""],\""required\"":true}]"", ""task_unique_trial"": 100, ""task_name"": ""intelligent-modifae-single"", ""trial_index"": 72, ""isRepeat"": 0}"
A1QVNF19XSRSD7:369J354OFFHW5AU546GVRPOC3B76GI,73,1548284505268,"{""rt"": 1601, ""trial_type"": ""face-likert-amanda"", ""debug_mode"": ""live"", ""task_type"": ""face trials"", ""responses"": ""{\""Q0\"":4}"", ""task_payment"": 1, ""task_version"": 1, ""internal_node_id"": ""0.0-8.0-0.0-5.0"", ""time_elapsed"": 162655, ""imgName"": ""/static/images/modifae_new_linspace/intelligent/035632_-0.2676767676767676.png"", ""questions"": ""[{\""prompt\"":\""<p>How <b>intelligent</b> does this person look to <b>most people</b>? Rate from 1-9</p>\"",\""labels\"":[\""1 <br/><b>Not intelligent at all</b>\"",\""2\"",\""3\"",\""4\"",\""5\"",\""6\"",\""7\"",\""8\"",\""9  <br/><b>Extremely intelligent</b>\""],\""required\"":true}]"", ""task_unique_trial"": 100, ""task_name"": ""intelligent-modifae-single"", ""trial_index"": 73, ""isRepeat"": 0}"
A1QVNF19XSRSD7:369J354OFFHW5AU546GVRPOC3B76GI,74,1548284507064,"{""rt"": 1795, ""trial_type"": ""face-likert-amanda"", ""debug_mode"": ""live"", ""task_type"": ""face trials"", ""responses"": ""{\""Q0\"":6}"", ""task_payment"": 1, ""task_version"": 1, ""internal_node_id"": ""0.0-8.0-0.0-6.0"", ""time_elapsed"": 164451, ""imgName"": ""/static/images/modifae_new_linspace/intelligent/141987_-0.29797979797979796.png"", ""questions"": ""[{\""prompt\"":\""<p>How <b>intelligent</b> does this person look to <b>most people</b>? Rate from 1-9</p>\"",\""labels\"":[\""1 <br/><b>Not intelligent at all</b>\"",\""2\"",\""3\"",\""4\"",\""5\"",\""6\"",\""7\"",\""8\"",\""9  <br/><b>Extremely intelligent</b>\""],\""required\"":true}]"", ""task_unique_trial"": 100, ""task_name"": ""intelligent-modifae-single"", ""trial_index"": 74, ""isRepeat"": 0}"
A1QVNF19XSRSD7:369J354OFFHW5AU546GVRPOC3B76GI,75,1548284509303,"{""rt"": 2237, ""trial_type"": ""face-likert-amanda"", ""debug_mode"": ""live"", ""task_type"": ""face trials"", ""responses"": ""{\""Q0\"":5}"", ""task_payment"": 1, ""task_version"": 1, ""internal_node_id"": ""0.0-8.0-0.0-7.0"", ""time_elapsed"": 166690, ""imgName"": ""/static/images/modifae_new_linspace/intelligent/198895_-0.4393939393939394.png"", ""questions"": ""[{\""prompt\"":\""<p>How <b>intelligent</b> does this person look to <b>most people</b>? Rate from 1-9</p>\"",\""labels\"":[\""1 <br/><b>Not intelligent at all</b>\"",\""2\"",\""3\"",\""4\"",\""5\"",\""6\"",\""7\"",\""8\"",\""9  <br/><b>Extremely intelligent</b>\""],\""required\"":true}]"", ""task_unique_trial"": 100, ""task_name"": ""intelligent-modifae-single"", ""trial_index"": 75, ""isRepeat"": 0}"
A1QVNF19XSRSD7:369J354OFFHW5AU546GVRPOC3B76GI,76,1548284511434,"{""rt"": 2131, ""trial_type"": ""face-likert-amanda"", ""debug_mode"": ""live"", ""task_type"": ""face trials"", ""responses"": ""{\""Q0\"":4}"", ""task_payment"": 1, ""task_version"": 1, ""internal_node_id"": ""0.0-8.0-0.0-8.0"", ""time_elapsed"": 168821, ""imgName"": ""/static/images/modifae_new_linspace/intelligent/135637_0.015151515151515249.png"", ""questions"": ""[{\""prompt\"":\""<p>How <b>intelligent</b> does this person look to <b>most people</b>? Rate from 1-9</p>\"",\""labels\"":[\""1 <br/><b>Not intelligent at all</b>\"",\""2\"",\""3\"",\""4\"",\""5\"",\""6\"",\""7\"",\""8\"",\""9  <br/><b>Extremely intelligent</b>\""],\""required\"":true}]"", ""task_unique_trial"": 100, ""task_name"": ""intelligent-modifae-single"", ""trial_index"": 76, ""isRepeat"": 0}"
A1QVNF19XSRSD7:369J354OFFHW5AU546GVRPOC3B76GI,77,1548284513406,"{""rt"": 1970, ""trial_type"": ""face-likert-amanda"", ""debug_mode"": ""live"", ""task_type"": ""face trials"", ""responses"": ""{\""Q0\"":6}"", ""task_payment"": 1, ""task_version"": 1, ""internal_node_id"": ""0.0-8.0-0.0-9.0"", ""time_elapsed"": 170793, ""imgName"": ""/static/images/modifae_new_linspace/intelligent/159336_0.20707070707070718.png"", ""questions"": ""[{\""prompt\"":\""<p>How <b>intelligent</b> does this person look to <b>most people</b>? Rate from 1-9</p>\"",\""labels\"":[\""1 <br/><b>Not intelligent at all</b>\"",\""2\"",\""3\"",\""4\"",\""5\"",\""6\"",\""7\"",\""8\"",\""9  <br/><b>Extremely intelligent</b>\""],\""required\"":true}]"", ""task_unique_trial"": 100, ""task_name"": ""intelligent-modifae-single"", ""trial_index"": 77, ""isRepeat"": 0}"
A1QVNF19XSRSD7:369J354OFFHW5AU546GVRPOC3B76GI,78,1548284515408,"{""rt"": null, ""trial_type"": ""html-keyboard-response"", ""task_unique_trial"": 100, ""stimulus"": ""<p>Good job!</p>"", ""task_version"": 1, ""internal_node_id"": ""0.0-8.0-1.0"", ""task_payment"": 1, ""time_elapsed"": 172795, ""debug_mode"": ""live"", ""key_press"": null, ""task_name"": ""intelligent-modifae-single"", ""trial_index"": 78}"
A1QVNF19XSRSD7:369J354OFFHW5AU546GVRPOC3B76GI,79,1548284517499,"{""rt"": 2089, ""trial_type"": ""face-likert-amanda"", ""debug_mode"": ""live"", ""task_type"": ""face trials"", ""responses"": ""{\""Q0\"":2}"", ""task_payment"": 1, ""task_version"": 1, ""internal_node_id"": ""0.0-9.0-0.0-0.0"", ""time_elapsed"": 174886, ""imgName"": ""/static/images/modifae_new_linspace/intelligent/179053_-0.2777777777777778.png"", ""questions"": ""[{\""prompt\"":\""<p>How <b>intelligent</b> does this person look to <b>most people</b>? Rate from 1-9</p>\"",\""labels\"":[\""1 <br/><b>Not intelligent at all</b>\"",\""2\"",\""3\"",\""4\"",\""5\"",\""6\"",\""7\"",\""8\"",\""9  <br/><b>Extremely intelligent</b>\""],\""required\"":true}]"", ""task_unique_trial"": 100, ""task_name"": ""intelligent-modifae-single"", ""trial_index"": 79, ""isRepeat"": 0}"
A1QVNF19XSRSD7:369J354OFFHW5AU546GVRPOC3B76GI,80,1548284519327,"{""rt"": 1827, ""trial_type"": ""face-likert-amanda"", ""debug_mode"": ""live"", ""task_type"": ""face trials"", ""responses"": ""{\""Q0\"":3}"", ""task_payment"": 1, ""task_version"": 1, ""internal_node_id"": ""0.0-9.0-0.0-1.0"", ""time_elapsed"": 176714, ""imgName"": ""/static/images/modifae_new_linspace/intelligent/056825_0.24747474747474751.png"", ""questions"": ""[{\""prompt\"":\""<p>How <b>intelligent</b> does this person look to <b>most people</b>? Rate from 1-9</p>\"",\""labels\"":[\""1 <br/><b>Not intelligent at all</b>\"",\""2\"",\""3\"",\""4\"",\""5\"",\""6\"",\""7\"",\""8\"",\""9  <br/><b>Extremely intelligent</b>\""],\""required\"":true}]"", ""task_unique_trial"": 100, ""task_name"": ""intelligent-modifae-single"", ""trial_index"": 80, ""isRepeat"": 0}"
A1QVNF19XSRSD7:369J354OFFHW5AU546GVRPOC3B76GI,81,1548284521186,"{""rt"": 1858, ""trial_type"": ""face-likert-amanda"", ""debug_mode"": ""live"", ""task_type"": ""face trials"", ""responses"": ""{\""Q0\"":3}"", ""task_payment"": 1, ""task_version"": 1, ""internal_node_id"": ""0.0-9.0-0.0-2.0"", ""time_elapsed"": 178573, ""imgName"": ""/static/images/modifae_new_linspace/intelligent/053976_0.10606060606060608.png"", ""questions"": ""[{\""prompt\"":\""<p>How <b>intelligent</b> does this person look to <b>most people</b>? Rate from 1-9</p>\"",\""labels\"":[\""1 <br/><b>Not intelligent at all</b>\"",\""2\"",\""3\"",\""4\"",\""5\"",\""6\"",\""7\"",\""8\"",\""9  <br/><b>Extremely intelligent</b>\""],\""required\"":true}]"", ""task_unique_trial"": 100, ""task_name"": ""intelligent-modifae-single"", ""trial_index"": 81, ""isRepeat"": 0}"
A1QVNF19XSRSD7:369J354OFFHW5AU546GVRPOC3B76GI,82,1548284523140,"{""rt"": 1952, ""trial_type"": ""face-likert-amanda"", ""debug_mode"": ""live"", ""task_type"": ""face trials"", ""responses"": ""{\""Q0\"":2}"", ""task_payment"": 1, ""task_version"": 1, ""internal_node_id"": ""0.0-9.0-0.0-3.0"", ""time_elapsed"": 180527, ""imgName"": ""/static/images/modifae_new_linspace/intelligent/040946_0.3080808080808082.png"", ""questions"": ""[{\""prompt\"":\""<p>How <b>intelligent</b> does this person look to <b>most people</b>? Rate from 1-9</p>\"",\""labels\"":[\""1 <br/><b>Not intelligent at all</b>\"",\""2\"",\""3\"",\""4\"",\""5\"",\""6\"",\""7\"",\""8\"",\""9  <br/><b>Extremely intelligent</b>\""],\""required\"":true}]"", ""task_unique_trial"": 100, ""task_name"": ""intelligent-modifae-single"", ""trial_index"": 82, ""isRepeat"": 0}"
A1QVNF19XSRSD7:369J354OFFHW5AU546GVRPOC3B76GI,83,1548284524755,"{""rt"": 1613, ""trial_type"": ""face-likert-amanda"", ""debug_mode"": ""live"", ""task_type"": ""face trials"", ""responses"": ""{\""Q0\"":4}"", ""task_payment"": 1, ""task_version"": 1, ""internal_node_id"": ""0.0-9.0-0.0-4.0"", ""time_elapsed"": 182142, ""imgName"": ""/static/images/modifae_new_linspace/intelligent/200785_0.2777777777777778.png"", ""questions"": ""[{\""prompt\"":\""<p>How <b>intelligent</b> does this person look to <b>most people</b>? Rate from 1-9</p>\"",\""labels\"":[\""1 <br/><b>Not intelligent at all</b>\"",\""2\"",\""3\"",\""4\"",\""5\"",\""6\"",\""7\"",\""8\"",\""9  <br/><b>Extremely intelligent</b>\""],\""required\"":true}]"", ""task_unique_trial"": 100, ""task_name"": ""intelligent-modifae-single"", ""trial_index"": 83, ""isRepeat"": 0}"
A1QVNF19XSRSD7:369J354OFFHW5AU546GVRPOC3B76GI,84,1548284526731,"{""rt"": 1975, ""trial_type"": ""face-likert-amanda"", ""debug_mode"": ""live"", ""task_type"": ""face trials"", ""responses"": ""{\""Q0\"":5}"", ""task_payment"": 1, ""task_version"": 1, ""internal_node_id"": ""0.0-9.0-0.0-5.0"", ""time_elapsed"": 184118, ""imgName"": ""/static/images/modifae_new_linspace/intelligent/164022_0.025252525252525304.png"", ""questions"": ""[{\""prompt\"":\""<p>How <b>intelligent</b> does this person look to <b>most people</b>? Rate from 1-9</p>\"",\""labels\"":[\""1 <br/><b>Not intelligent at all</b>\"",\""2\"",\""3\"",\""4\"",\""5\"",\""6\"",\""7\"",\""8\"",\""9  <br/><b>Extremely intelligent</b>\""],\""required\"":true}]"", ""task_unique_trial"": 100, ""task_name"": ""intelligent-modifae-single"", ""trial_index"": 84, ""isRepeat"": 0}"
A1QVNF19XSRSD7:369J354OFFHW5AU546GVRPOC3B76GI,85,1548284528637,"{""rt"": 1905, ""trial_type"": ""face-likert-amanda"", ""debug_mode"": ""live"", ""task_type"": ""face trials"", ""responses"": ""{\""Q0\"":6}"", ""task_payment"": 1, ""task_version"": 1, ""internal_node_id"": ""0.0-9.0-0.0-6.0"", ""time_elapsed"": 186024, ""imgName"": ""/static/images/modifae_new_linspace/intelligent/122663_0.0757575757575758.png"", ""questions"": ""[{\""prompt\"":\""<p>How <b>intelligent</b> does this person look to <b>most people</b>? Rate from 1-9</p>\"",\""labels\"":[\""1 <br/><b>Not intelligent at all</b>\"",\""2\"",\""3\"",\""4\"",\""5\"",\""6\"",\""7\"",\""8\"",\""9  <br/><b>Extremely intelligent</b>\""],\""required\"":true}]"", ""task_unique_trial"": 100, ""task_name"": ""intelligent-modifae-single"", ""trial_index"": 85, ""isRepeat"": 0}"
A1QVNF19XSRSD7:369J354OFFHW5AU546GVRPOC3B76GI,86,1548284531185,"{""rt"": 2547, ""trial_type"": ""face-likert-amanda"", ""debug_mode"": ""live"", ""task_type"": ""face trials"", ""responses"": ""{\""Q0\"":6}"", ""task_payment"": 1, ""task_version"": 1, ""internal_node_id"": ""0.0-9.0-0.0-7.0"", ""time_elapsed"": 188572, ""imgName"": ""/static/images/modifae_new_linspace/intelligent/034745_0.28787878787878796.png"", ""questions"": ""[{\""prompt\"":\""<p>How <b>intelligent</b> does this person look to <b>most people</b>? Rate from 1-9</p>\"",\""labels\"":[\""1 <br/><b>Not intelligent at all</b>\"",\""2\"",\""3\"",\""4\"",\""5\"",\""6\"",\""7\"",\""8\"",\""9  <br/><b>Extremely intelligent</b>\""],\""required\"":true}]"", ""task_unique_trial"": 100, ""task_name"": ""intelligent-modifae-single"", ""trial_index"": 86, ""isRepeat"": 0}"
A1QVNF19XSRSD7:369J354OFFHW5AU546GVRPOC3B76GI,87,1548284533231,"{""rt"": 2045, ""trial_type"": ""face-likert-amanda"", ""debug_mode"": ""live"", ""task_type"": ""face trials"", ""responses"": ""{\""Q0\"":5}"", ""task_payment"": 1, ""task_version"": 1, ""internal_node_id"": ""0.0-9.0-0.0-8.0"", ""time_elapsed"": 190618, ""imgName"": ""/static/images/modifae_new_linspace/intelligent/197011_0.21717171717171724.png"", ""questions"": ""[{\""prompt\"":\""<p>How <b>intelligent</b> does this person look to <b>most people</b>? Rate from 1-9</p>\"",\""labels\"":[\""1 <br/><b>Not intelligent at all</b>\"",\""2\"",\""3\"",\""4\"",\""5\"",\""6\"",\""7\"",\""8\"",\""9  <br/><b>Extremely intelligent</b>\""],\""required\"":true}]"", ""task_unique_trial"": 100, ""task_name"": ""intelligent-modifae-single"", ""trial_index"": 87, ""isRepeat"": 0}"
A1QVNF19XSRSD7:369J354OFFHW5AU546GVRPOC3B76GI,88,1548284535056,"{""rt"": 1824, ""trial_type"": ""face-likert-amanda"", ""debug_mode"": ""live"", ""task_type"": ""face trials"", ""responses"": ""{\""Q0\"":3}"", ""task_payment"": 1, ""task_version"": 1, ""internal_node_id"": ""0.0-9.0-0.0-9.0"", ""time_elapsed"": 192443, ""imgName"": ""/static/images/modifae_new_linspace/intelligent/192160_0.3585858585858587.png"", ""questions"": ""[{\""prompt\"":\""<p>How <b>intelligent</b> does this person look to <b>most people</b>? Rate from 1-9</p>\"",\""labels\"":[\""1 <br/><b>Not intelligent at all</b>\"",\""2\"",\""3\"",\""4\"",\""5\"",\""6\"",\""7\"",\""8\"",\""9  <br/><b>Extremely intelligent</b>\""],\""required\"":true}]"", ""task_unique_trial"": 100, ""task_name"": ""intelligent-modifae-single"", ""trial_index"": 88, ""isRepeat"": 0}"
A1QVNF19XSRSD7:369J354OFFHW5AU546GVRPOC3B76GI,89,1548284537058,"{""rt"": null, ""trial_type"": ""html-keyboard-response"", ""task_unique_trial"": 100, ""stimulus"": ""<p>Good job!</p>"", ""task_version"": 1, ""internal_node_id"": ""0.0-9.0-1.0"", ""task_payment"": 1, ""time_elapsed"": 194445, ""debug_mode"": ""live"", ""key_press"": null, ""task_name"": ""intelligent-modifae-single"", ""trial_index"": 89}"
A1QVNF19XSRSD7:369J354OFFHW5AU546GVRPOC3B76GI,90,1548284538887,"{""rt"": 1827, ""trial_type"": ""face-likert-amanda"", ""debug_mode"": ""live"", ""task_type"": ""face trials"", ""responses"": ""{\""Q0\"":4}"", ""task_payment"": 1, ""task_version"": 1, ""internal_node_id"": ""0.0-10.0-0.0-0.0"", ""time_elapsed"": 196274, ""imgName"": ""/static/images/modifae_new_linspace/intelligent/180549_0.03535353535353536.png"", ""questions"": ""[{\""prompt\"":\""<p>How <b>intelligent</b> does this person look to <b>most people</b>? Rate from 1-9</p>\"",\""labels\"":[\""1 <br/><b>Not intelligent at all</b>\"",\""2\"",\""3\"",\""4\"",\""5\"",\""6\"",\""7\"",\""8\"",\""9  <br/><b>Extremely intelligent</b>\""],\""required\"":true}]"", ""task_unique_trial"": 100, ""task_name"": ""intelligent-modifae-single"", ""trial_index"": 90, ""isRepeat"": 0}"
A1QVNF19XSRSD7:369J354OFFHW5AU546GVRPOC3B76GI,91,1548284541053,"{""rt"": 2163, ""trial_type"": ""face-likert-amanda"", ""debug_mode"": ""live"", ""task_type"": ""face trials"", ""responses"": ""{\""Q0\"":6}"", ""task_payment"": 1, ""task_version"": 1, ""internal_node_id"": ""0.0-10.0-0.0-1.0"", ""time_elapsed"": 198440, ""imgName"": ""/static/images/modifae_new_linspace/intelligent/119066_-0.22727272727272724.png"", ""questions"": ""[{\""prompt\"":\""<p>How <b>intelligent</b> does this person look to <b>most people</b>? Rate from 1-9</p>\"",\""labels\"":[\""1 <br/><b>Not intelligent at all</b>\"",\""2\"",\""3\"",\""4\"",\""5\"",\""6\"",\""7\"",\""8\"",\""9  <br/><b>Extremely intelligent</b>\""],\""required\"":true}]"", ""task_unique_trial"": 100, ""task_name"": ""intelligent-modifae-single"", ""trial_index"": 91, ""isRepeat"": 0}"
A1QVNF19XSRSD7:369J354OFFHW5AU546GVRPOC3B76GI,92,1548284542580,"{""rt"": 1524, ""trial_type"": ""face-likert-amanda"", ""debug_mode"": ""live"", ""task_type"": ""face trials"", ""responses"": ""{\""Q0\"":5}"", ""task_payment"": 1, ""task_version"": 1, ""internal_node_id"": ""0.0-10.0-0.0-2.0"", ""time_elapsed"": 199967, ""imgName"": ""/static/images/modifae_new_linspace/intelligent/087481_-0.015151515151515138.png"", ""questions"": ""[{\""prompt\"":\""<p>How <b>intelligent</b> does this person look to <b>most people</b>? Rate from 1-9</p>\"",\""labels\"":[\""1 <br/><b>Not intelligent at all</b>\"",\""2\"",\""3\"",\""4\"",\""5\"",\""6\"",\""7\"",\""8\"",\""9  <br/><b>Extremely intelligent</b>\""],\""required\"":true}]"", ""task_unique_trial"": 100, ""task_name"": ""intelligent-modifae-single"", ""trial_index"": 92, ""isRepeat"": 0}"
A1QVNF19XSRSD7:369J354OFFHW5AU546GVRPOC3B76GI,93,1548284544504,"{""rt"": 1922, ""trial_type"": ""face-likert-amanda"", ""debug_mode"": ""live"", ""task_type"": ""face trials"", ""responses"": ""{\""Q0\"":6}"", ""task_payment"": 1, ""task_version"": 1, ""internal_node_id"": ""0.0-10.0-0.0-3.0"", ""time_elapsed"": 201890, ""imgName"": ""/static/images/modifae_new_linspace/intelligent/106232_-0.4797979797979798.png"", ""questions"": ""[{\""prompt\"":\""<p>How <b>intelligent</b> does this person look to <b>most people</b>? Rate from 1-9</p>\"",\""labels\"":[\""1 <br/><b>Not intelligent at all</b>\"",\""2\"",\""3\"",\""4\"",\""5\"",\""6\"",\""7\"",\""8\"",\""9  <br/><b>Extremely intelligent</b>\""],\""required\"":true}]"", ""task_unique_trial"": 100, ""task_name"": ""intelligent-modifae-single"", ""trial_index"": 93, ""isRepeat"": 0}"
A1QVNF19XSRSD7:369J354OFFHW5AU546GVRPOC3B76GI,94,1548284545989,"{""rt"": 1485, ""trial_type"": ""face-likert-amanda"", ""debug_mode"": ""live"", ""task_type"": ""face trials"", ""responses"": ""{\""Q0\"":5}"", ""task_payment"": 1, ""task_version"": 1, ""internal_node_id"": ""0.0-10.0-0.0-4.0"", ""time_elapsed"": 203376, ""imgName"": ""/static/images/modifae_new_linspace/intelligent/120202_0.005050505050505083.png"", ""questions"": ""[{\""prompt\"":\""<p>How <b>intelligent</b> does this person look to <b>most people</b>? Rate from 1-9</p>\"",\""labels\"":[\""1 <br/><b>Not intelligent at all</b>\"",\""2\"",\""3\"",\""4\"",\""5\"",\""6\"",\""7\"",\""8\"",\""9  <br/><b>Extremely intelligent</b>\""],\""required\"":true}]"", ""task_unique_trial"": 100, ""task_name"": ""intelligent-modifae-single"", ""trial_index"": 94, ""isRepeat"": 0}"
A1QVNF19XSRSD7:369J354OFFHW5AU546GVRPOC3B76GI,95,1548284548546,"{""rt"": 2554, ""trial_type"": ""face-likert-amanda"", ""debug_mode"": ""live"", ""task_type"": ""face trials"", ""responses"": ""{\""Q0\"":5}"", ""task_payment"": 1, ""task_version"": 1, ""internal_node_id"": ""0.0-10.0-0.0-5.0"", ""time_elapsed"": 205933, ""imgName"": ""/static/images/modifae_new_linspace/intelligent/187715_0.297979797979798.png"", ""questions"": ""[{\""prompt\"":\""<p>How <b>intelligent</b> does this person look to <b>most people</b>? Rate from 1-9</p>\"",\""labels\"":[\""1 <br/><b>Not intelligent at all</b>\"",\""2\"",\""3\"",\""4\"",\""5\"",\""6\"",\""7\"",\""8\"",\""9  <br/><b>Extremely intelligent</b>\""],\""required\"":true}]"", ""task_unique_trial"": 100, ""task_name"": ""intelligent-modifae-single"", ""trial_index"": 95, ""isRepeat"": 0}"
A1QVNF19XSRSD7:369J354OFFHW5AU546GVRPOC3B76GI,96,1548284550710,"{""rt"": 2162, ""trial_type"": ""face-likert-amanda"", ""debug_mode"": ""live"", ""task_type"": ""face trials"", ""responses"": ""{\""Q0\"":4}"", ""task_payment"": 1, ""task_version"": 1, ""internal_node_id"": ""0.0-10.0-0.0-6.0"", ""time_elapsed"": 208096, ""imgName"": ""/static/images/modifae_new_linspace/intelligent/040428_-0.06565656565656564.png"", ""questions"": ""[{\""prompt\"":\""<p>How <b>intelligent</b> does this person look to <b>most people</b>? Rate from 1-9</p>\"",\""labels\"":[\""1 <br/><b>Not intelligent at all</b>\"",\""2\"",\""3\"",\""4\"",\""5\"",\""6\"",\""7\"",\""8\"",\""9  <br/><b>Extremely intelligent</b>\""],\""required\"":true}]"", ""task_unique_trial"": 100, ""task_name"": ""intelligent-modifae-single"", ""trial_index"": 96, ""isRepeat"": 0}"
A1QVNF19XSRSD7:369J354OFFHW5AU546GVRPOC3B76GI,97,1548284552380,"{""rt"": 1668, ""trial_type"": ""face-likert-amanda"", ""debug_mode"": ""live"", ""task_type"": ""face trials"", ""responses"": ""{\""Q0\"":3}"", ""task_payment"": 1, ""task_version"": 1, ""internal_node_id"": ""0.0-10.0-0.0-7.0"", ""time_elapsed"": 209767, ""imgName"": ""/static/images/modifae_new_linspace/intelligent/170032_0.3484848484848485.png"", ""questions"": ""[{\""prompt\"":\""<p>How <b>intelligent</b> does this person look to <b>most people</b>? Rate from 1-9</p>\"",\""labels\"":[\""1 <br/><b>Not intelligent at all</b>\"",\""2\"",\""3\"",\""4\"",\""5\"",\""6\"",\""7\"",\""8\"",\""9  <br/><b>Extremely intelligent</b>\""],\""required\"":true}]"", ""task_unique_trial"": 100, ""task_name"": ""intelligent-modifae-single"", ""trial_index"": 97, ""isRepeat"": 0}"
A1QVNF19XSRSD7:369J354OFFHW5AU546GVRPOC3B76GI,98,1548284554861,"{""rt"": 2479, ""trial_type"": ""face-likert-amanda"", ""debug_mode"": ""live"", ""task_type"": ""face trials"", ""responses"": ""{\""Q0\"":4}"", ""task_payment"": 1, ""task_version"": 1, ""internal_node_id"": ""0.0-10.0-0.0-8.0"", ""time_elapsed"": 212247, ""imgName"": ""/static/images/modifae_new_linspace/intelligent/125460_-0.0050505050505050275.png"", ""questions"": ""[{\""prompt\"":\""<p>How <b>intelligent</b> does this person look to <b>most people</b>? Rate from 1-9</p>\"",\""labels\"":[\""1 <br/><b>Not intelligent at all</b>\"",\""2\"",\""3\"",\""4\"",\""5\"",\""6\"",\""7\"",\""8\"",\""9  <br/><b>Extremely intelligent</b>\""],\""required\"":true}]"", ""task_unique_trial"": 100, ""task_name"": ""intelligent-modifae-single"", ""trial_index"": 98, ""isRepeat"": 0}"
A1QVNF19XSRSD7:369J354OFFHW5AU546GVRPOC3B76GI,99,1548284556584,"{""rt"": 1720, ""trial_type"": ""face-likert-amanda"", ""debug_mode"": ""live"", ""task_type"": ""face trials"", ""responses"": ""{\""Q0\"":4}"", ""task_payment"": 1, ""task_version"": 1, ""internal_node_id"": ""0.0-10.0-0.0-9.0"", ""time_elapsed"": 213970, ""imgName"": ""/static/images/modifae_new_linspace/intelligent/196291_-0.24747474747474746.png"", ""questions"": ""[{\""prompt\"":\""<p>How <b>intelligent</b> does this person look to <b>most people</b>? Rate from 1-9</p>\"",\""labels\"":[\""1 <br/><b>Not intelligent at all</b>\"",\""2\"",\""3\"",\""4\"",\""5\"",\""6\"",\""7\"",\""8\"",\""9  <br/><b>Extremely intelligent</b>\""],\""required\"":true}]"", ""task_unique_trial"": 100, ""task_name"": ""intelligent-modifae-single"", ""trial_index"": 99, ""isRepeat"": 0}"
A1QVNF19XSRSD7:369J354OFFHW5AU546GVRPOC3B76GI,100,1548284558586,"{""rt"": null, ""trial_type"": ""html-keyboard-response"", ""task_unique_trial"": 100, ""stimulus"": ""<p>Good job!</p>"", ""task_version"": 1, ""internal_node_id"": ""0.0-10.0-1.0"", ""task_payment"": 1, ""time_elapsed"": 215973, ""debug_mode"": ""live"", ""key_press"": null, ""task_name"": ""intelligent-modifae-single"", ""trial_index"": 100}"
A1QVNF19XSRSD7:369J354OFFHW5AU546GVRPOC3B76GI,101,1548284560330,"{""rt"": 1741, ""trial_type"": ""face-likert-amanda"", ""debug_mode"": ""live"", ""task_type"": ""face trials"", ""responses"": ""{\""Q0\"":5}"", ""task_payment"": 1, ""task_version"": 1, ""internal_node_id"": ""0.0-11.0-0.0-0.0"", ""time_elapsed"": 217717, ""imgName"": ""/static/images/modifae_new_linspace/intelligent/165313_-0.11616161616161613.png"", ""questions"": ""[{\""prompt\"":\""<p>How <b>intelligent</b> does this person look to <b>most people</b>? Rate from 1-9</p>\"",\""labels\"":[\""1 <br/><b>Not intelligent at all</b>\"",\""2\"",\""3\"",\""4\"",\""5\"",\""6\"",\""7\"",\""8\"",\""9  <br/><b>Extremely intelligent</b>\""],\""required\"":true}]"", ""task_unique_trial"": 100, ""task_name"": ""intelligent-modifae-single"", ""trial_index"": 101, ""isRepeat"": 0}"
A1QVNF19XSRSD7:369J354OFFHW5AU546GVRPOC3B76GI,102,1548284561739,"{""rt"": 1407, ""trial_type"": ""face-likert-amanda"", ""debug_mode"": ""live"", ""task_type"": ""face trials"", ""responses"": ""{\""Q0\"":5}"", ""task_payment"": 1, ""task_version"": 1, ""internal_node_id"": ""0.0-11.0-0.0-1.0"", ""time_elapsed"": 219126, ""imgName"": ""/static/images/modifae_new_linspace/intelligent/135421_0.045454545454545525.png"", ""questions"": ""[{\""prompt\"":\""<p>How <b>intelligent</b> does this person look to <b>most people</b>? Rate from 1-9</p>\"",\""labels\"":[\""1 <br/><b>Not intelligent at all</b>\"",\""2\"",\""3\"",\""4\"",\""5\"",\""6\"",\""7\"",\""8\"",\""9  <br/><b>Extremely intelligent</b>\""],\""required\"":true}]"", ""task_unique_trial"": 100, ""task_name"": ""intelligent-modifae-single"", ""trial_index"": 102, ""isRepeat"": 0}"
A1QVNF19XSRSD7:369J354OFFHW5AU546GVRPOC3B76GI,103,1548284563113,"{""rt"": 1371, ""trial_type"": ""face-likert-amanda"", ""debug_mode"": ""live"", ""task_type"": ""face trials"", ""responses"": ""{\""Q0\"":4}"", ""task_payment"": 1, ""task_version"": 1, ""internal_node_id"": ""0.0-11.0-0.0-2.0"", ""time_elapsed"": 220500, ""imgName"": ""/static/images/modifae_new_linspace/intelligent/005839_0.45959595959595967.png"", ""questions"": ""[{\""prompt\"":\""<p>How <b>intelligent</b> does this person look to <b>most people</b>? Rate from 1-9</p>\"",\""labels\"":[\""1 <br/><b>Not intelligent at all</b>\"",\""2\"",\""3\"",\""4\"",\""5\"",\""6\"",\""7\"",\""8\"",\""9  <br/><b>Extremely intelligent</b>\""],\""required\"":true}]"", ""task_unique_trial"": 100, ""task_name"": ""intelligent-modifae-single"", ""trial_index"": 103, ""isRepeat"": 0}"
A1QVNF19XSRSD7:369J354OFFHW5AU546GVRPOC3B76GI,104,1548284565041,"{""rt"": 1926, ""trial_type"": ""face-likert-amanda"", ""debug_mode"": ""live"", ""task_type"": ""face trials"", ""responses"": ""{\""Q0\"":3}"", ""task_payment"": 1, ""task_version"": 1, ""internal_node_id"": ""0.0-11.0-0.0-3.0"", ""time_elapsed"": 222427, ""imgName"": ""/static/images/modifae_new_linspace/intelligent/140101_0.09595959595959602.png"", ""questions"": ""[{\""prompt\"":\""<p>How <b>intelligent</b> does this person look to <b>most people</b>? Rate from 1-9</p>\"",\""labels\"":[\""1 <br/><b>Not intelligent at all</b>\"",\""2\"",\""3\"",\""4\"",\""5\"",\""6\"",\""7\"",\""8\"",\""9  <br/><b>Extremely intelligent</b>\""],\""required\"":true}]"", ""task_unique_trial"": 100, ""task_name"": ""intelligent-modifae-single"", ""trial_index"": 104, ""isRepeat"": 0}"
A1QVNF19XSRSD7:369J354OFFHW5AU546GVRPOC3B76GI,105,1548284566731,"{""rt"": 1688, ""trial_type"": ""face-likert-amanda"", ""debug_mode"": ""live"", ""task_type"": ""face trials"", ""responses"": ""{\""Q0\"":3}"", ""task_payment"": 1, ""task_version"": 1, ""internal_node_id"": ""0.0-11.0-0.0-4.0"", ""time_elapsed"": 224118, ""imgName"": ""/static/images/modifae_new_linspace/intelligent/021699_0.5.png"", ""questions"": ""[{\""prompt\"":\""<p>How <b>intelligent</b> does this person look to <b>most people</b>? Rate from 1-9</p>\"",\""labels\"":[\""1 <br/><b>Not intelligent at all</b>\"",\""2\"",\""3\"",\""4\"",\""5\"",\""6\"",\""7\"",\""8\"",\""9  <br/><b>Extremely intelligent</b>\""],\""required\"":true}]"", ""task_unique_trial"": 100, ""task_name"": ""intelligent-modifae-single"", ""trial_index"": 105, ""isRepeat"": 0}"
A1QVNF19XSRSD7:369J354OFFHW5AU546GVRPOC3B76GI,106,1548284568701,"{""rt"": 1969, ""trial_type"": ""face-likert-amanda"", ""debug_mode"": ""live"", ""task_type"": ""face trials"", ""responses"": ""{\""Q0\"":2}"", ""task_payment"": 1, ""task_version"": 1, ""internal_node_id"": ""0.0-11.0-0.0-5.0"", ""time_elapsed"": 226088, ""imgName"": ""/static/images/modifae_new_linspace/intelligent/141781_0.14646464646464652.png"", ""questions"": ""[{\""prompt\"":\""<p>How <b>intelligent</b> does this person look to <b>most people</b>? Rate from 1-9</p>\"",\""labels\"":[\""1 <br/><b>Not intelligent at all</b>\"",\""2\"",\""3\"",\""4\"",\""5\"",\""6\"",\""7\"",\""8\"",\""9  <br/><b>Extremely intelligent</b>\""],\""required\"":true}]"", ""task_unique_trial"": 100, ""task_name"": ""intelligent-modifae-single"", ""trial_index"": 106, ""isRepeat"": 0}"
A1QVNF19XSRSD7:369J354OFFHW5AU546GVRPOC3B76GI,107,1548284570392,"{""rt"": 1689, ""trial_type"": ""face-likert-amanda"", ""debug_mode"": ""live"", ""task_type"": ""face trials"", ""responses"": ""{\""Q0\"":6}"", ""task_payment"": 1, ""task_version"": 1, ""internal_node_id"": ""0.0-11.0-0.0-6.0"", ""time_elapsed"": 227779, ""imgName"": ""/static/images/modifae_new_linspace/intelligent/135637_0.015151515151515249.png"", ""questions"": ""[{\""prompt\"":\""<p>How <b>intelligent</b> does this person look to <b>most people</b>? Rate from 1-9</p>\"",\""labels\"":[\""1 <br/><b>Not intelligent at all</b>\"",\""2\"",\""3\"",\""4\"",\""5\"",\""6\"",\""7\"",\""8\"",\""9  <br/><b>Extremely intelligent</b>\""],\""required\"":true}]"", ""task_unique_trial"": 100, ""task_name"": ""intelligent-modifae-single"", ""trial_index"": 107, ""isRepeat"": 0}"
A1QVNF19XSRSD7:369J354OFFHW5AU546GVRPOC3B76GI,108,1548284572026,"{""rt"": 1629, ""trial_type"": ""face-likert-amanda"", ""debug_mode"": ""live"", ""task_type"": ""face trials"", ""responses"": ""{\""Q0\"":5}"", ""task_payment"": 1, ""task_version"": 1, ""internal_node_id"": ""0.0-11.0-0.0-7.0"", ""time_elapsed"": 229413, ""imgName"": ""/static/images/modifae_new_linspace/intelligent/177685_-0.41919191919191917.png"", ""questions"": ""[{\""prompt\"":\""<p>How <b>intelligent</b> does this person look to <b>most people</b>? Rate from 1-9</p>\"",\""labels\"":[\""1 <br/><b>Not intelligent at all</b>\"",\""2\"",\""3\"",\""4\"",\""5\"",\""6\"",\""7\"",\""8\"",\""9  <br/><b>Extremely intelligent</b>\""],\""required\"":true}]"", ""task_unique_trial"": 100, ""task_name"": ""intelligent-modifae-single"", ""trial_index"": 108, ""isRepeat"": 0}"
A1QVNF19XSRSD7:369J354OFFHW5AU546GVRPOC3B76GI,109,1548284574077,"{""rt"": 2050, ""trial_type"": ""face-likert-amanda"", ""debug_mode"": ""live"", ""task_type"": ""face trials"", ""responses"": ""{\""Q0\"":6}"", ""task_payment"": 1, ""task_version"": 1, ""internal_node_id"": ""0.0-11.0-0.0-8.0"", ""time_elapsed"": 231464, ""imgName"": ""/static/images/modifae_new_linspace/intelligent/135421_0.045454545454545525.png"", ""questions"": ""[{\""prompt\"":\""<p>How <b>intelligent</b> does this person look to <b>most people</b>? Rate from 1-9</p>\"",\""labels\"":[\""1 <br/><b>Not intelligent at all</b>\"",\""2\"",\""3\"",\""4\"",\""5\"",\""6\"",\""7\"",\""8\"",\""9  <br/><b>Extremely intelligent</b>\""],\""required\"":true}]"", ""task_unique_trial"": 100, ""task_name"": ""intelligent-modifae-single"", ""trial_index"": 109, ""isRepeat"": 0}"
A1QVNF19XSRSD7:369J354OFFHW5AU546GVRPOC3B76GI,110,1548284575794,"{""rt"": 1714, ""trial_type"": ""face-likert-amanda"", ""debug_mode"": ""live"", ""task_type"": ""face trials"", ""responses"": ""{\""Q0\"":5}"", ""task_payment"": 1, ""task_version"": 1, ""internal_node_id"": ""0.0-11.0-0.0-9.0"", ""time_elapsed"": 233181, ""imgName"": ""/static/images/modifae_new_linspace/intelligent/066124_-0.25757575757575757.png"", ""questions"": ""[{\""prompt\"":\""<p>How <b>intelligent</b> does this person look to <b>most people</b>? Rate from 1-9</p>\"",\""labels\"":[\""1 <br/><b>Not intelligent at all</b>\"",\""2\"",\""3\"",\""4\"",\""5\"",\""6\"",\""7\"",\""8\"",\""9  <br/><b>Extremely intelligent</b>\""],\""required\"":true}]"", ""task_unique_trial"": 100, ""task_name"": ""intelligent-modifae-single"", ""trial_index"": 110, ""isRepeat"": 0}"
A1QVNF19XSRSD7:369J354OFFHW5AU546GVRPOC3B76GI,111,1548284577795,"{""rt"": null, ""trial_type"": ""html-keyboard-response"", ""task_unique_trial"": 100, ""stimulus"": ""<p>Good job!</p>"", ""task_version"": 1, ""internal_node_id"": ""0.0-11.0-1.0"", ""task_payment"": 1, ""time_elapsed"": 235182, ""debug_mode"": ""live"", ""key_press"": null, ""task_name"": ""intelligent-modifae-single"", ""trial_index"": 111}"
A1QVNF19XSRSD7:369J354OFFHW5AU546GVRPOC3B76GI,112,1548284580693,"{""rt"": 2893, ""trial_type"": ""survey-text-req"", ""task_type"": ""feedback for HIT"", ""responses"": ""{\""Q0\"":\""\""}"", ""task_payment"": 1, ""task_version"": 1, ""internal_node_id"": ""0.0-12.0"", ""time_elapsed"": 238080, ""debug_mode"": ""live"", ""task_name"": ""intelligent-modifae-single"", ""task_unique_trial"": 100, ""trial_index"": 112}"
AOWY4TEB0UCMX:3P4RDNWND7DMPWF7EDANL56X4URJI1,0,1548286344140,"{""rt"": 38709, ""trial_type"": ""instructions"", ""view_history"": ""[{\""page_index\"":0,\""viewing_time\"":10663},{\""page_index\"":1,\""viewing_time\"":14294},{\""page_index\"":2,\""viewing_time\"":13752}]"", ""task_type"": ""instruction"", ""task_payment"": 1, ""task_version"": 1, ""internal_node_id"": ""0.0-0.0"", ""time_elapsed"": 38712, ""debug_mode"": ""live"", ""task_name"": ""intelligent-modifae-single"", ""task_unique_trial"": 100, ""trial_index"": 0}"
AOWY4TEB0UCMX:3P4RDNWND7DMPWF7EDANL56X4URJI1,1,1548286365462,"{""rt"": 21309, ""trial_type"": ""survey-multi-choice"", ""task_type"": ""demographic-multichoice"", ""responses"": ""{\""Q0\"":\""36-45\"",\""Q1\"":\""Female\"",\""Q2\"":\""No\"",\""Q3\"":\""3\"",\""Q4\"":\""White\"",\""Q5\"":\""Some college, no degree\"",\""Q6\"":\""$20,000  - $49,999\""}"", ""task_payment"": 1, ""task_version"": 1, ""time_elapsed"": 60035, ""sanity_check_1_continue"": true, ""random_num"": 3, ""debug_mode"": ""live"", ""questions"": ""[{\""prompt\"":\""What is your age?\"",\""options\"":[\""Under 18\"",\""18-25\"",\""26-35\"",\""36-45\"",\""46-55\"",\""56+\""],\""required\"":true},{\""prompt\"":\""What is your gender?\"",\""options\"":[\""Male\"",\""Female\"",\""Other/Prefer not to say\""],\""required\"":true},{\""prompt\"":\""Are you of Hispanic, Latino, or Spanish origin?\"",\""options\"":[\""Yes\"",\""No\""],\""required\"":true},{\""prompt\"":\""Please choose the option that matches the number here: 3\"",\""options\"":[\""1\"",\""2\"",\""3\"",\""4\""],\""required\"":true},{\""prompt\"":\""How would you describe yourself?\"",\""options\"":[\""American Indian or Alaskan Native\"",\""Asian\"",\""Black or African-American\"",\""Native Hawaiian or Other Pacific Islander\"",\""White\""],\""required\"":true},{\""prompt\"":\""What is the highest degree or level of school you have completed? (If you&#8217;re currently enrolled in school, please indicate the highest degree you have received)\"",\""options\"":[\""Less than a high school diploma\"",\""High school degree or equivalent (e.g. GED)\"",\""Some college, no degree\"",\""Associate degree (e.g. AA, AS)\"",\""Bachelor&#8217;s degree (e.g. BA, BS) or above\""],\""required\"":true},{\""prompt\"":\""What is the total income of all members of your household?\"",\""options\"":[\""Less than $20,000\"",\""$20,000  - $49,999\"",\""$50,000 - $74,999\"",\""$75,000 and above\""],\""required\"":true}]"", ""internal_node_id"": ""0.0-1.0-0.0"", ""task_unique_trial"": 100, ""task_name"": ""intelligent-modifae-single"", ""trial_index"": 1}"
AOWY4TEB0UCMX:3P4RDNWND7DMPWF7EDANL56X4URJI1,2,1548286375604,"{""rt"": 10138, ""trial_type"": ""face-likert-amanda"", ""debug_mode"": ""live"", ""task_type"": ""face trials"", ""responses"": ""{\""Q0\"":4}"", ""task_payment"": 1, ""task_version"": 1, ""internal_node_id"": ""0.0-2.0-0.0-0.0"", ""time_elapsed"": 70177, ""imgName"": ""/static/images/modifae_new_linspace/intelligent/075861_0.43939393939393945.png"", ""questions"": ""[{\""prompt\"":\""<p>How <b>intelligent</b> does this person look to <b>most people</b>? Rate from 1-9</p>\"",\""labels\"":[\""1 <br/><b>Not intelligent at all</b>\"",\""2\"",\""3\"",\""4\"",\""5\"",\""6\"",\""7\"",\""8\"",\""9  <br/><b>Extremely intelligent</b>\""],\""required\"":true}]"", ""task_unique_trial"": 100, ""task_name"": ""intelligent-modifae-single"", ""trial_index"": 2, ""isRepeat"": 0}"
AOWY4TEB0UCMX:3P4RDNWND7DMPWF7EDANL56X4URJI1,3,1548286379711,"{""rt"": 4106, ""trial_type"": ""face-likert-amanda"", ""debug_mode"": ""live"", ""task_type"": ""face trials"", ""responses"": ""{\""Q0\"":5}"", ""task_payment"": 1, ""task_version"": 1, ""internal_node_id"": ""0.0-2.0-0.0-1.0"", ""time_elapsed"": 74284, ""imgName"": ""/static/images/modifae_new_linspace/intelligent/040428_-0.06565656565656564.png"", ""questions"": ""[{\""prompt\"":\""<p>How <b>intelligent</b> does this person look to <b>most people</b>? Rate from 1-9</p>\"",\""labels\"":[\""1 <br/><b>Not intelligent at all</b>\"",\""2\"",\""3\"",\""4\"",\""5\"",\""6\"",\""7\"",\""8\"",\""9  <br/><b>Extremely intelligent</b>\""],\""required\"":true}]"", ""task_unique_trial"": 100, ""task_name"": ""intelligent-modifae-single"", ""trial_index"": 3, ""isRepeat"": 0}"
AOWY4TEB0UCMX:3P4RDNWND7DMPWF7EDANL56X4URJI1,4,1548286383190,"{""rt"": 3478, ""trial_type"": ""face-likert-amanda"", ""debug_mode"": ""live"", ""task_type"": ""face trials"", ""responses"": ""{\""Q0\"":3}"", ""task_payment"": 1, ""task_version"": 1, ""internal_node_id"": ""0.0-2.0-0.0-2.0"", ""time_elapsed"": 77763, ""imgName"": ""/static/images/modifae_new_linspace/intelligent/177685_-0.41919191919191917.png"", ""questions"": ""[{\""prompt\"":\""<p>How <b>intelligent</b> does this person look to <b>most people</b>? Rate from 1-9</p>\"",\""labels\"":[\""1 <br/><b>Not intelligent at all</b>\"",\""2\"",\""3\"",\""4\"",\""5\"",\""6\"",\""7\"",\""8\"",\""9  <br/><b>Extremely intelligent</b>\""],\""required\"":true}]"", ""task_unique_trial"": 100, ""task_name"": ""intelligent-modifae-single"", ""trial_index"": 4, ""isRepeat"": 0}"
AOWY4TEB0UCMX:3P4RDNWND7DMPWF7EDANL56X4URJI1,5,1548286387707,"{""rt"": 4514, ""trial_type"": ""face-likert-amanda"", ""debug_mode"": ""live"", ""task_type"": ""face trials"", ""responses"": ""{\""Q0\"":3}"", ""task_payment"": 1, ""task_version"": 1, ""internal_node_id"": ""0.0-2.0-0.0-3.0"", ""time_elapsed"": 82280, ""imgName"": ""/static/images/modifae_new_linspace/intelligent/051002_-0.4696969696969697.png"", ""questions"": ""[{\""prompt\"":\""<p>How <b>intelligent</b> does this person look to <b>most people</b>? Rate from 1-9</p>\"",\""labels\"":[\""1 <br/><b>Not intelligent at all</b>\"",\""2\"",\""3\"",\""4\"",\""5\"",\""6\"",\""7\"",\""8\"",\""9  <br/><b>Extremely intelligent</b>\""],\""required\"":true}]"", ""task_unique_trial"": 100, ""task_name"": ""intelligent-modifae-single"", ""trial_index"": 5, ""isRepeat"": 0}"
AOWY4TEB0UCMX:3P4RDNWND7DMPWF7EDANL56X4URJI1,6,1548286391635,"{""rt"": 3926, ""trial_type"": ""face-likert-amanda"", ""debug_mode"": ""live"", ""task_type"": ""face trials"", ""responses"": ""{\""Q0\"":4}"", ""task_payment"": 1, ""task_version"": 1, ""internal_node_id"": ""0.0-2.0-0.0-4.0"", ""time_elapsed"": 86208, ""imgName"": ""/static/images/modifae_new_linspace/intelligent/179053_-0.2777777777777778.png"", ""questions"": ""[{\""prompt\"":\""<p>How <b>intelligent</b> does this person look to <b>most people</b>? Rate from 1-9</p>\"",\""labels\"":[\""1 <br/><b>Not intelligent at all</b>\"",\""2\"",\""3\"",\""4\"",\""5\"",\""6\"",\""7\"",\""8\"",\""9  <br/><b>Extremely intelligent</b>\""],\""required\"":true}]"", ""task_unique_trial"": 100, ""task_name"": ""intelligent-modifae-single"", ""trial_index"": 6, ""isRepeat"": 0}"
AOWY4TEB0UCMX:3P4RDNWND7DMPWF7EDANL56X4URJI1,7,1548286395813,"{""rt"": 4177, ""trial_type"": ""face-likert-amanda"", ""debug_mode"": ""live"", ""task_type"": ""face trials"", ""responses"": ""{\""Q0\"":5}"", ""task_payment"": 1, ""task_version"": 1, ""internal_node_id"": ""0.0-2.0-0.0-5.0"", ""time_elapsed"": 90386, ""imgName"": ""/static/images/modifae_new_linspace/intelligent/040946_0.3080808080808082.png"", ""questions"": ""[{\""prompt\"":\""<p>How <b>intelligent</b> does this person look to <b>most people</b>? Rate from 1-9</p>\"",\""labels\"":[\""1 <br/><b>Not intelligent at all</b>\"",\""2\"",\""3\"",\""4\"",\""5\"",\""6\"",\""7\"",\""8\"",\""9  <br/><b>Extremely intelligent</b>\""],\""required\"":true}]"", ""task_unique_trial"": 100, ""task_name"": ""intelligent-modifae-single"", ""trial_index"": 7, ""isRepeat"": 0}"
AOWY4TEB0UCMX:3P4RDNWND7DMPWF7EDANL56X4URJI1,8,1548286398723,"{""rt"": 2909, ""trial_type"": ""face-likert-amanda"", ""debug_mode"": ""live"", ""task_type"": ""face trials"", ""responses"": ""{\""Q0\"":6}"", ""task_payment"": 1, ""task_version"": 1, ""internal_node_id"": ""0.0-2.0-0.0-6.0"", ""time_elapsed"": 93296, ""imgName"": ""/static/images/modifae_new_linspace/intelligent/135421_0.045454545454545525.png"", ""questions"": ""[{\""prompt\"":\""<p>How <b>intelligent</b> does this person look to <b>most people</b>? Rate from 1-9</p>\"",\""labels\"":[\""1 <br/><b>Not intelligent at all</b>\"",\""2\"",\""3\"",\""4\"",\""5\"",\""6\"",\""7\"",\""8\"",\""9  <br/><b>Extremely intelligent</b>\""],\""required\"":true}]"", ""task_unique_trial"": 100, ""task_name"": ""intelligent-modifae-single"", ""trial_index"": 8, ""isRepeat"": 0}"
