debugN60KSR:debugZJQOCE,0,1542054284225,"{""trial_type"": ""comprehension"", ""time_elapsed"": 67835, ""internal_node_id"": ""0.0-0.0"", ""trial_index"": 0, ""parameter_name"": ""parameter value""}"
debugN60KSR:debugZJQOCE,1,1542054306306,"{""rt"": 22081, ""trial_type"": ""face-likert"", ""imgName"": ""EmptyFace.jpg"", ""isRepeat"": false, ""isRandom"": false, ""time_elapsed"": 89917, ""questions"": ""[{\""prompt\"":\""How willing or unwilling do you think this person is to take risks?\"",\""labels\"":[\""0 (Completely unwilling to take risks)\"",\""1\"",\""2\"",\""3\"",\""4\"",\""5\"",\""6\"",\""7\"",\""8\"",\""9\"",\""10 (Very willing to take risks)\""],\""required\"":true}]"", ""internal_node_id"": ""0.0-1.0"", ""trial_index"": 1, ""responses"": ""{\""Q0\"":5}""}"
debugN60KSR:debugZJQOCE,2,1542054308211,"{""rt"": 1902, ""trial_type"": ""face-likert"", ""imgName"": ""Google_1_Gertrude Bayne_11_oval.jpg"", ""isRepeat"": false, ""isRandom"": true, ""time_elapsed"": 91822, ""questions"": ""[{\""prompt\"":\""How willing or unwilling do you think this person is to take risks?\"",\""labels\"":[\""0 (Completely unwilling to take risks)\"",\""1\"",\""2\"",\""3\"",\""4\"",\""5\"",\""6\"",\""7\"",\""8\"",\""9\"",\""10 (Very willing to take risks)\""],\""required\"":true}]"", ""internal_node_id"": ""0.0-2.0"", ""trial_index"": 2, ""responses"": ""{\""Q0\"":5}""}"
debugN60KSR:debugZJQOCE,3,1542054309851,"{""rt"": 1637, ""trial_type"": ""face-likert"", ""imgName"": ""Google_1_Paul Reno_1_oval.jpg"", ""isRepeat"": false, ""isRandom"": true, ""time_elapsed"": 93462, ""questions"": ""[{\""prompt\"":\""How willing or unwilling do you think this person is to take risks?\"",\""labels\"":[\""0 (Completely unwilling to take risks)\"",\""1\"",\""2\"",\""3\"",\""4\"",\""5\"",\""6\"",\""7\"",\""8\"",\""9\"",\""10 (Very willing to take risks)\""],\""required\"":true}]"", ""internal_node_id"": ""0.0-3.0"", ""trial_index"": 3, ""responses"": ""{\""Q0\"":3}""}"
debugN60KSR:debugZJQOCE,4,1542054311563,"{""rt"": 1711, ""trial_type"": ""face-likert"", ""imgName"": ""Google_1_Sara Guajardo_1_oval.jpg"", ""isRepeat"": false, ""isRandom"": true, ""time_elapsed"": 95174, ""questions"": ""[{\""prompt\"":\""How willing or unwilling do you think this person is to take risks?\"",\""labels\"":[\""0 (Completely unwilling to take risks)\"",\""1\"",\""2\"",\""3\"",\""4\"",\""5\"",\""6\"",\""7\"",\""8\"",\""9\"",\""10 (Very willing to take risks)\""],\""required\"":true}]"", ""internal_node_id"": ""0.0-4.0"", ""trial_index"": 4, ""responses"": ""{\""Q0\"":5}""}"
debugN60KSR:debugZJQOCE,5,1542054314409,"{""rt"": 2842, ""trial_type"": ""face-likert"", ""imgName"": ""Google_1_Sara Guajardo_1_oval.jpg"", ""isRepeat"": false, ""isRandom"": false, ""time_elapsed"": 98020, ""questions"": ""[{\""prompt\"":\""How willing or unwilling do you think this person is to take risks?\"",\""labels\"":[\""0 (Completely unwilling to take risks)\"",\""1\"",\""2\"",\""3\"",\""4\"",\""5\"",\""6\"",\""7\"",\""8\"",\""9\"",\""10 (Very willing to take risks)\""],\""required\"":true}]"", ""internal_node_id"": ""0.0-5.0"", ""trial_index"": 5, ""responses"": ""{\""Q0\"":6}""}"
debugB0HTK4:debug2CLW0V,0,1542054756812,"{""rt"": 2639, ""trial_type"": ""face-likert-amanda"", ""imgName"": ""Google_1_Gertrude Bayne_11_oval.jpg"", ""responses"": ""{\""Q0\"":5}"", ""internal_node_id"": ""0.0-0.0-0.0-0.0"", ""time_elapsed"": 2652, ""questions"": ""[{\""prompt\"":\""<p>How willing or unwilling do you think this person is to take risks? Rate from 1-9</p>\"",\""labels\"":[\""1 <br/>(Completely unwilling to take risks)\"",\""2\"",\""3\"",\""4\"",\""5\"",\""6\"",\""7\"",\""8\"",\""9  <br/>(Very willing to take risks)\""],\""required\"":true}]"", ""trial_index"": 0}"
debugB0HTK4:debug2CLW0V,1,1542054759316,"{""rt"": 2502, ""trial_type"": ""face-likert-amanda"", ""imgName"": ""Google_1_Paul Reno_1_oval.jpg"", ""responses"": ""{\""Q0\"":3}"", ""internal_node_id"": ""0.0-0.0-0.0-1.0"", ""time_elapsed"": 5158, ""questions"": ""[{\""prompt\"":\""<p>How willing or unwilling do you think this person is to take risks? Rate from 1-9</p>\"",\""labels\"":[\""1 <br/>(Completely unwilling to take risks)\"",\""2\"",\""3\"",\""4\"",\""5\"",\""6\"",\""7\"",\""8\"",\""9  <br/>(Very willing to take risks)\""],\""required\"":true}]"", ""trial_index"": 1}"
debugB0HTK4:debug2CLW0V,2,1542054759820,"{""rt"": null, ""trial_type"": ""html-keyboard-response"", ""stimulus"": ""<p>Good job! Let us take a quick break!</p>"", ""internal_node_id"": ""0.0-0.0-1.0"", ""time_elapsed"": 5662, ""key_press"": null, ""trial_index"": 2}"
debugB0HTK4:debug2CLW0V,3,1542054762094,"{""rt"": 2273, ""trial_type"": ""face-likert-amanda"", ""imgName"": ""Google_1_Sara Guajardo_1_oval.jpg"", ""responses"": ""{\""Q0\"":4}"", ""internal_node_id"": ""0.0-1.0-0.0-0.0"", ""time_elapsed"": 7936, ""questions"": ""[{\""prompt\"":\""<p>How willing or unwilling do you think this person is to take risks? Rate from 1-9</p>\"",\""labels\"":[\""1 <br/>(Completely unwilling to take risks)\"",\""2\"",\""3\"",\""4\"",\""5\"",\""6\"",\""7\"",\""8\"",\""9  <br/>(Very willing to take risks)\""],\""required\"":true}]"", ""trial_index"": 3}"
debugB0HTK4:debug2CLW0V,4,1542054763096,"{""rt"": null, ""trial_type"": ""html-keyboard-response"", ""stimulus"": ""<p>Good job! Let us take a quick break!</p>"", ""internal_node_id"": ""0.0-1.0-1.0"", ""time_elapsed"": 8938, ""key_press"": null, ""trial_index"": 4}"
debugB0HTK4:debug2CLW0V,5,1542054763847,"{""rt"": null, ""trial_type"": ""html-keyboard-response"", ""stimulus"": ""<p>Good job! Let us take a quick break!</p>"", ""internal_node_id"": ""0.0-2.0-1.0"", ""time_elapsed"": 9689, ""key_press"": null, ""trial_index"": 5}"
debugB0HTK4:debug2CLW0V,6,1542054769750,"{""rt"": 5902, ""trial_type"": ""face-likert-amanda"", ""imgName"": ""Google_1_Paul Reno_1_oval.jpg"", ""responses"": ""{\""Q0\"":5}"", ""internal_node_id"": ""0.0-3.0-0.0"", ""time_elapsed"": 15592, ""questions"": ""[{\""prompt\"":\""<p>How willing or unwilling do you think this person is to take risks? Rate from 1-9</p>\"",\""labels\"":[\""1 <br/>(Completely unwilling to take risks)\"",\""2\"",\""3\"",\""4\"",\""5\"",\""6\"",\""7\"",\""8\"",\""9  <br/>(Very willing to take risks)\""],\""required\"":true}]"", ""trial_index"": 6}"
debugB0HTK4:debug2CLW0V,7,1542054771959,"{""rt"": 2208, ""trial_type"": ""face-likert-amanda"", ""imgName"": ""Google_1_Sara Guajardo_1_oval.jpg"", ""responses"": ""{\""Q0\"":6}"", ""internal_node_id"": ""0.0-3.0-1.0"", ""time_elapsed"": 17801, ""questions"": ""[{\""prompt\"":\""<p>How willing or unwilling do you think this person is to take risks? Rate from 1-9</p>\"",\""labels\"":[\""1 <br/>(Completely unwilling to take risks)\"",\""2\"",\""3\"",\""4\"",\""5\"",\""6\"",\""7\"",\""8\"",\""9  <br/>(Very willing to take risks)\""],\""required\"":true}]"", ""trial_index"": 7}"
debugB0HTK4:debug2CLW0V,8,1542054773933,"{""rt"": 1970, ""trial_type"": ""face-likert-amanda"", ""imgName"": ""Google_1_Gertrude Bayne_11_oval.jpg"", ""responses"": ""{\""Q0\"":2}"", ""internal_node_id"": ""0.0-3.0-2.0"", ""time_elapsed"": 19775, ""questions"": ""[{\""prompt\"":\""<p>How willing or unwilling do you think this person is to take risks? Rate from 1-9</p>\"",\""labels\"":[\""1 <br/>(Completely unwilling to take risks)\"",\""2\"",\""3\"",\""4\"",\""5\"",\""6\"",\""7\"",\""8\"",\""9  <br/>(Very willing to take risks)\""],\""required\"":true}]"", ""trial_index"": 8}"
debugB0HTK4:debug2CLW0V,9,1542054777344,"{""rt"": 3407, ""trial_type"": ""face-likert-amanda"", ""imgName"": ""Google_1_Gertrude Bayne_11_oval.jpg"", ""responses"": ""{\""Q0\"":4}"", ""internal_node_id"": ""0.0-4.0-0.0"", ""time_elapsed"": 23185, ""questions"": ""[{\""prompt\"":\""<p>How willing or unwilling do you think this person is to take risks? Rate from 1-9</p>\"",\""labels\"":[\""1 <br/>(Completely unwilling to take risks)\"",\""2\"",\""3\"",\""4\"",\""5\"",\""6\"",\""7\"",\""8\"",\""9  <br/>(Very willing to take risks)\""],\""required\"":true}]"", ""trial_index"": 9}"
A6XBXQC3G59N8:3LOZAJ85YFKJ9V6U6E4X3T5M978X2I,0,1542054931233,"{""rt"": 3236, ""trial_type"": ""face-likert-amanda"", ""imgName"": ""Google_1_Paul Reno_1_oval.jpg"", ""responses"": ""{\""Q0\"":4}"", ""internal_node_id"": ""0.0-0.0-0.0-0.0"", ""time_elapsed"": 3256, ""questions"": ""[{\""prompt\"":\""<p>How willing or unwilling do you think this person is to take risks? Rate from 1-9</p>\"",\""labels\"":[\""1 <br/>(Completely unwilling to take risks)\"",\""2\"",\""3\"",\""4\"",\""5\"",\""6\"",\""7\"",\""8\"",\""9  <br/>(Very willing to take risks)\""],\""required\"":true}]"", ""trial_index"": 0}"
A6XBXQC3G59N8:3LOZAJ85YFKJ9V6U6E4X3T5M978X2I,1,1542054932809,"{""rt"": 1574, ""trial_type"": ""face-likert-amanda"", ""imgName"": ""Google_1_Sara Guajardo_1_oval.jpg"", ""responses"": ""{\""Q0\"":5}"", ""internal_node_id"": ""0.0-0.0-0.0-1.0"", ""time_elapsed"": 4834, ""questions"": ""[{\""prompt\"":\""<p>How willing or unwilling do you think this person is to take risks? Rate from 1-9</p>\"",\""labels\"":[\""1 <br/>(Completely unwilling to take risks)\"",\""2\"",\""3\"",\""4\"",\""5\"",\""6\"",\""7\"",\""8\"",\""9  <br/>(Very willing to take risks)\""],\""required\"":true}]"", ""trial_index"": 1}"
A6XBXQC3G59N8:3LOZAJ85YFKJ9V6U6E4X3T5M978X2I,2,1542054933314,"{""rt"": null, ""trial_type"": ""html-keyboard-response"", ""stimulus"": ""<p>Good job! Let us take a quick break!</p>"", ""internal_node_id"": ""0.0-0.0-1.0"", ""time_elapsed"": 5339, ""key_press"": null, ""trial_index"": 2}"
A6XBXQC3G59N8:3LOZAJ85YFKJ9V6U6E4X3T5M978X2I,3,1542054935285,"{""rt"": 1968, ""trial_type"": ""face-likert-amanda"", ""imgName"": ""Google_1_Gertrude Bayne_11_oval.jpg"", ""responses"": ""{\""Q0\"":6}"", ""internal_node_id"": ""0.0-1.0-0.0-0.0"", ""time_elapsed"": 7309, ""questions"": ""[{\""prompt\"":\""<p>How willing or unwilling do you think this person is to take risks? Rate from 1-9</p>\"",\""labels\"":[\""1 <br/>(Completely unwilling to take risks)\"",\""2\"",\""3\"",\""4\"",\""5\"",\""6\"",\""7\"",\""8\"",\""9  <br/>(Very willing to take risks)\""],\""required\"":true}]"", ""trial_index"": 3}"
A6XBXQC3G59N8:3LOZAJ85YFKJ9V6U6E4X3T5M978X2I,4,1542054935537,"{""rt"": null, ""trial_type"": ""html-keyboard-response"", ""stimulus"": ""<p>Good job! Let us take a quick break!</p>"", ""internal_node_id"": ""0.0-1.0-1.0"", ""time_elapsed"": 7562, ""key_press"": null, ""trial_index"": 4}"
A6XBXQC3G59N8:3LOZAJ85YFKJ9V6U6E4X3T5M978X2I,5,1542054936039,"{""rt"": null, ""trial_type"": ""html-keyboard-response"", ""stimulus"": ""<p>Good job! Let us take a quick break!</p>"", ""internal_node_id"": ""0.0-2.0-1.0"", ""time_elapsed"": 8064, ""key_press"": null, ""trial_index"": 5}"
A6XBXQC3G59N8:3LOZAJ85YFKJ9V6U6E4X3T5M978X2I,6,1542054937734,"{""rt"": 1693, ""trial_type"": ""face-likert-amanda"", ""imgName"": ""Google_1_Paul Reno_1_oval.jpg"", ""responses"": ""{\""Q0\"":3}"", ""internal_node_id"": ""0.0-3.0-0.0"", ""time_elapsed"": 9759, ""questions"": ""[{\""prompt\"":\""<p>How willing or unwilling do you think this person is to take risks? Rate from 1-9</p>\"",\""labels\"":[\""1 <br/>(Completely unwilling to take risks)\"",\""2\"",\""3\"",\""4\"",\""5\"",\""6\"",\""7\"",\""8\"",\""9  <br/>(Very willing to take risks)\""],\""required\"":true}]"", ""trial_index"": 6}"
A6XBXQC3G59N8:3LOZAJ85YFKJ9V6U6E4X3T5M978X2I,7,1542054940517,"{""rt"": 2781, ""trial_type"": ""face-likert-amanda"", ""imgName"": ""Google_1_Sara Guajardo_1_oval.jpg"", ""responses"": ""{\""Q0\"":3}"", ""internal_node_id"": ""0.0-3.0-1.0"", ""time_elapsed"": 12542, ""questions"": ""[{\""prompt\"":\""<p>How willing or unwilling do you think this person is to take risks? Rate from 1-9</p>\"",\""labels\"":[\""1 <br/>(Completely unwilling to take risks)\"",\""2\"",\""3\"",\""4\"",\""5\"",\""6\"",\""7\"",\""8\"",\""9  <br/>(Very willing to take risks)\""],\""required\"":true}]"", ""trial_index"": 7}"
A6XBXQC3G59N8:3LOZAJ85YFKJ9V6U6E4X3T5M978X2I,8,1542054942089,"{""rt"": 1569, ""trial_type"": ""face-likert-amanda"", ""imgName"": ""Google_1_Gertrude Bayne_11_oval.jpg"", ""responses"": ""{\""Q0\"":4}"", ""internal_node_id"": ""0.0-3.0-2.0"", ""time_elapsed"": 14114, ""questions"": ""[{\""prompt\"":\""<p>How willing or unwilling do you think this person is to take risks? Rate from 1-9</p>\"",\""labels\"":[\""1 <br/>(Completely unwilling to take risks)\"",\""2\"",\""3\"",\""4\"",\""5\"",\""6\"",\""7\"",\""8\"",\""9  <br/>(Very willing to take risks)\""],\""required\"":true}]"", ""trial_index"": 8}"
A6XBXQC3G59N8:3LOZAJ85YFKJ9V6U6E4X3T5M978X2I,9,1542054943785,"{""rt"": 1693, ""trial_type"": ""face-likert-amanda"", ""imgName"": ""Google_1_Paul Reno_1_oval.jpg"", ""responses"": ""{\""Q0\"":5}"", ""internal_node_id"": ""0.0-4.0-0.0"", ""time_elapsed"": 15810, ""questions"": ""[{\""prompt\"":\""<p>How willing or unwilling do you think this person is to take risks? Rate from 1-9</p>\"",\""labels\"":[\""1 <br/>(Completely unwilling to take risks)\"",\""2\"",\""3\"",\""4\"",\""5\"",\""6\"",\""7\"",\""8\"",\""9  <br/>(Very willing to take risks)\""],\""required\"":true}]"", ""trial_index"": 9}"
debug6D3TOO:debugM7GY94,0,1542156862034,"{""rt"": 5401, ""trial_type"": ""instructions"", ""view_history"": ""[{\""page_index\"":0,\""viewing_time\"":3525},{\""page_index\"":1,\""viewing_time\"":611},{\""page_index\"":2,\""viewing_time\"":1265}]"", ""internal_node_id"": ""0.0-0.0"", ""time_elapsed"": 5407, ""trial_index"": 0}"
debug6D3TOO:debugM7GY94,1,1542156870678,"{""rt"": 8637, ""trial_type"": ""survey-multi-choice"", ""responses"": ""{\""Q0\"":\""26-35\"",\""Q1\"":\""Male\"",\""Q2\"":\""Caucasian\"",\""Q3\"":\""4\"",\""Q4\"":\""No school completed\""}"", ""time_elapsed"": 14053, ""sanity_check_1_continue"": true, ""random_num"": 4, ""questions"": ""[{\""prompt\"":\""What is your age?\"",\""options\"":[\""Under 18\"",\""18-25\"",\""26-35\"",\""36-45\"",\""Over 46\""],\""required\"":true},{\""prompt\"":\""What is your gender?\"",\""options\"":[\""Male\"",\""Female\"",\""Non-binary\""],\""required\"":true},{\""prompt\"":\""What is your ethnicity?\"",\""options\"":[\""Caucasian\"",\""Hispanic or Latino\"",\""African\"",\""Asian\"",\""Native American\"",\""Other\""],\""required\"":true},{\""prompt\"":\""Choose the choice that match the number here: 4\"",\""options\"":[\""1\"",\""2\"",\""3\"",\""4\""],\""required\"":true},{\""prompt\"":\""What is the highest level of education you have achieved?\"",\""options\"":[\""No school completed\"",\""Some high school or nursery school\"",\""College or bachelor degree\"",\""Master degree\"",\""Doctorate degree or professional degree\""],\""required\"":true}]"", ""internal_node_id"": ""0.0-1.0-0.0"", ""trial_index"": 1}"
debug6D3TOO:debugM7GY94,2,1542156874067,"{""rt"": 3386, ""trial_type"": ""survey-text-req"", ""responses"": ""{\""Q0\"":\""ca\"",\""Q1\"":\""ss\""}"", ""internal_node_id"": ""0.0-2.0"", ""time_elapsed"": 17442, ""trial_index"": 2}"
debug6D3TOO:debugM7GY94,3,1542156880933,"{""rt"": 6865, ""trial_type"": ""survey-text-req"", ""responses"": ""{\""Q0\"":\""How willing or unwilling do you think this person is to take risks?\""}"", ""internal_node_id"": ""0.0-3.0-0.0"", ""comprehension_check_continue"": true, ""time_elapsed"": 24308, ""trial_index"": 3}"
debug6D3TOO:debugM7GY94,4,1542156883253,"{""rt"": 2319, ""trial_type"": ""face-likert-amanda"", ""imgName"": ""/static/images/faces/empty-image-1.jpg"", ""responses"": ""{\""Q0\"":4}"", ""internal_node_id"": ""0.0-4.0"", ""isFixed"": false, ""time_elapsed"": 26628, ""questions"": ""[{\""prompt\"":\""<p>How willing or unwilling do you think this person is to take risks? Rate from 1-9</p>\"",\""labels\"":[\""1 <br/>(Completely unwilling to take risks)\"",\""2\"",\""3\"",\""4\"",\""5\"",\""6\"",\""7\"",\""8\"",\""9  <br/>(Very willing to take risks)\""],\""required\"":true}]"", ""trial_index"": 4}"
debug6D3TOO:debugM7GY94,5,1542156886763,"{""rt"": 3509, ""trial_type"": ""instructions"", ""view_history"": ""[{\""page_index\"":0,\""viewing_time\"":3508}]"", ""internal_node_id"": ""0.0-5.0"", ""time_elapsed"": 30138, ""trial_index"": 5}"
debug6D3TOO:debugM7GY94,6,1542156888585,"{""rt"": 1821, ""trial_type"": ""face-likert-amanda"", ""imgName"": ""/static/images/2kfaces/Google_1_Paul Reno_1_oval.jpg"", ""responses"": ""{\""Q0\"":6}"", ""internal_node_id"": ""0.0-6.0-0.0-0.0"", ""isFixed"": false, ""time_elapsed"": 31960, ""questions"": ""[{\""prompt\"":\""<p>How willing or unwilling do you think this person is to take risks? Rate from 1-9</p>\"",\""labels\"":[\""1 <br/>(Completely unwilling to take risks)\"",\""2\"",\""3\"",\""4\"",\""5\"",\""6\"",\""7\"",\""8\"",\""9  <br/>(Very willing to take risks)\""],\""required\"":true}]"", ""trial_index"": 6}"
debug6D3TOO:debugM7GY94,7,1542156890838,"{""rt"": 2250, ""trial_type"": ""face-likert-amanda"", ""imgName"": ""/static/images/2kfaces/Google_1_Sara Guajardo_1_oval.jpg"", ""responses"": ""{\""Q0\"":4}"", ""internal_node_id"": ""0.0-6.0-0.0-1.0"", ""isFixed"": false, ""time_elapsed"": 34213, ""questions"": ""[{\""prompt\"":\""<p>How willing or unwilling do you think this person is to take risks? Rate from 1-9</p>\"",\""labels\"":[\""1 <br/>(Completely unwilling to take risks)\"",\""2\"",\""3\"",\""4\"",\""5\"",\""6\"",\""7\"",\""8\"",\""9  <br/>(Very willing to take risks)\""],\""required\"":true}]"", ""trial_index"": 7}"
debug6D3TOO:debugM7GY94,8,1542156892296,"{""rt"": 1457, ""trial_type"": ""face-likert-amanda"", ""imgName"": ""/static/images/2kfaces/Google_1_Gertrude Bayne_11_oval.jpg"", ""responses"": ""{\""Q0\"":5}"", ""internal_node_id"": ""0.0-6.0-0.0-2.0"", ""isFixed"": false, ""time_elapsed"": 35671, ""questions"": ""[{\""prompt\"":\""<p>How willing or unwilling do you think this person is to take risks? Rate from 1-9</p>\"",\""labels\"":[\""1 <br/>(Completely unwilling to take risks)\"",\""2\"",\""3\"",\""4\"",\""5\"",\""6\"",\""7\"",\""8\"",\""9  <br/>(Very willing to take risks)\""],\""required\"":true}]"", ""trial_index"": 8}"
debug6D3TOO:debugM7GY94,9,1542156894122,"{""rt"": 1826, ""trial_type"": ""face-likert-amanda"", ""imgName"": ""/static/images/2kfaces/Google_1_Sherry Mcmichael_11_oval.jpg"", ""responses"": ""{\""Q0\"":2}"", ""internal_node_id"": ""0.0-6.0-0.0-3.0"", ""isFixed"": false, ""time_elapsed"": 37497, ""questions"": ""[{\""prompt\"":\""<p>How willing or unwilling do you think this person is to take risks? Rate from 1-9</p>\"",\""labels\"":[\""1 <br/>(Completely unwilling to take risks)\"",\""2\"",\""3\"",\""4\"",\""5\"",\""6\"",\""7\"",\""8\"",\""9  <br/>(Very willing to take risks)\""],\""required\"":true}]"", ""trial_index"": 9}"
debug6D3TOO:debugM7GY94,10,1542156895684,"{""rt"": 1561, ""trial_type"": ""face-likert-amanda"", ""imgName"": ""/static/images/2kfaces/Google_1_Norman Westfall_5_oval.jpg"", ""responses"": ""{\""Q0\"":4}"", ""internal_node_id"": ""0.0-6.0-0.0-4.0"", ""isFixed"": false, ""time_elapsed"": 39059, ""questions"": ""[{\""prompt\"":\""<p>How willing or unwilling do you think this person is to take risks? Rate from 1-9</p>\"",\""labels\"":[\""1 <br/>(Completely unwilling to take risks)\"",\""2\"",\""3\"",\""4\"",\""5\"",\""6\"",\""7\"",\""8\"",\""9  <br/>(Very willing to take risks)\""],\""required\"":true}]"", ""trial_index"": 10}"
debug6D3TOO:debugM7GY94,11,1542156897848,"{""rt"": 2163, ""trial_type"": ""face-likert-amanda"", ""imgName"": ""/static/images/2kfaces/Google_1_Samuel Goff_1_oval.jpg"", ""responses"": ""{\""Q0\"":4}"", ""internal_node_id"": ""0.0-6.0-0.0-5.0"", ""isFixed"": false, ""time_elapsed"": 41223, ""questions"": ""[{\""prompt\"":\""<p>How willing or unwilling do you think this person is to take risks? Rate from 1-9</p>\"",\""labels\"":[\""1 <br/>(Completely unwilling to take risks)\"",\""2\"",\""3\"",\""4\"",\""5\"",\""6\"",\""7\"",\""8\"",\""9  <br/>(Very willing to take risks)\""],\""required\"":true}]"", ""trial_index"": 11}"
debug6D3TOO:debugM7GY94,12,1542156899460,"{""rt"": 1610, ""trial_type"": ""face-likert-amanda"", ""imgName"": ""/static/images/2kfaces/Google_1_Andrew Diggs_9_oval.jpg"", ""responses"": ""{\""Q0\"":4}"", ""internal_node_id"": ""0.0-6.0-0.0-6.0"", ""isFixed"": false, ""time_elapsed"": 42835, ""questions"": ""[{\""prompt\"":\""<p>How willing or unwilling do you think this person is to take risks? Rate from 1-9</p>\"",\""labels\"":[\""1 <br/>(Completely unwilling to take risks)\"",\""2\"",\""3\"",\""4\"",\""5\"",\""6\"",\""7\"",\""8\"",\""9  <br/>(Very willing to take risks)\""],\""required\"":true}]"", ""trial_index"": 12}"
debug6D3TOO:debugM7GY94,13,1542156902074,"{""rt"": 2613, ""trial_type"": ""face-likert-amanda"", ""imgName"": ""/static/images/2kfaces/Google_1_Erika Fletcher_1_oval.jpg"", ""responses"": ""{\""Q0\"":5}"", ""internal_node_id"": ""0.0-6.0-0.0-7.0"", ""isFixed"": false, ""time_elapsed"": 45449, ""questions"": ""[{\""prompt\"":\""<p>How willing or unwilling do you think this person is to take risks? Rate from 1-9</p>\"",\""labels\"":[\""1 <br/>(Completely unwilling to take risks)\"",\""2\"",\""3\"",\""4\"",\""5\"",\""6\"",\""7\"",\""8\"",\""9  <br/>(Very willing to take risks)\""],\""required\"":true}]"", ""trial_index"": 13}"
debug6D3TOO:debugM7GY94,14,1542156903884,"{""rt"": 1808, ""trial_type"": ""face-likert-amanda"", ""imgName"": ""/static/images/2kfaces/Google_1_Shelley Lund_5_oval.jpg"", ""responses"": ""{\""Q0\"":6}"", ""internal_node_id"": ""0.0-6.0-0.0-8.0"", ""isFixed"": false, ""time_elapsed"": 47259, ""questions"": ""[{\""prompt\"":\""<p>How willing or unwilling do you think this person is to take risks? Rate from 1-9</p>\"",\""labels\"":[\""1 <br/>(Completely unwilling to take risks)\"",\""2\"",\""3\"",\""4\"",\""5\"",\""6\"",\""7\"",\""8\"",\""9  <br/>(Very willing to take risks)\""],\""required\"":true}]"", ""trial_index"": 14}"
debug6D3TOO:debugM7GY94,15,1542156906168,"{""rt"": 2282, ""trial_type"": ""face-likert-amanda"", ""imgName"": ""/static/images/2kfaces/Google_1_Matthew Vanbuskirk_1_oval.jpg"", ""responses"": ""{\""Q0\"":3}"", ""internal_node_id"": ""0.0-6.0-0.0-9.0"", ""isFixed"": false, ""time_elapsed"": 49543, ""questions"": ""[{\""prompt\"":\""<p>How willing or unwilling do you think this person is to take risks? Rate from 1-9</p>\"",\""labels\"":[\""1 <br/>(Completely unwilling to take risks)\"",\""2\"",\""3\"",\""4\"",\""5\"",\""6\"",\""7\"",\""8\"",\""9  <br/>(Very willing to take risks)\""],\""required\"":true}]"", ""trial_index"": 15}"
debug6D3TOO:debugM7GY94,16,1542156907644,"{""rt"": 1476, ""trial_type"": ""face-likert-amanda"", ""imgName"": ""/static/images/2kfaces/Google_1_Cindy Morehead_5_oval.jpg"", ""responses"": ""{\""Q0\"":4}"", ""internal_node_id"": ""0.0-6.0-0.0-10.0"", ""isFixed"": false, ""time_elapsed"": 51019, ""questions"": ""[{\""prompt\"":\""<p>How willing or unwilling do you think this person is to take risks? Rate from 1-9</p>\"",\""labels\"":[\""1 <br/>(Completely unwilling to take risks)\"",\""2\"",\""3\"",\""4\"",\""5\"",\""6\"",\""7\"",\""8\"",\""9  <br/>(Very willing to take risks)\""],\""required\"":true}]"", ""trial_index"": 16}"
debug6D3TOO:debugM7GY94,17,1542156909038,"{""rt"": 1393, ""trial_type"": ""face-likert-amanda"", ""imgName"": ""/static/images/2kfaces/Google_1_Ronald Driver_19_oval.jpg"", ""responses"": ""{\""Q0\"":4}"", ""internal_node_id"": ""0.0-6.0-0.0-11.0"", ""isFixed"": false, ""time_elapsed"": 52413, ""questions"": ""[{\""prompt\"":\""<p>How willing or unwilling do you think this person is to take risks? Rate from 1-9</p>\"",\""labels\"":[\""1 <br/>(Completely unwilling to take risks)\"",\""2\"",\""3\"",\""4\"",\""5\"",\""6\"",\""7\"",\""8\"",\""9  <br/>(Very willing to take risks)\""],\""required\"":true}]"", ""trial_index"": 17}"
debug6D3TOO:debugM7GY94,18,1542156910603,"{""rt"": 1564, ""trial_type"": ""face-likert-amanda"", ""imgName"": ""/static/images/2kfaces/Google_1_Gloria Canada_13_oval.jpg"", ""responses"": ""{\""Q0\"":4}"", ""internal_node_id"": ""0.0-6.0-0.0-12.0"", ""isFixed"": false, ""time_elapsed"": 53978, ""questions"": ""[{\""prompt\"":\""<p>How willing or unwilling do you think this person is to take risks? Rate from 1-9</p>\"",\""labels\"":[\""1 <br/>(Completely unwilling to take risks)\"",\""2\"",\""3\"",\""4\"",\""5\"",\""6\"",\""7\"",\""8\"",\""9  <br/>(Very willing to take risks)\""],\""required\"":true}]"", ""trial_index"": 18}"
debug6D3TOO:debugM7GY94,19,1542156912264,"{""rt"": 1659, ""trial_type"": ""face-likert-amanda"", ""imgName"": ""/static/images/2kfaces/Google_1_Alma Poor_7_oval.jpg"", ""responses"": ""{\""Q0\"":2}"", ""internal_node_id"": ""0.0-6.0-0.0-13.0"", ""isFixed"": false, ""time_elapsed"": 55639, ""questions"": ""[{\""prompt\"":\""<p>How willing or unwilling do you think this person is to take risks? Rate from 1-9</p>\"",\""labels\"":[\""1 <br/>(Completely unwilling to take risks)\"",\""2\"",\""3\"",\""4\"",\""5\"",\""6\"",\""7\"",\""8\"",\""9  <br/>(Very willing to take risks)\""],\""required\"":true}]"", ""trial_index"": 19}"
debug6D3TOO:debugM7GY94,20,1542156913688,"{""rt"": 1422, ""trial_type"": ""face-likert-amanda"", ""imgName"": ""/static/images/2kfaces/Google_1_Cheryl Griffin_15_oval.jpg"", ""responses"": ""{\""Q0\"":4}"", ""internal_node_id"": ""0.0-6.0-0.0-14.0"", ""isFixed"": false, ""time_elapsed"": 57063, ""questions"": ""[{\""prompt\"":\""<p>How willing or unwilling do you think this person is to take risks? Rate from 1-9</p>\"",\""labels\"":[\""1 <br/>(Completely unwilling to take risks)\"",\""2\"",\""3\"",\""4\"",\""5\"",\""6\"",\""7\"",\""8\"",\""9  <br/>(Very willing to take risks)\""],\""required\"":true}]"", ""trial_index"": 20}"
debug6D3TOO:debugM7GY94,21,1542156915322,"{""rt"": 1632, ""trial_type"": ""face-likert-amanda"", ""imgName"": ""/static/images/2kfaces/Google_1_Kathleen Sartain_1_oval.jpg"", ""responses"": ""{\""Q0\"":4}"", ""internal_node_id"": ""0.0-6.0-0.0-15.0"", ""isFixed"": false, ""time_elapsed"": 58696, ""questions"": ""[{\""prompt\"":\""<p>How willing or unwilling do you think this person is to take risks? Rate from 1-9</p>\"",\""labels\"":[\""1 <br/>(Completely unwilling to take risks)\"",\""2\"",\""3\"",\""4\"",\""5\"",\""6\"",\""7\"",\""8\"",\""9  <br/>(Very willing to take risks)\""],\""required\"":true}]"", ""trial_index"": 21}"
debug6D3TOO:debugM7GY94,22,1542156917552,"{""rt"": 2228, ""trial_type"": ""face-likert-amanda"", ""imgName"": ""/static/images/2kfaces/Google_1_Carole Bentley_7_oval.jpg"", ""responses"": ""{\""Q0\"":6}"", ""internal_node_id"": ""0.0-6.0-0.0-16.0"", ""isFixed"": false, ""time_elapsed"": 60927, ""questions"": ""[{\""prompt\"":\""<p>How willing or unwilling do you think this person is to take risks? Rate from 1-9</p>\"",\""labels\"":[\""1 <br/>(Completely unwilling to take risks)\"",\""2\"",\""3\"",\""4\"",\""5\"",\""6\"",\""7\"",\""8\"",\""9  <br/>(Very willing to take risks)\""],\""required\"":true}]"", ""trial_index"": 22}"
debug6D3TOO:debugM7GY94,23,1542156920717,"{""rt"": 3164, ""trial_type"": ""face-likert-amanda"", ""imgName"": ""/static/images/2kfaces/Bryan_Shanklin_9_oval.jpg"", ""responses"": ""{\""Q0\"":5}"", ""internal_node_id"": ""0.0-6.0-0.0-17.0"", ""isFixed"": false, ""time_elapsed"": 64092, ""questions"": ""[{\""prompt\"":\""<p>How willing or unwilling do you think this person is to take risks? Rate from 1-9</p>\"",\""labels\"":[\""1 <br/>(Completely unwilling to take risks)\"",\""2\"",\""3\"",\""4\"",\""5\"",\""6\"",\""7\"",\""8\"",\""9  <br/>(Very willing to take risks)\""],\""required\"":true}]"", ""trial_index"": 23}"
debug6D3TOO:debugM7GY94,24,1542156923304,"{""rt"": 2585, ""trial_type"": ""face-likert-amanda"", ""imgName"": ""/static/images/2kfaces/Google_1_Steve Stamm_1_oval.jpg"", ""responses"": ""{\""Q0\"":2}"", ""internal_node_id"": ""0.0-6.0-0.0-18.0"", ""isFixed"": false, ""time_elapsed"": 66679, ""questions"": ""[{\""prompt\"":\""<p>How willing or unwilling do you think this person is to take risks? Rate from 1-9</p>\"",\""labels\"":[\""1 <br/>(Completely unwilling to take risks)\"",\""2\"",\""3\"",\""4\"",\""5\"",\""6\"",\""7\"",\""8\"",\""9  <br/>(Very willing to take risks)\""],\""required\"":true}]"", ""trial_index"": 24}"
debug6D3TOO:debugM7GY94,25,1542156925170,"{""rt"": 1865, ""trial_type"": ""face-likert-amanda"", ""imgName"": ""/static/images/2kfaces/Google_1_Claudia Rohrer_13_oval.jpg"", ""responses"": ""{\""Q0\"":4}"", ""internal_node_id"": ""0.0-6.0-0.0-19.0"", ""isFixed"": false, ""time_elapsed"": 68545, ""questions"": ""[{\""prompt\"":\""<p>How willing or unwilling do you think this person is to take risks? Rate from 1-9</p>\"",\""labels\"":[\""1 <br/>(Completely unwilling to take risks)\"",\""2\"",\""3\"",\""4\"",\""5\"",\""6\"",\""7\"",\""8\"",\""9  <br/>(Very willing to take risks)\""],\""required\"":true}]"", ""trial_index"": 25}"
debug6D3TOO:debugM7GY94,26,1542156926173,"{""rt"": null, ""trial_type"": ""html-keyboard-response"", ""stimulus"": ""<p>Good job! Let us take a quick break!</p>"", ""internal_node_id"": ""0.0-6.0-1.0"", ""time_elapsed"": 69548, ""key_press"": null, ""trial_index"": 26}"
debugSSV496:debugOLZOA5,0,1542157570190,"{""rt"": 44579, ""trial_type"": ""instructions"", ""view_history"": ""[{\""page_index\"":0,\""viewing_time\"":15174},{\""page_index\"":1,\""viewing_time\"":14294},{\""page_index\"":2,\""viewing_time\"":15111}]"", ""internal_node_id"": ""0.0-0.0"", ""time_elapsed"": 44584, ""trial_index"": 0}"
debugSSV496:debugOLZOA5,1,1542157600635,"{""rt"": 30436, ""trial_type"": ""survey-multi-choice"", ""responses"": ""{\""Q0\"":\""Over 46\"",\""Q1\"":\""Male\"",\""Q2\"":\""Hispanic or Latino\"",\""Q3\"":\""3\"",\""Q4\"":\""Some high school or nursery school\""}"", ""time_elapsed"": 75030, ""sanity_check_1_continue"": true, ""random_num"": 3, ""questions"": ""[{\""prompt\"":\""What is your age?\"",\""options\"":[\""Under 18\"",\""18-25\"",\""26-35\"",\""36-45\"",\""Over 46\""],\""required\"":true},{\""prompt\"":\""What is your gender?\"",\""options\"":[\""Male\"",\""Female\"",\""Non-binary\""],\""required\"":true},{\""prompt\"":\""What is your ethnicity?\"",\""options\"":[\""Caucasian\"",\""Hispanic or Latino\"",\""African\"",\""Asian\"",\""Native American\"",\""Other\""],\""required\"":true},{\""prompt\"":\""Choose the choice that match the number here: 3\"",\""options\"":[\""1\"",\""2\"",\""3\"",\""4\""],\""required\"":true},{\""prompt\"":\""What is the highest level of education you have achieved?\"",\""options\"":[\""No school completed\"",\""Some high school or nursery school\"",\""College or bachelor degree\"",\""Master degree\"",\""Doctorate degree or professional degree\""],\""required\"":true}]"", ""internal_node_id"": ""0.0-1.0-0.0"", ""trial_index"": 1}"
debugSSV496:debugOLZOA5,2,1542157621605,"{""rt"": 20968, ""trial_type"": ""survey-text-req"", ""responses"": ""{\""Q0\"":\""ca\"",\""Q1\"":\""sa\""}"", ""internal_node_id"": ""0.0-2.0"", ""time_elapsed"": 96000, ""trial_index"": 2}"
debugSSV496:debugOLZOA5,3,1542157659310,"{""rt"": 32994, ""trial_type"": ""survey-text-req"", ""responses"": ""{\""Q0\"":\""t\""}"", ""internal_node_id"": ""0.0-3.0-0.0"", ""comprehension_check_continue"": false, ""time_elapsed"": 128997, ""trial_index"": 3}"
debugSSV496:debugOLZOA5,4,1542157677174,"{""rt"": 17863, ""trial_type"": ""survey-text-req"", ""responses"": ""{\""Q0\"":\""How willing or unwilling do you think this person is to take risks?\""}"", ""internal_node_id"": ""0.0-3.1-0.1"", ""comprehension_check_continue"": true, ""time_elapsed"": 151569, ""trial_index"": 4}"
debugSSV496:debugOLZOA5,5,1542157697411,"{""rt"": 20237, ""trial_type"": ""face-likert-amanda"", ""imgName"": ""/static/images/faces/empty-image-1.jpg"", ""responses"": ""{\""Q0\"":4}"", ""internal_node_id"": ""0.0-4.0"", ""isFixed"": false, ""time_elapsed"": 171806, ""questions"": ""[{\""prompt\"":\""<p>How willing or unwilling do you think this person is to take risks? Rate from 1-9</p>\"",\""labels\"":[\""1 <br/>(Completely unwilling to take risks)\"",\""2\"",\""3\"",\""4\"",\""5\"",\""6\"",\""7\"",\""8\"",\""9  <br/>(Very willing to take risks)\""],\""required\"":true}]"", ""trial_index"": 5}"
debugSSV496:debugOLZOA5,6,1542157702100,"{""rt"": 4688, ""trial_type"": ""instructions"", ""view_history"": ""[{\""page_index\"":0,\""viewing_time\"":4686}]"", ""internal_node_id"": ""0.0-5.0"", ""time_elapsed"": 176495, ""trial_index"": 6}"
debugSSV496:debugOLZOA5,7,1542157709453,"{""rt"": 7353, ""trial_type"": ""face-likert-amanda"", ""imgName"": ""/static/images/2kfaces/Google_1_Paul Reno_1_oval.jpg"", ""responses"": ""{\""Q0\"":5}"", ""internal_node_id"": ""0.0-6.0-0.0-0.0"", ""isFixed"": false, ""time_elapsed"": 183848, ""questions"": ""[{\""prompt\"":\""<p>How willing or unwilling do you think this person is to take risks? Rate from 1-9</p>\"",\""labels\"":[\""1 <br/>(Completely unwilling to take risks)\"",\""2\"",\""3\"",\""4\"",\""5\"",\""6\"",\""7\"",\""8\"",\""9  <br/>(Very willing to take risks)\""],\""required\"":true}]"", ""trial_index"": 7}"
debugSSV496:debugOLZOA5,8,1542157714345,"{""rt"": 4891, ""trial_type"": ""face-likert-amanda"", ""imgName"": ""/static/images/2kfaces/Google_1_Sara Guajardo_1_oval.jpg"", ""responses"": ""{\""Q0\"":3}"", ""internal_node_id"": ""0.0-6.0-0.0-1.0"", ""isFixed"": false, ""time_elapsed"": 188740, ""questions"": ""[{\""prompt\"":\""<p>How willing or unwilling do you think this person is to take risks? Rate from 1-9</p>\"",\""labels\"":[\""1 <br/>(Completely unwilling to take risks)\"",\""2\"",\""3\"",\""4\"",\""5\"",\""6\"",\""7\"",\""8\"",\""9  <br/>(Very willing to take risks)\""],\""required\"":true}]"", ""trial_index"": 8}"
debugSSV496:debugOLZOA5,9,1542157721215,"{""rt"": 6868, ""trial_type"": ""face-likert-amanda"", ""imgName"": ""/static/images/2kfaces/Google_1_Gertrude Bayne_11_oval.jpg"", ""responses"": ""{\""Q0\"":2}"", ""internal_node_id"": ""0.0-6.0-0.0-2.0"", ""isFixed"": false, ""time_elapsed"": 195610, ""questions"": ""[{\""prompt\"":\""<p>How willing or unwilling do you think this person is to take risks? Rate from 1-9</p>\"",\""labels\"":[\""1 <br/>(Completely unwilling to take risks)\"",\""2\"",\""3\"",\""4\"",\""5\"",\""6\"",\""7\"",\""8\"",\""9  <br/>(Very willing to take risks)\""],\""required\"":true}]"", ""trial_index"": 9}"
debugSSV496:debugOLZOA5,10,1542157725938,"{""rt"": 4722, ""trial_type"": ""face-likert-amanda"", ""imgName"": ""/static/images/2kfaces/Google_1_Sherry Mcmichael_11_oval.jpg"", ""responses"": ""{\""Q0\"":3}"", ""internal_node_id"": ""0.0-6.0-0.0-3.0"", ""isFixed"": false, ""time_elapsed"": 200333, ""questions"": ""[{\""prompt\"":\""<p>How willing or unwilling do you think this person is to take risks? Rate from 1-9</p>\"",\""labels\"":[\""1 <br/>(Completely unwilling to take risks)\"",\""2\"",\""3\"",\""4\"",\""5\"",\""6\"",\""7\"",\""8\"",\""9  <br/>(Very willing to take risks)\""],\""required\"":true}]"", ""trial_index"": 10}"
debugSSV496:debugOLZOA5,11,1542157730222,"{""rt"": 4282, ""trial_type"": ""face-likert-amanda"", ""imgName"": ""/static/images/2kfaces/Google_1_Norman Westfall_5_oval.jpg"", ""responses"": ""{\""Q0\"":5}"", ""internal_node_id"": ""0.0-6.0-0.0-4.0"", ""isFixed"": false, ""time_elapsed"": 204617, ""questions"": ""[{\""prompt\"":\""<p>How willing or unwilling do you think this person is to take risks? Rate from 1-9</p>\"",\""labels\"":[\""1 <br/>(Completely unwilling to take risks)\"",\""2\"",\""3\"",\""4\"",\""5\"",\""6\"",\""7\"",\""8\"",\""9  <br/>(Very willing to take risks)\""],\""required\"":true}]"", ""trial_index"": 11}"
debugSSV496:debugOLZOA5,12,1542157730975,"{""rt"": null, ""trial_type"": ""html-keyboard-response"", ""stimulus"": ""<p>Good job! Let us take a quick break!</p>"", ""internal_node_id"": ""0.0-6.0-1.0"", ""time_elapsed"": 205370, ""key_press"": null, ""trial_index"": 12}"
debugSY7YBH:debug9XTTTL,0,1542168757927,"{""rt"": 6806, ""trial_type"": ""face-likert-amanda"", ""imgName"": ""/static/images/faces/empty-image-1.jpg"", ""responses"": ""{\""Q0\"":4}"", ""internal_node_id"": ""0.0-0.0"", ""isFixed"": false, ""time_elapsed"": 6816, ""questions"": ""[{\""prompt\"":\""<p>How willing or unwilling do you think this person is to take risks? Rate from 1-9</p>\"",\""labels\"":[\""1 <br/>(Completely unwilling to take risks)\"",\""2\"",\""3\"",\""4\"",\""5\"",\""6\"",\""7\"",\""8\"",\""9  <br/>(Very willing to take risks)\""],\""required\"":true}]"", ""trial_index"": 0}"
debugSY7YBH:debug9XTTTL,1,1542168759408,"{""rt"": 1480, ""trial_type"": ""instructions"", ""view_history"": ""[{\""page_index\"":0,\""viewing_time\"":1480}]"", ""internal_node_id"": ""0.0-1.0"", ""time_elapsed"": 8297, ""trial_index"": 1}"
debugSY7YBH:debug9XTTTL,2,1542168762391,"{""rt"": 2982, ""trial_type"": ""face-likert-amanda"", ""imgName"": ""/static/images/2kfaces/Google_1_Paul Reno_1_oval.jpg"", ""responses"": ""{\""Q0\"":5}"", ""internal_node_id"": ""0.0-2.0-0.0-0.0"", ""isFixed"": false, ""time_elapsed"": 11279, ""questions"": ""[{\""prompt\"":\""<p>How willing or unwilling do you think this person is to take risks? Rate from 1-9</p>\"",\""labels\"":[\""1 <br/>(Completely unwilling to take risks)\"",\""2\"",\""3\"",\""4\"",\""5\"",\""6\"",\""7\"",\""8\"",\""9  <br/>(Very willing to take risks)\""],\""required\"":true}]"", ""trial_index"": 2}"
debugSY7YBH:debug9XTTTL,3,1542168764412,"{""rt"": 2020, ""trial_type"": ""face-likert-amanda"", ""imgName"": ""/static/images/2kfaces/Google_1_Sara Guajardo_1_oval.jpg"", ""responses"": ""{\""Q0\"":4}"", ""internal_node_id"": ""0.0-2.0-0.0-1.0"", ""isFixed"": false, ""time_elapsed"": 13301, ""questions"": ""[{\""prompt\"":\""<p>How willing or unwilling do you think this person is to take risks? Rate from 1-9</p>\"",\""labels\"":[\""1 <br/>(Completely unwilling to take risks)\"",\""2\"",\""3\"",\""4\"",\""5\"",\""6\"",\""7\"",\""8\"",\""9  <br/>(Very willing to take risks)\""],\""required\"":true}]"", ""trial_index"": 3}"
debugSY7YBH:debug9XTTTL,4,1542168765854,"{""rt"": 1440, ""trial_type"": ""face-likert-amanda"", ""imgName"": ""/static/images/2kfaces/Google_1_Gertrude Bayne_11_oval.jpg"", ""responses"": ""{\""Q0\"":4}"", ""internal_node_id"": ""0.0-2.0-0.0-2.0"", ""isFixed"": false, ""time_elapsed"": 14743, ""questions"": ""[{\""prompt\"":\""<p>How willing or unwilling do you think this person is to take risks? Rate from 1-9</p>\"",\""labels\"":[\""1 <br/>(Completely unwilling to take risks)\"",\""2\"",\""3\"",\""4\"",\""5\"",\""6\"",\""7\"",\""8\"",\""9  <br/>(Very willing to take risks)\""],\""required\"":true}]"", ""trial_index"": 4}"
debugSY7YBH:debug9XTTTL,5,1542168767473,"{""rt"": 1617, ""trial_type"": ""face-likert-amanda"", ""imgName"": ""/static/images/2kfaces/Google_1_Sherry Mcmichael_11_oval.jpg"", ""responses"": ""{\""Q0\"":4}"", ""internal_node_id"": ""0.0-2.0-0.0-3.0"", ""isFixed"": false, ""time_elapsed"": 16361, ""questions"": ""[{\""prompt\"":\""<p>How willing or unwilling do you think this person is to take risks? Rate from 1-9</p>\"",\""labels\"":[\""1 <br/>(Completely unwilling to take risks)\"",\""2\"",\""3\"",\""4\"",\""5\"",\""6\"",\""7\"",\""8\"",\""9  <br/>(Very willing to take risks)\""],\""required\"":true}]"", ""trial_index"": 5}"
debugSY7YBH:debug9XTTTL,6,1542168768980,"{""rt"": 1507, ""trial_type"": ""face-likert-amanda"", ""imgName"": ""/static/images/2kfaces/Google_1_Norman Westfall_5_oval.jpg"", ""responses"": ""{\""Q0\"":4}"", ""internal_node_id"": ""0.0-2.0-0.0-4.0"", ""isFixed"": false, ""time_elapsed"": 17869, ""questions"": ""[{\""prompt\"":\""<p>How willing or unwilling do you think this person is to take risks? Rate from 1-9</p>\"",\""labels\"":[\""1 <br/>(Completely unwilling to take risks)\"",\""2\"",\""3\"",\""4\"",\""5\"",\""6\"",\""7\"",\""8\"",\""9  <br/>(Very willing to take risks)\""],\""required\"":true}]"", ""trial_index"": 6}"
debugSY7YBH:debug9XTTTL,7,1542168770987,"{""rt"": null, ""trial_type"": ""html-keyboard-response"", ""stimulus"": ""<p>Good job! Let us take a quick break!</p>"", ""internal_node_id"": ""0.0-2.0-1.0"", ""time_elapsed"": 19876, ""key_press"": null, ""trial_index"": 7}"
debug9CP6QI:debugF8NIC2,0,1542168905001,"{""rt"": 3741, ""trial_type"": ""face-likert-amanda"", ""imgName"": ""/static/images/faces/empty-image-1.jpg"", ""responses"": ""{\""Q0\"":5}"", ""internal_node_id"": ""0.0-0.0"", ""isFixed"": false, ""time_elapsed"": 3751, ""questions"": ""[{\""prompt\"":\""<p>How willing or unwilling do you think this person is to take risks? Rate from 1-9</p>\"",\""labels\"":[\""1 <br/>(Completely unwilling to take risks)\"",\""2\"",\""3\"",\""4\"",\""5\"",\""6\"",\""7\"",\""8\"",\""9  <br/>(Very willing to take risks)\""],\""required\"":true}]"", ""trial_index"": 0}"
debug9CP6QI:debugF8NIC2,1,1542168906357,"{""rt"": 1356, ""trial_type"": ""instructions"", ""view_history"": ""[{\""page_index\"":0,\""viewing_time\"":1355}]"", ""internal_node_id"": ""0.0-1.0"", ""time_elapsed"": 5108, ""trial_index"": 1}"
debug9CP6QI:debugF8NIC2,2,1542168908820,"{""rt"": 2461, ""trial_type"": ""face-likert-amanda"", ""imgName"": ""/static/images/2kfaces/Google_1_Paul Reno_1_oval.jpg"", ""responses"": ""{\""Q0\"":5}"", ""internal_node_id"": ""0.0-2.0-0.0-0.0"", ""isFixed"": false, ""time_elapsed"": 7571, ""questions"": ""[{\""prompt\"":\""<p>How willing or unwilling do you think this person is to take risks? Rate from 1-9</p>\"",\""labels\"":[\""1 <br/>(Completely unwilling to take risks)\"",\""2\"",\""3\"",\""4\"",\""5\"",\""6\"",\""7\"",\""8\"",\""9  <br/>(Very willing to take risks)\""],\""required\"":true}]"", ""trial_index"": 2}"
debug9CP6QI:debugF8NIC2,3,1542168910817,"{""rt"": 1997, ""trial_type"": ""face-likert-amanda"", ""imgName"": ""/static/images/2kfaces/Google_1_Sara Guajardo_1_oval.jpg"", ""responses"": ""{\""Q0\"":4}"", ""internal_node_id"": ""0.0-2.0-0.0-1.0"", ""isFixed"": false, ""time_elapsed"": 9568, ""questions"": ""[{\""prompt\"":\""<p>How willing or unwilling do you think this person is to take risks? Rate from 1-9</p>\"",\""labels\"":[\""1 <br/>(Completely unwilling to take risks)\"",\""2\"",\""3\"",\""4\"",\""5\"",\""6\"",\""7\"",\""8\"",\""9  <br/>(Very willing to take risks)\""],\""required\"":true}]"", ""trial_index"": 3}"
debug9CP6QI:debugF8NIC2,4,1542168912593,"{""rt"": 1774, ""trial_type"": ""face-likert-amanda"", ""imgName"": ""/static/images/2kfaces/Google_1_Gertrude Bayne_11_oval.jpg"", ""responses"": ""{\""Q0\"":3}"", ""internal_node_id"": ""0.0-2.0-0.0-2.0"", ""isFixed"": false, ""time_elapsed"": 11344, ""questions"": ""[{\""prompt\"":\""<p>How willing or unwilling do you think this person is to take risks? Rate from 1-9</p>\"",\""labels\"":[\""1 <br/>(Completely unwilling to take risks)\"",\""2\"",\""3\"",\""4\"",\""5\"",\""6\"",\""7\"",\""8\"",\""9  <br/>(Very willing to take risks)\""],\""required\"":true}]"", ""trial_index"": 4}"
debug9CP6QI:debugF8NIC2,5,1542168913596,"{""rt"": null, ""trial_type"": ""html-keyboard-response"", ""stimulus"": ""<p>Good job! Let us take a quick break!</p>"", ""internal_node_id"": ""0.0-2.0-1.0"", ""time_elapsed"": 12347, ""key_press"": null, ""trial_index"": 5}"
debugJDRWF9:debugW08IQ1,0,1542172471866,"{""rt"": 16472, ""trial_type"": ""survey-multi-choice"", ""responses"": ""{\""Q0\"":\""26-35\"",\""Q1\"":\""Female\"",\""Q2\"":\""\"",\""Q3\"":\""3\"",\""Q4\"":\""\""}"", ""time_elapsed"": 16482, ""sanity_check_1_continue"": true, ""random_num"": 3, ""questions"": ""[{\""prompt\"":\""What is your age?\"",\""options\"":[\""Under 18\"",\""18-25\"",\""26-35\"",\""36-45\"",\""Over 46\""],\""required\"":false},{\""prompt\"":\""What is your gender?\"",\""options\"":[\""Male\"",\""Female\"",\""Non-binary\""],\""required\"":false},{\""prompt\"":\""What is your ethnicity?\"",\""options\"":[\""Caucasian\"",\""Hispanic or Latino\"",\""African\"",\""Asian\"",\""Native American\"",\""Other\""],\""required\"":false},{\""prompt\"":\""Choose the option that matches the number here: 3\"",\""options\"":[\""1\"",\""2\"",\""3\"",\""4\""],\""required\"":true},{\""prompt\"":\""What is the highest level of education you have achieved?\"",\""options\"":[\""No school completed\"",\""Some high school or nursery school\"",\""College or bachelor degree\"",\""Master degree\"",\""Doctorate degree or professional degree\""],\""required\"":false}]"", ""internal_node_id"": ""0.0-0.0-0.0"", ""trial_index"": 0}"
debugJDRWF9:debugW08IQ1,1,1542172484866,"{""rt"": 12997, ""trial_type"": ""face-likert-amanda"", ""imgName"": ""/static/images/faces/empty-image-1.jpg"", ""responses"": ""{\""Q0\"":4}"", ""internal_node_id"": ""0.0-1.0"", ""isFixed"": false, ""time_elapsed"": 29482, ""questions"": ""[{\""prompt\"":\""<p>How willing or unwilling do you think this person is to take risks? Rate from 1-9</p>\"",\""labels\"":[\""1 <br/>(Completely unwilling to take risks)\"",\""2\"",\""3\"",\""4\"",\""5\"",\""6\"",\""7\"",\""8\"",\""9  <br/>(Very willing to take risks)\""],\""required\"":true}]"", ""trial_index"": 1}"
debugJDRWF9:debugW08IQ1,2,1542172489608,"{""rt"": 4741, ""trial_type"": ""instructions"", ""view_history"": ""[{\""page_index\"":0,\""viewing_time\"":4740}]"", ""internal_node_id"": ""0.0-2.0"", ""time_elapsed"": 34224, ""trial_index"": 2}"
debugJDRWF9:debugW08IQ1,3,1542172497739,"{""rt"": 8129, ""trial_type"": ""face-likert-amanda"", ""imgName"": ""/static/images/2kfaces/Google_1_Paul Reno_1_oval.jpg"", ""responses"": ""{\""Q0\"":6}"", ""internal_node_id"": ""0.0-3.0-0.0-0.0"", ""isFixed"": false, ""time_elapsed"": 42355, ""questions"": ""[{\""prompt\"":\""<p>How willing or unwilling do you think this person is to take risks? Rate from 1-9</p>\"",\""labels\"":[\""1 <br/>(Completely unwilling to take risks)\"",\""2\"",\""3\"",\""4\"",\""5\"",\""6\"",\""7\"",\""8\"",\""9  <br/>(Very willing to take risks)\""],\""required\"":true}]"", ""trial_index"": 3}"
debugJDRWF9:debugW08IQ1,4,1542172500364,"{""rt"": 2624, ""trial_type"": ""face-likert-amanda"", ""imgName"": ""/static/images/2kfaces/Google_1_Sara Guajardo_1_oval.jpg"", ""responses"": ""{\""Q0\"":5}"", ""internal_node_id"": ""0.0-3.0-0.0-1.0"", ""isFixed"": false, ""time_elapsed"": 44980, ""questions"": ""[{\""prompt\"":\""<p>How willing or unwilling do you think this person is to take risks? Rate from 1-9</p>\"",\""labels\"":[\""1 <br/>(Completely unwilling to take risks)\"",\""2\"",\""3\"",\""4\"",\""5\"",\""6\"",\""7\"",\""8\"",\""9  <br/>(Very willing to take risks)\""],\""required\"":true}]"", ""trial_index"": 4}"
debugJDRWF9:debugW08IQ1,5,1542172501888,"{""rt"": 1523, ""trial_type"": ""face-likert-amanda"", ""imgName"": ""/static/images/2kfaces/Google_1_Gertrude Bayne_11_oval.jpg"", ""responses"": ""{\""Q0\"":4}"", ""internal_node_id"": ""0.0-3.0-0.0-2.0"", ""isFixed"": false, ""time_elapsed"": 46504, ""questions"": ""[{\""prompt\"":\""<p>How willing or unwilling do you think this person is to take risks? Rate from 1-9</p>\"",\""labels\"":[\""1 <br/>(Completely unwilling to take risks)\"",\""2\"",\""3\"",\""4\"",\""5\"",\""6\"",\""7\"",\""8\"",\""9  <br/>(Very willing to take risks)\""],\""required\"":true}]"", ""trial_index"": 5}"
debugJDRWF9:debugW08IQ1,6,1542172503891,"{""rt"": null, ""trial_type"": ""html-keyboard-response"", ""stimulus"": ""<p>Good job! Let us take a quick break!</p>"", ""internal_node_id"": ""0.0-3.0-1.0"", ""time_elapsed"": 48507, ""key_press"": null, ""trial_index"": 6}"
debugLN4G9V:debugYRMWER,0,1542173969185,"{""rt"": 2178, ""trial_type"": ""instructions"", ""view_history"": ""[{\""page_index\"":0,\""viewing_time\"":2178}]"", ""internal_node_id"": ""0.0-0.0"", ""time_elapsed"": 2180, ""trial_index"": 0}"
debugLN4G9V:debugYRMWER,1,1542173971398,"{""rt"": 2212, ""trial_type"": ""face-likert-amanda"", ""imgName"": ""/static/images/2kfaces/Google_1_Rose Barlow_1_oval.jpg"", ""responses"": ""{\""Q0\"":4}"", ""internal_node_id"": ""0.0-1.0-0.0-0.0"", ""isFixed"": false, ""time_elapsed"": 4394, ""questions"": ""[{\""prompt\"":\""<p>How willing or unwilling do you think this person is to take risks? Rate from 1-9</p>\"",\""labels\"":[\""1 <br/>(Completely unwilling to take risks)\"",\""2\"",\""3\"",\""4\"",\""5\"",\""6\"",\""7\"",\""8\"",\""9  <br/>(Very willing to take risks)\""],\""required\"":true}]"", ""trial_index"": 1}"
debugLN4G9V:debugYRMWER,2,1542173972784,"{""rt"": 1385, ""trial_type"": ""face-likert-amanda"", ""imgName"": ""/static/images/2kfaces/Google_1_Wilma Allman_15_oval.jpg"", ""responses"": ""{\""Q0\"":3}"", ""internal_node_id"": ""0.0-1.0-0.0-1.0"", ""isFixed"": false, ""time_elapsed"": 5780, ""questions"": ""[{\""prompt\"":\""<p>How willing or unwilling do you think this person is to take risks? Rate from 1-9</p>\"",\""labels\"":[\""1 <br/>(Completely unwilling to take risks)\"",\""2\"",\""3\"",\""4\"",\""5\"",\""6\"",\""7\"",\""8\"",\""9  <br/>(Very willing to take risks)\""],\""required\"":true}]"", ""trial_index"": 2}"
debugLN4G9V:debugYRMWER,3,1542173973787,"{""rt"": null, ""trial_type"": ""html-keyboard-response"", ""stimulus"": ""<p>Good job! Let us take a quick break!</p>"", ""internal_node_id"": ""0.0-1.0-1.0"", ""time_elapsed"": 6783, ""key_press"": null, ""trial_index"": 3}"
debugLN4G9V:debugYRMWER,4,1542173976284,"{""rt"": 2495, ""trial_type"": ""face-likert-amanda"", ""imgName"": ""/static/images/2kfaces/Google_1_Veronica Percy_7_oval.jpg"", ""responses"": ""{\""Q0\"":5}"", ""internal_node_id"": ""0.0-2.0-0.0-0.0"", ""isFixed"": false, ""time_elapsed"": 9279, ""questions"": ""[{\""prompt\"":\""<p>How willing or unwilling do you think this person is to take risks? Rate from 1-9</p>\"",\""labels\"":[\""1 <br/>(Completely unwilling to take risks)\"",\""2\"",\""3\"",\""4\"",\""5\"",\""6\"",\""7\"",\""8\"",\""9  <br/>(Very willing to take risks)\""],\""required\"":true}]"", ""trial_index"": 4}"
debugLN4G9V:debugYRMWER,5,1542173978713,"{""rt"": 2429, ""trial_type"": ""face-likert-amanda"", ""imgName"": ""/static/images/2kfaces/Google_1_Stephen Conley_1_oval.jpg"", ""responses"": ""{\""Q0\"":3}"", ""internal_node_id"": ""0.0-2.0-0.0-1.0"", ""isFixed"": false, ""time_elapsed"": 11709, ""questions"": ""[{\""prompt\"":\""<p>How willing or unwilling do you think this person is to take risks? Rate from 1-9</p>\"",\""labels\"":[\""1 <br/>(Completely unwilling to take risks)\"",\""2\"",\""3\"",\""4\"",\""5\"",\""6\"",\""7\"",\""8\"",\""9  <br/>(Very willing to take risks)\""],\""required\"":true}]"", ""trial_index"": 5}"
debugLN4G9V:debugYRMWER,6,1542173980718,"{""rt"": null, ""trial_type"": ""html-keyboard-response"", ""stimulus"": ""<p>Good job! Let us take a quick break!</p>"", ""internal_node_id"": ""0.0-2.0-1.0"", ""time_elapsed"": 13714, ""key_press"": null, ""trial_index"": 6}"
debugLN4G9V:debugYRMWER,7,1542173983724,"{""rt"": null, ""trial_type"": ""html-keyboard-response"", ""stimulus"": ""<p>Let us take a longer break!</p>"", ""internal_node_id"": ""0.0-3.0"", ""time_elapsed"": 16719, ""key_press"": null, ""trial_index"": 7}"
debugLN4G9V:debugYRMWER,8,1542173986563,"{""rt"": 2839, ""trial_type"": ""face-likert-amanda"", ""imgName"": ""/static/images/2kfaces/Google_1_Leonard Overcash_5_oval.jpg"", ""responses"": ""{\""Q0\"":2}"", ""internal_node_id"": ""0.0-4.0-0.0-0.0"", ""isFixed"": false, ""time_elapsed"": 19559, ""questions"": ""[{\""prompt\"":\""<p>How willing or unwilling do you think this person is to take risks? Rate from 1-9</p>\"",\""labels\"":[\""1 <br/>(Completely unwilling to take risks)\"",\""2\"",\""3\"",\""4\"",\""5\"",\""6\"",\""7\"",\""8\"",\""9  <br/>(Very willing to take risks)\""],\""required\"":true}]"", ""trial_index"": 8}"
debugLN4G9V:debugYRMWER,9,1542173988079,"{""rt"": 1515, ""trial_type"": ""face-likert-amanda"", ""imgName"": ""/static/images/2kfaces/Google_1_Rose Barlow_1_oval.jpg"", ""responses"": ""{\""Q0\"":5}"", ""internal_node_id"": ""0.0-4.0-0.0-1.0"", ""isFixed"": false, ""time_elapsed"": 21075, ""questions"": ""[{\""prompt\"":\""<p>How willing or unwilling do you think this person is to take risks? Rate from 1-9</p>\"",\""labels\"":[\""1 <br/>(Completely unwilling to take risks)\"",\""2\"",\""3\"",\""4\"",\""5\"",\""6\"",\""7\"",\""8\"",\""9  <br/>(Very willing to take risks)\""],\""required\"":true}]"", ""trial_index"": 9}"
debugLN4G9V:debugYRMWER,10,1542173990082,"{""rt"": null, ""trial_type"": ""html-keyboard-response"", ""stimulus"": ""<p>Good job! Let us take a quick break!</p>"", ""internal_node_id"": ""0.0-4.0-1.0"", ""time_elapsed"": 23078, ""key_press"": null, ""trial_index"": 10}"
debugLN4G9V:debugYRMWER,11,1542173992048,"{""rt"": 1964, ""trial_type"": ""face-likert-amanda"", ""imgName"": ""/static/images/2kfaces/Google_1_Gertrude Bayne_11_oval.jpg"", ""responses"": ""{\""Q0\"":4}"", ""internal_node_id"": ""0.0-5.0-0.0-0.0"", ""isFixed"": false, ""time_elapsed"": 25044, ""questions"": ""[{\""prompt\"":\""<p>How willing or unwilling do you think this person is to take risks? Rate from 1-9</p>\"",\""labels\"":[\""1 <br/>(Completely unwilling to take risks)\"",\""2\"",\""3\"",\""4\"",\""5\"",\""6\"",\""7\"",\""8\"",\""9  <br/>(Very willing to take risks)\""],\""required\"":true}]"", ""trial_index"": 11}"
debugLN4G9V:debugYRMWER,12,1542173993985,"{""rt"": 1937, ""trial_type"": ""face-likert-amanda"", ""imgName"": ""/static/images/2kfaces/Google_1_Mark Houser_17_oval.jpg"", ""responses"": ""{\""Q0\"":1}"", ""internal_node_id"": ""0.0-5.0-0.0-1.0"", ""isFixed"": false, ""time_elapsed"": 26981, ""questions"": ""[{\""prompt\"":\""<p>How willing or unwilling do you think this person is to take risks? Rate from 1-9</p>\"",\""labels\"":[\""1 <br/>(Completely unwilling to take risks)\"",\""2\"",\""3\"",\""4\"",\""5\"",\""6\"",\""7\"",\""8\"",\""9  <br/>(Very willing to take risks)\""],\""required\"":true}]"", ""trial_index"": 12}"
debugLN4G9V:debugYRMWER,13,1542173995991,"{""rt"": null, ""trial_type"": ""html-keyboard-response"", ""stimulus"": ""<p>Good job! Let us take a quick break!</p>"", ""internal_node_id"": ""0.0-5.0-1.0"", ""time_elapsed"": 28987, ""key_press"": null, ""trial_index"": 13}"
debug9SQ2JX:debugWYUXSJ,0,1542174086535,"{""rt"": 1193, ""trial_type"": ""instructions"", ""view_history"": ""[{\""page_index\"":0,\""viewing_time\"":1192}]"", ""internal_node_id"": ""0.0-0.0"", ""time_elapsed"": 1196, ""trial_index"": 0}"
debug9SQ2JX:debugWYUXSJ,1,1542174089452,"{""rt"": 2915, ""trial_type"": ""face-likert-amanda"", ""imgName"": ""/static/images/2kfaces/Google_1_Veronica Percy_7_oval.jpg"", ""responses"": ""{\""Q0\"":5}"", ""internal_node_id"": ""0.0-1.0-0.0-0.0"", ""isFixed"": false, ""time_elapsed"": 4114, ""questions"": ""[{\""prompt\"":\""<p>How willing or unwilling do you think this person is to take risks? Rate from 1-9</p>\"",\""labels\"":[\""1 <br/>(Completely unwilling to take risks)\"",\""2\"",\""3\"",\""4\"",\""5\"",\""6\"",\""7\"",\""8\"",\""9  <br/>(Very willing to take risks)\""],\""required\"":true}]"", ""trial_index"": 1}"
debug9SQ2JX:debugWYUXSJ,2,1542174090459,"{""rt"": null, ""trial_type"": ""html-keyboard-response"", ""stimulus"": ""<p>Good job! Let us take a quick break!</p>"", ""internal_node_id"": ""0.0-1.0-1.0"", ""time_elapsed"": 5121, ""key_press"": null, ""trial_index"": 2}"
debug9SQ2JX:debugWYUXSJ,3,1542174092449,"{""rt"": 1988, ""trial_type"": ""face-likert-amanda"", ""imgName"": ""/static/images/2kfaces/Google_1_Kenneth Cabral_19_oval.jpg"", ""responses"": ""{\""Q0\"":3}"", ""internal_node_id"": ""0.0-2.0-0.0-0.0"", ""isFixed"": false, ""time_elapsed"": 7110, ""questions"": ""[{\""prompt\"":\""<p>How willing or unwilling do you think this person is to take risks? Rate from 1-9</p>\"",\""labels\"":[\""1 <br/>(Completely unwilling to take risks)\"",\""2\"",\""3\"",\""4\"",\""5\"",\""6\"",\""7\"",\""8\"",\""9  <br/>(Very willing to take risks)\""],\""required\"":true}]"", ""trial_index"": 3}"
debug9SQ2JX:debugWYUXSJ,4,1542174093452,"{""rt"": null, ""trial_type"": ""html-keyboard-response"", ""stimulus"": ""<p>Good job! Let us take a quick break!</p>"", ""internal_node_id"": ""0.0-2.0-1.0"", ""time_elapsed"": 8113, ""key_press"": null, ""trial_index"": 4}"
debug9SQ2JX:debugWYUXSJ,5,1542174098453,"{""rt"": null, ""trial_type"": ""html-keyboard-response"", ""stimulus"": ""<p>Let us take a 5 seconds break!</p>"", ""internal_node_id"": ""0.0-3.0"", ""time_elapsed"": 13115, ""key_press"": null, ""trial_index"": 5}"
debug9SQ2JX:debugWYUXSJ,6,1542174101446,"{""rt"": 2992, ""trial_type"": ""face-likert-amanda"", ""imgName"": ""/static/images/2kfaces/Google_1_Rose Barlow_1_oval.jpg"", ""responses"": ""{\""Q0\"":3}"", ""internal_node_id"": ""0.0-4.0-0.0-0.0"", ""isFixed"": false, ""time_elapsed"": 16108, ""questions"": ""[{\""prompt\"":\""<p>How willing or unwilling do you think this person is to take risks? Rate from 1-9</p>\"",\""labels\"":[\""1 <br/>(Completely unwilling to take risks)\"",\""2\"",\""3\"",\""4\"",\""5\"",\""6\"",\""7\"",\""8\"",\""9  <br/>(Very willing to take risks)\""],\""required\"":true}]"", ""trial_index"": 6}"
debug9SQ2JX:debugWYUXSJ,7,1542174103452,"{""rt"": null, ""trial_type"": ""html-keyboard-response"", ""stimulus"": ""<p>Good job! Let us take a quick break!</p>"", ""internal_node_id"": ""0.0-4.0-1.0"", ""time_elapsed"": 18114, ""key_press"": null, ""trial_index"": 7}"
debug9SQ2JX:debugWYUXSJ,8,1542174105586,"{""rt"": 2133, ""trial_type"": ""face-likert-amanda"", ""imgName"": ""/static/images/2kfaces/Google_1_Amelia Lines_11_oval.jpg"", ""responses"": ""{\""Q0\"":5}"", ""internal_node_id"": ""0.0-5.0-0.0-0.0"", ""isFixed"": false, ""time_elapsed"": 20248, ""questions"": ""[{\""prompt\"":\""<p>How willing or unwilling do you think this person is to take risks? Rate from 1-9</p>\"",\""labels\"":[\""1 <br/>(Completely unwilling to take risks)\"",\""2\"",\""3\"",\""4\"",\""5\"",\""6\"",\""7\"",\""8\"",\""9  <br/>(Very willing to take risks)\""],\""required\"":true}]"", ""trial_index"": 8}"
debug9SQ2JX:debugWYUXSJ,9,1542174106341,"{""rt"": null, ""trial_type"": ""html-keyboard-response"", ""stimulus"": ""<p>Good job! Let us take a quick break!</p>"", ""internal_node_id"": ""0.0-5.0-1.0"", ""time_elapsed"": 21003, ""key_press"": null, ""trial_index"": 9}"
debugT2KMH7:debugNHRZO0,0,1542174235716,"{""rt"": 1508, ""trial_type"": ""instructions"", ""view_history"": ""[{\""page_index\"":0,\""viewing_time\"":1507}]"", ""internal_node_id"": ""0.0-0.0"", ""time_elapsed"": 1510, ""trial_index"": 0}"
debugT2KMH7:debugNHRZO0,1,1542174238113,"{""rt"": 2395, ""trial_type"": ""face-likert-amanda"", ""imgName"": ""/static/images/2kfaces/Google_1_Paul Reno_1_oval.jpg"", ""responses"": ""{\""Q0\"":6}"", ""internal_node_id"": ""0.0-1.0-0.0-0.0"", ""isFixed"": false, ""time_elapsed"": 3908, ""questions"": ""[{\""prompt\"":\""<p>How willing or unwilling do you think this person is to take risks? Rate from 1-9</p>\"",\""labels\"":[\""1 <br/>(Completely unwilling to take risks)\"",\""2\"",\""3\"",\""4\"",\""5\"",\""6\"",\""7\"",\""8\"",\""9  <br/>(Very willing to take risks)\""],\""required\"":true}]"", ""trial_index"": 1}"
debugT2KMH7:debugNHRZO0,2,1542174240120,"{""rt"": null, ""trial_type"": ""html-keyboard-response"", ""stimulus"": ""<p>Good job! Let us take a quick break!</p>"", ""internal_node_id"": ""0.0-1.0-1.0"", ""time_elapsed"": 5915, ""key_press"": null, ""trial_index"": 2}"
debugT2KMH7:debugNHRZO0,3,1542174242114,"{""rt"": 1992, ""trial_type"": ""face-likert-amanda"", ""imgName"": ""/static/images/2kfaces/Google_1_Sara Guajardo_1_oval.jpg"", ""responses"": ""{\""Q0\"":4}"", ""internal_node_id"": ""0.0-2.0-0.0-0.0"", ""isFixed"": false, ""time_elapsed"": 7909, ""questions"": ""[{\""prompt\"":\""<p>How willing or unwilling do you think this person is to take risks? Rate from 1-9</p>\"",\""labels\"":[\""1 <br/>(Completely unwilling to take risks)\"",\""2\"",\""3\"",\""4\"",\""5\"",\""6\"",\""7\"",\""8\"",\""9  <br/>(Very willing to take risks)\""],\""required\"":true}]"", ""trial_index"": 3}"
debugT2KMH7:debugNHRZO0,4,1542174243118,"{""rt"": null, ""trial_type"": ""html-keyboard-response"", ""stimulus"": ""<p>Good job! Let us take a quick break!</p>"", ""internal_node_id"": ""0.0-2.0-1.0"", ""time_elapsed"": 8912, ""key_press"": null, ""trial_index"": 4}"
debugT2KMH7:debugNHRZO0,5,1542174248122,"{""rt"": null, ""trial_type"": ""html-keyboard-response"", ""stimulus"": ""<p>Let us take a 5 seconds break!</p>"", ""internal_node_id"": ""0.0-3.0"", ""time_elapsed"": 13917, ""key_press"": null, ""trial_index"": 5}"
debugT2KMH7:debugNHRZO0,6,1542174250628,"{""rt"": 2505, ""trial_type"": ""face-likert-amanda"", ""imgName"": ""/static/images/2kfaces/Google_1_Sara Guajardo_1_oval.jpg"", ""responses"": ""{\""Q0\"":3}"", ""internal_node_id"": ""0.0-4.0-0.0-0.0"", ""isFixed"": false, ""time_elapsed"": 16423, ""questions"": ""[{\""prompt\"":\""<p>How willing or unwilling do you think this person is to take risks? Rate from 1-9</p>\"",\""labels\"":[\""1 <br/>(Completely unwilling to take risks)\"",\""2\"",\""3\"",\""4\"",\""5\"",\""6\"",\""7\"",\""8\"",\""9  <br/>(Very willing to take risks)\""],\""required\"":true}]"", ""trial_index"": 6}"
debugT2KMH7:debugNHRZO0,7,1542174251633,"{""rt"": null, ""trial_type"": ""html-keyboard-response"", ""stimulus"": ""<p>Good job! Let us take a quick break!</p>"", ""internal_node_id"": ""0.0-4.0-1.0"", ""time_elapsed"": 17428, ""key_press"": null, ""trial_index"": 7}"
debugT2KMH7:debugNHRZO0,8,1542174254359,"{""rt"": 2725, ""trial_type"": ""face-likert-amanda"", ""imgName"": ""/static/images/2kfaces/Google_1_Paul Reno_1_oval.jpg"", ""responses"": ""{\""Q0\"":5}"", ""internal_node_id"": ""0.0-5.0-0.0-0.0"", ""isFixed"": false, ""time_elapsed"": 20154, ""questions"": ""[{\""prompt\"":\""<p>How willing or unwilling do you think this person is to take risks? Rate from 1-9</p>\"",\""labels\"":[\""1 <br/>(Completely unwilling to take risks)\"",\""2\"",\""3\"",\""4\"",\""5\"",\""6\"",\""7\"",\""8\"",\""9  <br/>(Very willing to take risks)\""],\""required\"":true}]"", ""trial_index"": 8}"
debugT2KMH7:debugNHRZO0,9,1542174256365,"{""rt"": null, ""trial_type"": ""html-keyboard-response"", ""stimulus"": ""<p>Good job! Let us take a quick break!</p>"", ""internal_node_id"": ""0.0-5.0-1.0"", ""time_elapsed"": 22160, ""key_press"": null, ""trial_index"": 9}"
debug4MOHYB:debugQYSKVR,0,1542175189818,"{""rt"": 2501, ""trial_type"": ""instructions"", ""view_history"": ""[{\""page_index\"":0,\""viewing_time\"":1088},{\""page_index\"":1,\""viewing_time\"":675},{\""page_index\"":2,\""viewing_time\"":737}]"", ""internal_node_id"": ""0.0-0.0"", ""time_elapsed"": 2504, ""trial_index"": 0}"
debug4MOHYB:debugQYSKVR,1,1542175194247,"{""rt"": 4424, ""trial_type"": ""survey-multi-choice"", ""responses"": ""{\""Q0\"":\""\"",\""Q1\"":\""\"",\""Q2\"":\""\"",\""Q3\"":\""4\"",\""Q4\"":\""\""}"", ""time_elapsed"": 6934, ""sanity_check_1_continue"": true, ""random_num"": 4, ""questions"": ""[{\""prompt\"":\""What is your age?\"",\""options\"":[\""Under 18\"",\""18-25\"",\""26-35\"",\""36-45\"",\""Over 46\""],\""required\"":false},{\""prompt\"":\""What is your gender?\"",\""options\"":[\""Male\"",\""Female\"",\""Non-binary\""],\""required\"":false},{\""prompt\"":\""What is your ethnicity?\"",\""options\"":[\""Caucasian\"",\""Hispanic or Latino\"",\""African\"",\""Asian\"",\""Native American\"",\""Other\""],\""required\"":false},{\""prompt\"":\""Choose the option that matches the number here: 4\"",\""options\"":[\""1\"",\""2\"",\""3\"",\""4\""],\""required\"":true},{\""prompt\"":\""What is the highest level of education you have achieved?\"",\""options\"":[\""No school completed\"",\""Some high school or nursery school\"",\""College or bachelor degree\"",\""Master degree\"",\""Doctorate degree or professional degree\""],\""required\"":false}]"", ""internal_node_id"": ""0.0-1.0-0.0"", ""trial_index"": 1}"
debug4MOHYB:debugQYSKVR,2,1542175198836,"{""rt"": 4584, ""trial_type"": ""survey-text-req"", ""responses"": ""{\""Q0\"":\""f\"",\""Q1\"":\""d\"",\""Q2\"":\""d\""}"", ""internal_node_id"": ""0.0-2.0"", ""time_elapsed"": 11523, ""trial_index"": 2}"
debug4MOHYB:debugQYSKVR,3,1542175207017,"{""rt"": 8179, ""trial_type"": ""survey-text-req"", ""responses"": ""{\""Q0\"":\""How willing or unwilling do you think this person is to take risks?\""}"", ""internal_node_id"": ""0.0-3.0-0.0"", ""comprehension_check_continue"": true, ""time_elapsed"": 19704, ""trial_index"": 3}"
debug4MOHYB:debugQYSKVR,4,1542175219507,"{""rt"": 12488, ""trial_type"": ""face-likert-amanda"", ""imgName"": ""/static/images/faces/empty-image-1.jpg"", ""responses"": ""{\""Q0\"":3}"", ""internal_node_id"": ""0.0-4.0"", ""time_elapsed"": 32194, ""questions"": ""[{\""prompt\"":\""<p>How willing or unwilling do you think this person is to take risks? Rate from 1-9</p>\"",\""labels\"":[\""1 <br/>(Completely unwilling to take risks)\"",\""2\"",\""3\"",\""4\"",\""5\"",\""6\"",\""7\"",\""8\"",\""9  <br/>(Very willing to take risks)\""],\""required\"":true}]"", ""trial_index"": 4, ""isRepeat"": false}"
debug4MOHYB:debugQYSKVR,5,1542175223093,"{""rt"": 3586, ""trial_type"": ""instructions"", ""view_history"": ""[{\""page_index\"":0,\""viewing_time\"":3586}]"", ""internal_node_id"": ""0.0-5.0"", ""time_elapsed"": 35780, ""trial_index"": 5}"
debug4MOHYB:debugQYSKVR,6,1542175228318,"{""rt"": 5224, ""trial_type"": ""face-likert-amanda"", ""imgName"": ""/static/images/2kfaces/Google_1_Sara Guajardo_1_oval.jpg"", ""responses"": ""{\""Q0\"":4}"", ""internal_node_id"": ""0.0-6.0-0.0-0.0"", ""time_elapsed"": 41005, ""questions"": ""[{\""prompt\"":\""<p>How willing or unwilling do you think this person is to take risks? Rate from 1-9</p>\"",\""labels\"":[\""1 <br/>(Completely unwilling to take risks)\"",\""2\"",\""3\"",\""4\"",\""5\"",\""6\"",\""7\"",\""8\"",\""9  <br/>(Very willing to take risks)\""],\""required\"":true}]"", ""trial_index"": 6, ""isRepeat"": false}"
debug4MOHYB:debugQYSKVR,7,1542175229072,"{""rt"": null, ""trial_type"": ""html-keyboard-response"", ""stimulus"": ""<p>Good job! Let us take a quick break!</p>"", ""internal_node_id"": ""0.0-6.0-1.0"", ""time_elapsed"": 41759, ""key_press"": null, ""trial_index"": 7}"
debug4MOHYB:debugQYSKVR,8,1542175231606,"{""rt"": 2532, ""trial_type"": ""face-likert-amanda"", ""imgName"": ""/static/images/2kfaces/Google_1_Paul Reno_1_oval.jpg"", ""responses"": ""{\""Q0\"":5}"", ""internal_node_id"": ""0.0-7.0-0.0-0.0"", ""time_elapsed"": 44293, ""questions"": ""[{\""prompt\"":\""<p>How willing or unwilling do you think this person is to take risks? Rate from 1-9</p>\"",\""labels\"":[\""1 <br/>(Completely unwilling to take risks)\"",\""2\"",\""3\"",\""4\"",\""5\"",\""6\"",\""7\"",\""8\"",\""9  <br/>(Very willing to take risks)\""],\""required\"":true}]"", ""trial_index"": 8, ""isRepeat"": false}"
debug4MOHYB:debugQYSKVR,9,1542175232360,"{""rt"": null, ""trial_type"": ""html-keyboard-response"", ""stimulus"": ""<p>Good job! Let us take a quick break!</p>"", ""internal_node_id"": ""0.0-7.0-1.0"", ""time_elapsed"": 45046, ""key_press"": null, ""trial_index"": 9}"
debug4MOHYB:debugQYSKVR,10,1542175235363,"{""rt"": null, ""trial_type"": ""html-keyboard-response"", ""stimulus"": ""<p>Enjoy a longer break :)</p>"", ""internal_node_id"": ""0.0-8.0"", ""time_elapsed"": 48050, ""key_press"": null, ""trial_index"": 10}"
debug4MOHYB:debugQYSKVR,11,1542175237399,"{""rt"": 2036, ""trial_type"": ""face-likert-amanda"", ""imgName"": ""/static/images/2kfaces/Google_1_Paul Reno_1_oval.jpg"", ""responses"": ""{\""Q0\"":3}"", ""internal_node_id"": ""0.0-9.0-0.0-0.0"", ""time_elapsed"": 50086, ""questions"": ""[{\""prompt\"":\""<p>How willing or unwilling do you think this person is to take risks? Rate from 1-9</p>\"",\""labels\"":[\""1 <br/>(Completely unwilling to take risks)\"",\""2\"",\""3\"",\""4\"",\""5\"",\""6\"",\""7\"",\""8\"",\""9  <br/>(Very willing to take risks)\""],\""required\"":true}]"", ""trial_index"": 11, ""isRepeat"": false}"
debug4MOHYB:debugQYSKVR,12,1542175238154,"{""rt"": null, ""trial_type"": ""html-keyboard-response"", ""stimulus"": ""<p>Good job! Let us take a quick break!</p>"", ""internal_node_id"": ""0.0-9.0-1.0"", ""time_elapsed"": 50841, ""key_press"": null, ""trial_index"": 12}"
debug4MOHYB:debugQYSKVR,13,1542175241350,"{""rt"": 3194, ""trial_type"": ""face-likert-amanda"", ""imgName"": ""/static/images/2kfaces/Google_1_Sara Guajardo_1_oval.jpg"", ""responses"": ""{\""Q0\"":4}"", ""internal_node_id"": ""0.0-10.0-0.0-0.0"", ""time_elapsed"": 54037, ""questions"": ""[{\""prompt\"":\""<p>How willing or unwilling do you think this person is to take risks? Rate from 1-9</p>\"",\""labels\"":[\""1 <br/>(Completely unwilling to take risks)\"",\""2\"",\""3\"",\""4\"",\""5\"",\""6\"",\""7\"",\""8\"",\""9  <br/>(Very willing to take risks)\""],\""required\"":true}]"", ""trial_index"": 13, ""isRepeat"": false}"
debug4MOHYB:debugQYSKVR,14,1542175242100,"{""rt"": null, ""trial_type"": ""html-keyboard-response"", ""stimulus"": ""<p>Good job! Let us take a quick break!</p>"", ""internal_node_id"": ""0.0-10.0-1.0"", ""time_elapsed"": 54787, ""key_press"": null, ""trial_index"": 14}"
debugZRQTZD:debugWDCN2P,0,1542175467717,"{""rt"": 2322, ""trial_type"": ""face-likert-amanda"", ""imgName"": ""/static/images/2kfaces/Google_1_Sara Guajardo_1_oval.jpg"", ""responses"": ""{\""Q0\"":5}"", ""internal_node_id"": ""0.0-0.0-0.0-0.0"", ""time_elapsed"": 2326, ""questions"": ""[{\""prompt\"":\""<p>How willing or unwilling do you think this person is to take risks? Rate from 1-9</p>\"",\""labels\"":[\""1 <br/>(Completely unwilling to take risks)\"",\""2\"",\""3\"",\""4\"",\""5\"",\""6\"",\""7\"",\""8\"",\""9  <br/>(Very willing to take risks)\""],\""required\"":true}]"", ""trial_index"": 0, ""isRepeat"": false}"
debugZRQTZD:debugWDCN2P,1,1542175469719,"{""rt"": null, ""trial_type"": ""html-keyboard-response"", ""stimulus"": ""<p>Good job! Let us take a quick break!</p>"", ""internal_node_id"": ""0.0-0.0-1.0"", ""time_elapsed"": 4328, ""key_press"": null, ""trial_index"": 1}"
debugZRQTZD:debugWDCN2P,2,1542175471655,"{""rt"": 1934, ""trial_type"": ""face-likert-amanda"", ""imgName"": ""/static/images/2kfaces/Google_1_Paul Reno_1_oval.jpg"", ""responses"": ""{\""Q0\"":3}"", ""internal_node_id"": ""0.0-1.0-0.0-0.0"", ""time_elapsed"": 6264, ""questions"": ""[{\""prompt\"":\""<p>How willing or unwilling do you think this person is to take risks? Rate from 1-9</p>\"",\""labels\"":[\""1 <br/>(Completely unwilling to take risks)\"",\""2\"",\""3\"",\""4\"",\""5\"",\""6\"",\""7\"",\""8\"",\""9  <br/>(Very willing to take risks)\""],\""required\"":true}]"", ""trial_index"": 2, ""isRepeat"": false}"
debugZRQTZD:debugWDCN2P,3,1542175473658,"{""rt"": null, ""trial_type"": ""html-keyboard-response"", ""stimulus"": ""<p>Good job! Let us take a quick break!</p>"", ""internal_node_id"": ""0.0-1.0-1.0"", ""time_elapsed"": 8267, ""key_press"": null, ""trial_index"": 3}"
debugZRQTZD:debugWDCN2P,4,1542175476161,"{""rt"": null, ""trial_type"": ""html-keyboard-response"", ""stimulus"": ""<p>Enjoy a longer break :)</p>"", ""internal_node_id"": ""0.0-2.0"", ""time_elapsed"": 10770, ""key_press"": null, ""trial_index"": 4}"
debugZRQTZD:debugWDCN2P,5,1542175478689,"{""rt"": 2526, ""trial_type"": ""face-likert-amanda"", ""imgName"": ""/static/images/2kfaces/Google_1_Paul Reno_1_oval.jpg"", ""responses"": ""{\""Q0\"":4}"", ""internal_node_id"": ""0.0-3.0-0.0-0.0"", ""time_elapsed"": 13298, ""questions"": ""[{\""prompt\"":\""<p>How willing or unwilling do you think this person is to take risks? Rate from 1-9</p>\"",\""labels\"":[\""1 <br/>(Completely unwilling to take risks)\"",\""2\"",\""3\"",\""4\"",\""5\"",\""6\"",\""7\"",\""8\"",\""9  <br/>(Very willing to take risks)\""],\""required\"":true}]"", ""trial_index"": 5, ""isRepeat"": false}"
debugZRQTZD:debugWDCN2P,6,1542175480694,"{""rt"": null, ""trial_type"": ""html-keyboard-response"", ""stimulus"": ""<p>Good job! Let us take a quick break!</p>"", ""internal_node_id"": ""0.0-3.0-1.0"", ""time_elapsed"": 15303, ""key_press"": null, ""trial_index"": 6}"
debugZRQTZD:debugWDCN2P,7,1542175482541,"{""rt"": 1845, ""trial_type"": ""face-likert-amanda"", ""imgName"": ""/static/images/2kfaces/Google_1_Sara Guajardo_1_oval.jpg"", ""responses"": ""{\""Q0\"":4}"", ""internal_node_id"": ""0.0-4.0-0.0-0.0"", ""time_elapsed"": 17150, ""questions"": ""[{\""prompt\"":\""<p>How willing or unwilling do you think this person is to take risks? Rate from 1-9</p>\"",\""labels\"":[\""1 <br/>(Completely unwilling to take risks)\"",\""2\"",\""3\"",\""4\"",\""5\"",\""6\"",\""7\"",\""8\"",\""9  <br/>(Very willing to take risks)\""],\""required\"":true}]"", ""trial_index"": 7, ""isRepeat"": false}"
debugZRQTZD:debugWDCN2P,8,1542175484543,"{""rt"": null, ""trial_type"": ""html-keyboard-response"", ""stimulus"": ""<p>Good job! Let us take a quick break!</p>"", ""internal_node_id"": ""0.0-4.0-1.0"", ""time_elapsed"": 19152, ""key_press"": null, ""trial_index"": 8}"
debugUCD9GD:debugW9YVL0,0,1542175641743,"{""rt"": 2491, ""trial_type"": ""face-likert-amanda"", ""imgName"": ""/static/images/2kfaces/Google_1_Sara Guajardo_1_oval.jpg"", ""responses"": ""{\""Q0\"":8}"", ""internal_node_id"": ""0.0-0.0-0.0-0.0"", ""time_elapsed"": 2496, ""questions"": ""[{\""prompt\"":\""<p>How willing or unwilling do you think this person is to take risks? Rate from 1-9</p>\"",\""labels\"":[\""1 <br/>(Completely unwilling to take risks)\"",\""2\"",\""3\"",\""4\"",\""5\"",\""6\"",\""7\"",\""8\"",\""9  <br/>(Very willing to take risks)\""],\""required\"":true}]"", ""trial_index"": 0, ""isRepeat"": false}"
debugUCD9GD:debugW9YVL0,1,1542175642499,"{""rt"": null, ""trial_type"": ""html-keyboard-response"", ""stimulus"": ""<p>Good job! Let us take a quick break!</p>"", ""internal_node_id"": ""0.0-0.0-1.0"", ""time_elapsed"": 3252, ""key_press"": null, ""trial_index"": 1}"
debugUCD9GD:debugW9YVL0,2,1542175644179,"{""rt"": 1679, ""trial_type"": ""face-likert-amanda"", ""imgName"": ""/static/images/2kfaces/Google_1_Paul Reno_1_oval.jpg"", ""responses"": ""{\""Q0\"":8}"", ""internal_node_id"": ""0.0-1.0-0.0-0.0"", ""time_elapsed"": 4932, ""questions"": ""[{\""prompt\"":\""<p>How willing or unwilling do you think this person is to take risks? Rate from 1-9</p>\"",\""labels\"":[\""1 <br/>(Completely unwilling to take risks)\"",\""2\"",\""3\"",\""4\"",\""5\"",\""6\"",\""7\"",\""8\"",\""9  <br/>(Very willing to take risks)\""],\""required\"":true}]"", ""trial_index"": 2, ""isRepeat"": false}"
debugUCD9GD:debugW9YVL0,3,1542175646185,"{""rt"": null, ""trial_type"": ""html-keyboard-response"", ""stimulus"": ""<p>Good job! Let us take a quick break!</p>"", ""internal_node_id"": ""0.0-1.0-1.0"", ""time_elapsed"": 6938, ""key_press"": null, ""trial_index"": 3}"
debugUCD9GD:debugW9YVL0,4,1542175648687,"{""rt"": null, ""trial_type"": ""html-keyboard-response"", ""stimulus"": ""<p>Enjoy a longer break :)</p>"", ""internal_node_id"": ""0.0-2.0"", ""time_elapsed"": 9440, ""key_press"": null, ""trial_index"": 4}"
debugUCD9GD:debugW9YVL0,5,1542175650380,"{""rt"": 1693, ""trial_type"": ""face-likert-amanda"", ""imgName"": ""/static/images/2kfaces/Google_1_Paul Reno_1_oval.jpg"", ""responses"": ""{\""Q0\"":8}"", ""internal_node_id"": ""0.0-3.0-0.0-0.0"", ""time_elapsed"": 11133, ""questions"": ""[{\""prompt\"":\""<p>How willing or unwilling do you think this person is to take risks? Rate from 1-9</p>\"",\""labels\"":[\""1 <br/>(Completely unwilling to take risks)\"",\""2\"",\""3\"",\""4\"",\""5\"",\""6\"",\""7\"",\""8\"",\""9  <br/>(Very willing to take risks)\""],\""required\"":true}]"", ""trial_index"": 5, ""isRepeat"": false}"
debugUCD9GD:debugW9YVL0,6,1542175651386,"{""rt"": null, ""trial_type"": ""html-keyboard-response"", ""stimulus"": ""<p>Good job! Let us take a quick break!</p>"", ""internal_node_id"": ""0.0-3.0-1.0"", ""time_elapsed"": 12139, ""key_press"": null, ""trial_index"": 6}"
debugUCD9GD:debugW9YVL0,7,1542175653364,"{""rt"": 1976, ""trial_type"": ""face-likert-amanda"", ""imgName"": ""/static/images/2kfaces/Google_1_Sara Guajardo_1_oval.jpg"", ""responses"": ""{\""Q0\"":8}"", ""internal_node_id"": ""0.0-4.0-0.0-0.0"", ""time_elapsed"": 14117, ""questions"": ""[{\""prompt\"":\""<p>How willing or unwilling do you think this person is to take risks? Rate from 1-9</p>\"",\""labels\"":[\""1 <br/>(Completely unwilling to take risks)\"",\""2\"",\""3\"",\""4\"",\""5\"",\""6\"",\""7\"",\""8\"",\""9  <br/>(Very willing to take risks)\""],\""required\"":true}]"", ""trial_index"": 7, ""isRepeat"": false}"
debugUCD9GD:debugW9YVL0,8,1542175654368,"{""rt"": null, ""trial_type"": ""html-keyboard-response"", ""stimulus"": ""<p>Good job! Let us take a quick break!</p>"", ""internal_node_id"": ""0.0-4.0-1.0"", ""time_elapsed"": 15121, ""key_press"": null, ""trial_index"": 8}"
debug5ZQLTQ:debug9VI6RJ,0,1542175829570,"{""rt"": 2670, ""trial_type"": ""face-likert-amanda"", ""imgName"": ""/static/images/2kfaces/Google_1_Sara Guajardo_1_oval.jpg"", ""responses"": ""{\""Q0\"":0}"", ""internal_node_id"": ""0.0-0.0-0.0-0.0"", ""time_elapsed"": 2674, ""questions"": ""[{\""prompt\"":\""<p>How willing or unwilling do you think this person is to take risks? Rate from 1-9</p>\"",\""labels\"":[\""1 <br/>(Completely unwilling to take risks)\"",\""2\"",\""3\"",\""4\"",\""5\"",\""6\"",\""7\"",\""8\"",\""9  <br/>(Very willing to take risks)\""],\""required\"":true}]"", ""trial_index"": 0, ""isRepeat"": 0}"
debug5ZQLTQ:debug9VI6RJ,1,1542175830578,"{""rt"": null, ""trial_type"": ""html-keyboard-response"", ""stimulus"": ""<p>Good job! Let us take a quick break!</p>"", ""internal_node_id"": ""0.0-0.0-1.0"", ""time_elapsed"": 3683, ""key_press"": null, ""trial_index"": 1}"
debug5ZQLTQ:debug9VI6RJ,2,1542175832754,"{""rt"": 2176, ""trial_type"": ""face-likert-amanda"", ""imgName"": ""/static/images/2kfaces/Google_1_Paul Reno_1_oval.jpg"", ""responses"": ""{\""Q0\"":0}"", ""internal_node_id"": ""0.0-1.0-0.0-0.0"", ""time_elapsed"": 5859, ""questions"": ""[{\""prompt\"":\""<p>How willing or unwilling do you think this person is to take risks? Rate from 1-9</p>\"",\""labels\"":[\""1 <br/>(Completely unwilling to take risks)\"",\""2\"",\""3\"",\""4\"",\""5\"",\""6\"",\""7\"",\""8\"",\""9  <br/>(Very willing to take risks)\""],\""required\"":true}]"", ""trial_index"": 2, ""isRepeat"": 0}"
debug5ZQLTQ:debug9VI6RJ,3,1542175834757,"{""rt"": null, ""trial_type"": ""html-keyboard-response"", ""stimulus"": ""<p>Good job! Let us take a quick break!</p>"", ""internal_node_id"": ""0.0-1.0-1.0"", ""time_elapsed"": 7861, ""key_press"": null, ""trial_index"": 3}"
debug5ZQLTQ:debug9VI6RJ,4,1542175837258,"{""rt"": null, ""trial_type"": ""html-keyboard-response"", ""stimulus"": ""<p>Enjoy a longer break :)</p>"", ""internal_node_id"": ""0.0-2.0"", ""time_elapsed"": 10363, ""key_press"": null, ""trial_index"": 4}"
debug5ZQLTQ:debug9VI6RJ,5,1542175839267,"{""rt"": 2007, ""trial_type"": ""face-likert-amanda"", ""imgName"": ""/static/images/2kfaces/Google_1_Sara Guajardo_1_oval.jpg"", ""responses"": ""{\""Q0\"":0}"", ""internal_node_id"": ""0.0-3.0-0.0-0.0"", ""time_elapsed"": 12372, ""questions"": ""[{\""prompt\"":\""<p>How willing or unwilling do you think this person is to take risks? Rate from 1-9</p>\"",\""labels\"":[\""1 <br/>(Completely unwilling to take risks)\"",\""2\"",\""3\"",\""4\"",\""5\"",\""6\"",\""7\"",\""8\"",\""9  <br/>(Very willing to take risks)\""],\""required\"":true}]"", ""trial_index"": 5, ""isRepeat"": 1}"
debug5ZQLTQ:debug9VI6RJ,6,1542175840022,"{""rt"": null, ""trial_type"": ""html-keyboard-response"", ""stimulus"": ""<p>Good job! Let us take a quick break!</p>"", ""internal_node_id"": ""0.0-3.0-1.0"", ""time_elapsed"": 13127, ""key_press"": null, ""trial_index"": 6}"
debug5ZQLTQ:debug9VI6RJ,7,1542175841925,"{""rt"": 1902, ""trial_type"": ""face-likert-amanda"", ""imgName"": ""/static/images/2kfaces/Google_1_Paul Reno_1_oval.jpg"", ""responses"": ""{\""Q0\"":0}"", ""internal_node_id"": ""0.0-4.0-0.0-0.0"", ""time_elapsed"": 15030, ""questions"": ""[{\""prompt\"":\""<p>How willing or unwilling do you think this person is to take risks? Rate from 1-9</p>\"",\""labels\"":[\""1 <br/>(Completely unwilling to take risks)\"",\""2\"",\""3\"",\""4\"",\""5\"",\""6\"",\""7\"",\""8\"",\""9  <br/>(Very willing to take risks)\""],\""required\"":true}]"", ""trial_index"": 7, ""isRepeat"": 1}"
debug5ZQLTQ:debug9VI6RJ,8,1542175842929,"{""rt"": null, ""trial_type"": ""html-keyboard-response"", ""stimulus"": ""<p>Good job! Let us take a quick break!</p>"", ""internal_node_id"": ""0.0-4.0-1.0"", ""time_elapsed"": 16034, ""key_press"": null, ""trial_index"": 8}"
