debugC9Q0J2:debugRW0BVN,0,1540317457046,"{""rt"": 3138, ""trial_type"": ""instructions"", ""view_history"": ""[{\""page_index\"":0,\""viewing_time\"":3138}]"", ""internal_node_id"": ""0.0-0.0"", ""time_elapsed"": 3141, ""trial_index"": 0}"
debugC9Q0J2:debugRW0BVN,1,1540317468282,"{""rt"": 11233, ""trial_type"": ""face-prisdil-continuous"", ""responses"": ""{\""slider_value\"":\""62\""}"", ""internal_node_id"": ""0.0-1.0"", ""time_elapsed"": 14378, ""questions"": ""[{\""prompt\"":\""You can see the other person&#8217;s picture, but they cannot see yours. SPECIFY QUESTION HERE:\"",\""options\"":[\""Play A\"",\""Play B\""],\""required\"":true,\""horizontal\"":false}]"", ""trial_index"": 1}"
debugC9Q0J2:debugRW0BVN,2,1540317473819,"{""rt"": 5534, ""trial_type"": ""face-multi-choice"", ""responses"": ""{\""Q0\"":\""Play A\""}"", ""internal_node_id"": ""0.0-2.0"", ""time_elapsed"": 19915, ""questions"": ""[{\""prompt\"":\""Would you:\"",\""options\"":[\""Play A\"",\""Play B\""],\""required\"":true,\""horizontal\"":false}]"", ""trial_index"": 2}"
debugC9Q0J2:debugRW0BVN,3,1540317476192,"{""rt"": 2370, ""trial_type"": ""face-likert"", ""responses"": ""{\""Q0\"":8}"", ""internal_node_id"": ""0.0-3.0"", ""time_elapsed"": 22288, ""questions"": ""[{\""prompt\"":\""How willing or unwilling do you think this person is to take risks?\"",\""labels\"":[\""0 (Completely unwilling to take risks)\"",\""1\"",\""2\"",\""3\"",\""4\"",\""5\"",\""6\"",\""7\"",\""8\"",\""9\"",\""10 (Very willing to take risks)\""],\""required\"":true}]"", ""trial_index"": 3}"
debugC9Q0J2:debugRW0BVN,4,1540317482323,"{""rt"": 6131, ""trial_type"": ""face-likert"", ""responses"": ""{\""Q0\"":7}"", ""internal_node_id"": ""0.0-4.0"", ""time_elapsed"": 28419, ""questions"": ""[{\""prompt\"":\""How willing do you think this person is to give up something that is beneficial for them today in order to benefit more in the future?\"",\""labels\"":[\""0 (Completely unwilling to do so)\"",\""1\"",\""2\"",\""3\"",\""4\"",\""5\"",\""6\"",\""7\"",\""8\"",\""9\"",\""10 (Very willing to do so)\""],\""required\"":true}]"", ""trial_index"": 4}"
debugC9Q0J2:debugRW0BVN,5,1540317485700,"{""rt"": 3376, ""trial_type"": ""face-likert"", ""responses"": ""{\""Q0\"":2}"", ""internal_node_id"": ""0.0-5.0"", ""time_elapsed"": 31796, ""questions"": ""[{\""prompt\"":\""How willing do you think this person is to give to good causes without expecting anything in return?\"",\""labels\"":[\""0 (Completely unwilling to do so)\"",\""1\"",\""2\"",\""3\"",\""4\"",\""5\"",\""6\"",\""7\"",\""8\"",\""9\"",\""10 (Very willing to do so)\""],\""required\"":true}]"", ""trial_index"": 5}"
debugC9Q0J2:debugRW0BVN,6,1540317487774,"{""rt"": 2073, ""trial_type"": ""face-likert"", ""responses"": ""{\""Q0\"":7}"", ""internal_node_id"": ""0.0-6.0"", ""time_elapsed"": 33870, ""questions"": ""[{\""prompt\"":\""<i>Please tell us how well you think the following statement describes this person:</i> they assume that people have only the best intentions.\"",\""labels\"":[\""0 (Does not describe them at all)\"",\""1\"",\""2\"",\""3\"",\""4\"",\""5\"",\""6\"",\""7\"",\""8\"",\""9\"",\""10 (Describes them perfectly)\""],\""required\"":true}]"", ""trial_index"": 6}"
debugC9Q0J2:debugRW0BVN,7,1540317490406,"{""rt"": 2630, ""trial_type"": ""face-likert"", ""responses"": ""{\""Q0\"":7}"", ""internal_node_id"": ""0.0-7.0"", ""time_elapsed"": 36502, ""questions"": ""[{\""prompt\"":\""How willing do you think this person is to punish someone who treats <b>them</b> unfairly, even if there may be costs to themselves?\"",\""labels\"":[\""0 (Completely unwilling to do so)\"",\""1\"",\""2\"",\""3\"",\""4\"",\""5\"",\""6\"",\""7\"",\""8\"",\""9\"",\""10 (Very willing to do so)\""],\""required\"":true}]"", ""trial_index"": 7}"
debugC9Q0J2:debugRW0BVN,8,1540317493621,"{""rt"": 3215, ""trial_type"": ""face-likert"", ""responses"": ""{\""Q0\"":8}"", ""internal_node_id"": ""0.0-8.0"", ""time_elapsed"": 39717, ""questions"": ""[{\""prompt\"":\""<i>Please tell us how well you think the following statement describes this person:</i> when someone does them a favor they are willing to return it.\"",\""labels\"":[\""0 (Does not describe them at all)\"",\""1\"",\""2\"",\""3\"",\""4\"",\""5\"",\""6\"",\""7\"",\""8\"",\""9\"",\""10 (Describes them perfectly)\""],\""required\"":true}]"", ""trial_index"": 8}"
debugC9Q0J2:debugRW0BVN,9,1540317498584,"{""rt"": 4961, ""trial_type"": ""face-likert"", ""responses"": ""{\""Q0\"":6}"", ""internal_node_id"": ""0.0-9.0"", ""time_elapsed"": 44680, ""questions"": ""[{\""prompt\"":\""How attractive (i.e., appealing to the senses through beauty, form, character, etc) is this person?\"",\""labels\"":[\""1 (not at all)\"",\""2\"",\""3\"",\""4\"",\""5\"",\""6\"",\""7\"",\""8\"",\""9 (very)\""],\""required\"":true}]"", ""trial_index"": 9}"
debugC9Q0J2:debugRW0BVN,10,1540317538020,"{""rt"": 39433, ""trial_type"": ""face-prisdil-continuous"", ""responses"": ""{\""slider_value\"":\""63\""}"", ""internal_node_id"": ""0.0-10.0"", ""time_elapsed"": 84116, ""questions"": ""[{\""prompt\"":\""You can see the other person&#8217;s picture, but they cannot see yours. SPECIFY QUESTION HERE:\"",\""options\"":[\""Play A\"",\""Play B\""],\""required\"":true,\""horizontal\"":false}]"", ""trial_index"": 10}"
debugC9Q0J2:debugRW0BVN,11,1540317543024,"{""rt"": 5002, ""trial_type"": ""face-multi-choice"", ""responses"": ""{\""Q0\"":\""Play A\""}"", ""internal_node_id"": ""0.0-11.0"", ""time_elapsed"": 89120, ""questions"": ""[{\""prompt\"":\""Would you:\"",\""options\"":[\""Play A\"",\""Play B\""],\""required\"":true,\""horizontal\"":false}]"", ""trial_index"": 11}"
debugC9Q0J2:debugRW0BVN,12,1540317547823,"{""rt"": 4796, ""trial_type"": ""face-likert"", ""responses"": ""{\""Q0\"":7}"", ""internal_node_id"": ""0.0-12.0"", ""time_elapsed"": 93919, ""questions"": ""[{\""prompt\"":\""How willing or unwilling do you think this person is to take risks?\"",\""labels\"":[\""0 (Completely unwilling to take risks)\"",\""1\"",\""2\"",\""3\"",\""4\"",\""5\"",\""6\"",\""7\"",\""8\"",\""9\"",\""10 (Very willing to take risks)\""],\""required\"":true}]"", ""trial_index"": 12}"
debugC9Q0J2:debugRW0BVN,13,1540317554950,"{""rt"": 7127, ""trial_type"": ""face-likert"", ""responses"": ""{\""Q0\"":3}"", ""internal_node_id"": ""0.0-13.0"", ""time_elapsed"": 101046, ""questions"": ""[{\""prompt\"":\""How willing do you think this person is to give up something that is beneficial for them today in order to benefit more in the future?\"",\""labels\"":[\""0 (Completely unwilling to do so)\"",\""1\"",\""2\"",\""3\"",\""4\"",\""5\"",\""6\"",\""7\"",\""8\"",\""9\"",\""10 (Very willing to do so)\""],\""required\"":true}]"", ""trial_index"": 13}"
debugC9Q0J2:debugRW0BVN,14,1540317560847,"{""rt"": 5895, ""trial_type"": ""face-likert"", ""responses"": ""{\""Q0\"":8}"", ""internal_node_id"": ""0.0-14.0"", ""time_elapsed"": 106943, ""questions"": ""[{\""prompt\"":\""How willing do you think this person is to give to good causes without expecting anything in return?\"",\""labels\"":[\""0 (Completely unwilling to do so)\"",\""1\"",\""2\"",\""3\"",\""4\"",\""5\"",\""6\"",\""7\"",\""8\"",\""9\"",\""10 (Very willing to do so)\""],\""required\"":true}]"", ""trial_index"": 14}"
debugC9Q0J2:debugRW0BVN,15,1540317566126,"{""rt"": 5277, ""trial_type"": ""face-likert"", ""responses"": ""{\""Q0\"":8}"", ""internal_node_id"": ""0.0-15.0"", ""time_elapsed"": 112222, ""questions"": ""[{\""prompt\"":\""<i>Please tell us how well you think the following statement describes this person:</i> they assume that people have only the best intentions.\"",\""labels\"":[\""0 (Does not describe them at all)\"",\""1\"",\""2\"",\""3\"",\""4\"",\""5\"",\""6\"",\""7\"",\""8\"",\""9\"",\""10 (Describes them perfectly)\""],\""required\"":true}]"", ""trial_index"": 15}"
debugC9Q0J2:debugRW0BVN,16,1540317570348,"{""rt"": 4221, ""trial_type"": ""face-likert"", ""responses"": ""{\""Q0\"":8}"", ""internal_node_id"": ""0.0-16.0"", ""time_elapsed"": 116444, ""questions"": ""[{\""prompt\"":\""How willing do you think this person is to punish someone who treats <b>them</b> unfairly, even if there may be costs to themselves?\"",\""labels\"":[\""0 (Completely unwilling to do so)\"",\""1\"",\""2\"",\""3\"",\""4\"",\""5\"",\""6\"",\""7\"",\""8\"",\""9\"",\""10 (Very willing to do so)\""],\""required\"":true}]"", ""trial_index"": 16}"
debugC9Q0J2:debugRW0BVN,17,1540317582279,"{""rt"": 11928, ""trial_type"": ""face-likert"", ""responses"": ""{\""Q0\"":7}"", ""internal_node_id"": ""0.0-17.0"", ""time_elapsed"": 128375, ""questions"": ""[{\""prompt\"":\""<i>Please tell us how well you think the following statement describes this person:</i> when someone does them a favor they are willing to return it.\"",\""labels\"":[\""0 (Does not describe them at all)\"",\""1\"",\""2\"",\""3\"",\""4\"",\""5\"",\""6\"",\""7\"",\""8\"",\""9\"",\""10 (Describes them perfectly)\""],\""required\"":true}]"", ""trial_index"": 17}"
debugC9Q0J2:debugRW0BVN,18,1540317586348,"{""rt"": 4069, ""trial_type"": ""face-likert"", ""responses"": ""{\""Q0\"":6}"", ""internal_node_id"": ""0.0-18.0"", ""time_elapsed"": 132444, ""questions"": ""[{\""prompt\"":\""How attractive (i.e., appealing to the senses through beauty, form, character, etc) is this person?\"",\""labels\"":[\""1 (not at all)\"",\""2\"",\""3\"",\""4\"",\""5\"",\""6\"",\""7\"",\""8\"",\""9 (very)\""],\""required\"":true}]"", ""trial_index"": 18}"
debugG056JE:debugCOYUIT,0,1541028825405,"{""rt"": 23955, ""trial_type"": ""instructions"", ""view_history"": ""[{\""page_index\"":0,\""viewing_time\"":23954}]"", ""internal_node_id"": ""0.0-0.0"", ""time_elapsed"": 23958, ""trial_index"": 0}"
debugG056JE:debugCOYUIT,1,1541028826782,"{""rt"": 1377, ""trial_type"": ""instructions"", ""view_history"": ""[{\""page_index\"":0,\""viewing_time\"":1377}]"", ""internal_node_id"": ""0.0-1.0"", ""time_elapsed"": 25335, ""trial_index"": 1}"
debugG056JE:debugCOYUIT,2,1541028837070,"{""rt"": 10284, ""trial_type"": ""face-multi-choice"", ""responses"": ""{\""Q0\"":\""Play B\""}"", ""internal_node_id"": ""0.0-2.0"", ""time_elapsed"": 35623, ""questions"": ""[{\""prompt\"":\""What do you think the other person will choose?\"",\""labels\"":[\""I think he/she will definitely choose A\"",\""2\"",\""3\"",\""4\"",\""5\"",\""6\"",\""7\"",\""8\"",\""9 (very)\"",\""I think he/she will definitely choose B\""],\""options\"":[\""Play A\"",\""Play B\""],\""required\"":true,\""horizontal\"":false}]"", ""trial_index"": 2}"
debugG056JE:debugCOYUIT,3,1541028840752,"{""rt"": 3681, ""trial_type"": ""face-multi-choice"", ""responses"": ""{\""Q0\"":\""Play A\""}"", ""internal_node_id"": ""0.0-3.0"", ""time_elapsed"": 39305, ""questions"": ""[{\""prompt\"":\""What do you think the other person will choose?\"",\""labels\"":[\""I think he/she will definitely choose A\"",\""2\"",\""3\"",\""4\"",\""5\"",\""6\"",\""7\"",\""8\"",\""9 (very)\"",\""I think he/she will definitely choose B\""],\""options\"":[\""Play A\"",\""Play B\""],\""required\"":true,\""horizontal\"":false}]"", ""trial_index"": 3}"
debugG056JE:debugCOYUIT,4,1541028843396,"{""rt"": 2639, ""trial_type"": ""face-prisdil-continuous"", ""responses"": ""{\""slider_value\"":\""50\""}"", ""internal_node_id"": ""0.0-4.0"", ""time_elapsed"": 41949, ""questions"": ""[{\""prompt\"":\""You can see the other person&#8217;s picture, but they cannot see yours. SPECIFY QUESTION HERE:\"",\""options\"":[\""Play A\"",\""Play B\""],\""required\"":true,\""horizontal\"":false}]"", ""trial_index"": 4}"
debugG056JE:debugCOYUIT,5,1541028845963,"{""rt"": 2565, ""trial_type"": ""face-multi-choice"", ""responses"": ""{\""Q0\"":\""Play B\""}"", ""internal_node_id"": ""0.0-5.0"", ""time_elapsed"": 44516, ""questions"": ""[{\""prompt\"":\""Would you:\"",\""options\"":[\""Play A\"",\""Play B\""],\""required\"":true,\""horizontal\"":false}]"", ""trial_index"": 5}"
debugG056JE:debugCOYUIT,6,1541028848408,"{""rt"": 2442, ""trial_type"": ""face-likert"", ""responses"": ""{\""Q0\"":7}"", ""internal_node_id"": ""0.0-6.0"", ""time_elapsed"": 46961, ""questions"": ""[{\""prompt\"":\""How willing or unwilling do you think this person is to take risks?\"",\""labels\"":[\""0 (Completely unwilling to take risks)\"",\""1\"",\""2\"",\""3\"",\""4\"",\""5\"",\""6\"",\""7\"",\""8\"",\""9\"",\""10 (Very willing to take risks)\""],\""required\"":true}]"", ""trial_index"": 6}"
debugG056JE:debugCOYUIT,7,1541028850090,"{""rt"": 1680, ""trial_type"": ""face-likert"", ""responses"": ""{\""Q0\"":6}"", ""internal_node_id"": ""0.0-7.0"", ""time_elapsed"": 48642, ""questions"": ""[{\""prompt\"":\""How willing do you think this person is to give up something that is beneficial for them today in order to benefit more in the future?\"",\""labels\"":[\""0 (Completely unwilling to do so)\"",\""1\"",\""2\"",\""3\"",\""4\"",\""5\"",\""6\"",\""7\"",\""8\"",\""9\"",\""10 (Very willing to do so)\""],\""required\"":true}]"", ""trial_index"": 7}"
debugG056JE:debugCOYUIT,8,1541028851733,"{""rt"": 1642, ""trial_type"": ""face-likert"", ""responses"": ""{\""Q0\"":4}"", ""internal_node_id"": ""0.0-8.0"", ""time_elapsed"": 50286, ""questions"": ""[{\""prompt\"":\""How willing do you think this person is to give to good causes without expecting anything in return?\"",\""labels\"":[\""0 (Completely unwilling to do so)\"",\""1\"",\""2\"",\""3\"",\""4\"",\""5\"",\""6\"",\""7\"",\""8\"",\""9\"",\""10 (Very willing to do so)\""],\""required\"":true}]"", ""trial_index"": 8}"
debugG056JE:debugCOYUIT,9,1541028857786,"{""rt"": 6051, ""trial_type"": ""face-likert"", ""responses"": ""{\""Q0\"":2}"", ""internal_node_id"": ""0.0-9.0"", ""time_elapsed"": 56339, ""questions"": ""[{\""prompt\"":\""<i>Please tell us how well you think the following statement describes this person:</i> they assume that people have only the best intentions.\"",\""labels\"":[\""0 (Does not describe them at all)\"",\""1\"",\""2\"",\""3\"",\""4\"",\""5\"",\""6\"",\""7\"",\""8\"",\""9\"",\""10 (Describes them perfectly)\""],\""required\"":true}]"", ""trial_index"": 9}"
debugG056JE:debugCOYUIT,10,1541028861462,"{""rt"": 3675, ""trial_type"": ""face-likert"", ""responses"": ""{\""Q0\"":8}"", ""internal_node_id"": ""0.0-10.0"", ""time_elapsed"": 60015, ""questions"": ""[{\""prompt\"":\""How willing do you think this person is to punish someone who treats <b>them</b> unfairly, even if there may be costs to themselves?\"",\""labels\"":[\""0 (Completely unwilling to do so)\"",\""1\"",\""2\"",\""3\"",\""4\"",\""5\"",\""6\"",\""7\"",\""8\"",\""9\"",\""10 (Very willing to do so)\""],\""required\"":true}]"", ""trial_index"": 10}"
debugG056JE:debugCOYUIT,11,1541028863329,"{""rt"": 1864, ""trial_type"": ""face-likert"", ""responses"": ""{\""Q0\"":5}"", ""internal_node_id"": ""0.0-11.0"", ""time_elapsed"": 61882, ""questions"": ""[{\""prompt\"":\""<i>Please tell us how well you think the following statement describes this person:</i> when someone does them a favor they are willing to return it.\"",\""labels\"":[\""0 (Does not describe them at all)\"",\""1\"",\""2\"",\""3\"",\""4\"",\""5\"",\""6\"",\""7\"",\""8\"",\""9\"",\""10 (Describes them perfectly)\""],\""required\"":true}]"", ""trial_index"": 11}"
debugG056JE:debugCOYUIT,12,1541028865101,"{""rt"": 1770, ""trial_type"": ""face-likert"", ""responses"": ""{\""Q0\"":2}"", ""internal_node_id"": ""0.0-12.0"", ""time_elapsed"": 63654, ""questions"": ""[{\""prompt\"":\""How attractive (i.e., appealing to the senses through beauty, form, character, etc) is this person?\"",\""labels\"":[\""1 (not at all)\"",\""2\"",\""3\"",\""4\"",\""5\"",\""6\"",\""7\"",\""8\"",\""9 (very)\""],\""required\"":true}]"", ""trial_index"": 12}"
debugG056JE:debugCOYUIT,13,1541028871698,"{""rt"": 6594, ""trial_type"": ""face-prisdil-continuous"", ""responses"": ""{\""slider_value\"":\""50\""}"", ""internal_node_id"": ""0.0-13.0"", ""time_elapsed"": 70251, ""questions"": ""[{\""prompt\"":\""You can see the other person&#8217;s picture, but they cannot see yours. SPECIFY QUESTION HERE:\"",\""options\"":[\""Play A\"",\""Play B\""],\""required\"":true,\""horizontal\"":false}]"", ""trial_index"": 13}"
debugG056JE:debugCOYUIT,14,1541028873829,"{""rt"": 2130, ""trial_type"": ""face-multi-choice"", ""responses"": ""{\""Q0\"":\""Play B\""}"", ""internal_node_id"": ""0.0-14.0"", ""time_elapsed"": 72382, ""questions"": ""[{\""prompt\"":\""Would you:\"",\""options\"":[\""Play A\"",\""Play B\""],\""required\"":true,\""horizontal\"":false}]"", ""trial_index"": 14}"
debugG056JE:debugCOYUIT,15,1541028880194,"{""rt"": 6363, ""trial_type"": ""face-likert"", ""responses"": ""{\""Q0\"":7}"", ""internal_node_id"": ""0.0-15.0"", ""time_elapsed"": 78747, ""questions"": ""[{\""prompt\"":\""How willing or unwilling do you think this person is to take risks?\"",\""labels\"":[\""0 (Completely unwilling to take risks)\"",\""1\"",\""2\"",\""3\"",\""4\"",\""5\"",\""6\"",\""7\"",\""8\"",\""9\"",\""10 (Very willing to take risks)\""],\""required\"":true}]"", ""trial_index"": 15}"
debugG056JE:debugCOYUIT,16,1541028882849,"{""rt"": 2655, ""trial_type"": ""face-likert"", ""responses"": ""{\""Q0\"":2}"", ""internal_node_id"": ""0.0-16.0"", ""time_elapsed"": 81402, ""questions"": ""[{\""prompt\"":\""How willing do you think this person is to give up something that is beneficial for them today in order to benefit more in the future?\"",\""labels\"":[\""0 (Completely unwilling to do so)\"",\""1\"",\""2\"",\""3\"",\""4\"",\""5\"",\""6\"",\""7\"",\""8\"",\""9\"",\""10 (Very willing to do so)\""],\""required\"":true}]"", ""trial_index"": 16}"
debugG056JE:debugCOYUIT,17,1541028885134,"{""rt"": 2283, ""trial_type"": ""face-likert"", ""responses"": ""{\""Q0\"":7}"", ""internal_node_id"": ""0.0-17.0"", ""time_elapsed"": 83687, ""questions"": ""[{\""prompt\"":\""How willing do you think this person is to give to good causes without expecting anything in return?\"",\""labels\"":[\""0 (Completely unwilling to do so)\"",\""1\"",\""2\"",\""3\"",\""4\"",\""5\"",\""6\"",\""7\"",\""8\"",\""9\"",\""10 (Very willing to do so)\""],\""required\"":true}]"", ""trial_index"": 17}"
debugG056JE:debugCOYUIT,18,1541028886806,"{""rt"": 1671, ""trial_type"": ""face-likert"", ""responses"": ""{\""Q0\"":4}"", ""internal_node_id"": ""0.0-18.0"", ""time_elapsed"": 85359, ""questions"": ""[{\""prompt\"":\""<i>Please tell us how well you think the following statement describes this person:</i> they assume that people have only the best intentions.\"",\""labels\"":[\""0 (Does not describe them at all)\"",\""1\"",\""2\"",\""3\"",\""4\"",\""5\"",\""6\"",\""7\"",\""8\"",\""9\"",\""10 (Describes them perfectly)\""],\""required\"":true}]"", ""trial_index"": 18}"
debugG056JE:debugCOYUIT,19,1541028888235,"{""rt"": 1428, ""trial_type"": ""face-likert"", ""responses"": ""{\""Q0\"":5}"", ""internal_node_id"": ""0.0-19.0"", ""time_elapsed"": 86788, ""questions"": ""[{\""prompt\"":\""How willing do you think this person is to punish someone who treats <b>them</b> unfairly, even if there may be costs to themselves?\"",\""labels\"":[\""0 (Completely unwilling to do so)\"",\""1\"",\""2\"",\""3\"",\""4\"",\""5\"",\""6\"",\""7\"",\""8\"",\""9\"",\""10 (Very willing to do so)\""],\""required\"":true}]"", ""trial_index"": 19}"
debugG056JE:debugCOYUIT,20,1541028890271,"{""rt"": 2035, ""trial_type"": ""face-likert"", ""responses"": ""{\""Q0\"":5}"", ""internal_node_id"": ""0.0-20.0"", ""time_elapsed"": 88824, ""questions"": ""[{\""prompt\"":\""<i>Please tell us how well you think the following statement describes this person:</i> when someone does them a favor they are willing to return it.\"",\""labels\"":[\""0 (Does not describe them at all)\"",\""1\"",\""2\"",\""3\"",\""4\"",\""5\"",\""6\"",\""7\"",\""8\"",\""9\"",\""10 (Describes them perfectly)\""],\""required\"":true}]"", ""trial_index"": 20}"
debugG056JE:debugCOYUIT,21,1541028893289,"{""rt"": 3016, ""trial_type"": ""face-likert"", ""responses"": ""{\""Q0\"":2}"", ""internal_node_id"": ""0.0-21.0"", ""time_elapsed"": 91842, ""questions"": ""[{\""prompt\"":\""How attractive (i.e., appealing to the senses through beauty, form, character, etc) is this person?\"",\""labels\"":[\""1 (not at all)\"",\""2\"",\""3\"",\""4\"",\""5\"",\""6\"",\""7\"",\""8\"",\""9 (very)\""],\""required\"":true}]"", ""trial_index"": 21}"
debugO5S0SO:debugFENK7R,0,1541204587213,"{""rt"": 3541, ""trial_type"": ""face-likert"", ""responses"": ""{\""Q0\"":8}"", ""internal_node_id"": ""0.0-0.0"", ""time_elapsed"": 3544, ""questions"": ""[{\""prompt\"":\""How willing or unwilling do you think this person is to take risks?\"",\""labels\"":[\""0 (Completely unwilling to take risks)\"",\""1\"",\""2\"",\""3\"",\""4\"",\""5\"",\""6\"",\""7\"",\""8\"",\""9\"",\""10 (Very willing to take risks)\""],\""required\"":true}]"", ""trial_index"": 0}"
debugO5S0SO:debugFENK7R,1,1541204597052,"{""rt"": 9837, ""trial_type"": ""face-likert"", ""responses"": ""{\""Q0\"":7}"", ""internal_node_id"": ""0.0-1.0"", ""time_elapsed"": 13383, ""questions"": ""[{\""prompt\"":\""How willing or unwilling do you think this person is to take risks?\"",\""labels\"":[\""0 (Completely unwilling to take risks)\"",\""1\"",\""2\"",\""3\"",\""4\"",\""5\"",\""6\"",\""7\"",\""8\"",\""9\"",\""10 (Very willing to take risks)\""],\""required\"":true}]"", ""trial_index"": 1}"
debugAPDDQI:debugU8E81D,0,1541465183739,"{""rt"": 16593, ""trial_type"": ""instructions"", ""view_history"": ""[{\""page_index\"":0,\""viewing_time\"":16592}]"", ""internal_node_id"": ""0.0-0.0"", ""time_elapsed"": 16594, ""trial_index"": 0}"
debugAPDDQI:debugU8E81D,1,1541465248372,"{""rt"": 64625, ""trial_type"": ""survey-multi-choice"", ""responses"": ""{\""Q0\"":\""26-35\"",\""Q1\"":\""Female\"",\""Q2\"":\""Asian\"",\""Q3\"":\""Master&#8217;s degree\"",\""Q4\"":\""4\""}"", ""internal_node_id"": ""0.0-1.0"", ""time_elapsed"": 81228, ""questions"": ""[{\""prompt\"":\""What is your age?\"",\""options\"":[\""Under 18\"",\""18-25\"",\""26-35\"",\""36-45\"",\""Over 46\""],\""required\"":true},{\""prompt\"":\""What is your gender?\"",\""options\"":[\""Male\"",\""Female\"",\""Non-Binary\""],\""required\"":true},{\""prompt\"":\""What is your ethnicity?\"",\""options\"":[\""Asian\"",\""Black\"",\"" Hispanic\"",\""White\"",\""Other\""],\""required\"":true},{\""prompt\"":\""What is the highest level of education you have achieved?\"",\""options\"":[\""No schooling completed\"",\""Nursery school to 8th grade\"",\""Some high school or GED\"",\""Associate degree\"",\""Bachelor&#8217;s degree\"",\""Master&#8217;s degree\"",\""Professional degree\"",\""Doctorate degree\""],\""required\"":true},{\""prompt\"":\""Please select the following number: 4\"",\""options\"":[\""1\"",\""2\"",\""3\"",\""4\"",\""5\""],\""required\"":true}]"", ""trial_index"": 1}"
debugAPDDQI:debugU8E81D,2,1541465316380,"{""rt"": 68006, ""trial_type"": ""face-likert"", ""imgName"": ""EmptyFace.jpg"", ""isRepeat"": false, ""isRandom"": false, ""time_elapsed"": 149236, ""questions"": ""[{\""prompt\"":\""How willing or unwilling do you think this person is to take risks?\"",\""labels\"":[\""0 (Completely unwilling to take risks)\"",\""1\"",\""2\"",\""3\"",\""4\"",\""5\"",\""6\"",\""7\"",\""8\"",\""9\"",\""10 (Very willing to take risks)\""],\""required\"":true}]"", ""internal_node_id"": ""0.0-2.0"", ""trial_index"": 2, ""responses"": ""{\""Q0\"":5}""}"
debugAPDDQI:debugU8E81D,3,1541465327554,"{""rt"": 11172, ""trial_type"": ""face-likert"", ""imgName"": ""Google_1_Craig Carroll_5_oval.jpg"", ""isRepeat"": false, ""isRandom"": true, ""time_elapsed"": 160410, ""questions"": ""[{\""prompt\"":\""How willing or unwilling do you think this person is to take risks?\"",\""labels\"":[\""0 (Completely unwilling to take risks)\"",\""1\"",\""2\"",\""3\"",\""4\"",\""5\"",\""6\"",\""7\"",\""8\"",\""9\"",\""10 (Very willing to take risks)\""],\""required\"":true}]"", ""internal_node_id"": ""0.0-3.0"", ""trial_index"": 3, ""responses"": ""{\""Q0\"":4}""}"
debugAPDDQI:debugU8E81D,4,1541465330631,"{""rt"": 3075, ""trial_type"": ""face-likert"", ""imgName"": ""Google_1_Kevin Pegram_3_oval.jpg"", ""isRepeat"": false, ""isRandom"": true, ""time_elapsed"": 163487, ""questions"": ""[{\""prompt\"":\""How willing or unwilling do you think this person is to take risks?\"",\""labels\"":[\""0 (Completely unwilling to take risks)\"",\""1\"",\""2\"",\""3\"",\""4\"",\""5\"",\""6\"",\""7\"",\""8\"",\""9\"",\""10 (Very willing to take risks)\""],\""required\"":true}]"", ""internal_node_id"": ""0.0-4.0"", ""trial_index"": 4, ""responses"": ""{\""Q0\"":6}""}"
debugAPDDQI:debugU8E81D,5,1541465333923,"{""rt"": 3292, ""trial_type"": ""face-likert"", ""imgName"": ""Google_1_Shelly Samaniego_1_oval.jpg"", ""isRepeat"": false, ""isRandom"": true, ""time_elapsed"": 166779, ""questions"": ""[{\""prompt\"":\""How willing or unwilling do you think this person is to take risks?\"",\""labels\"":[\""0 (Completely unwilling to take risks)\"",\""1\"",\""2\"",\""3\"",\""4\"",\""5\"",\""6\"",\""7\"",\""8\"",\""9\"",\""10 (Very willing to take risks)\""],\""required\"":true}]"", ""internal_node_id"": ""0.0-5.0"", ""trial_index"": 5, ""responses"": ""{\""Q0\"":7}""}"
debugAPDDQI:debugU8E81D,6,1541465336953,"{""rt"": 3028, ""trial_type"": ""face-likert"", ""imgName"": ""Google_1_April Seaton_5_oval.jpg"", ""isRepeat"": false, ""isRandom"": true, ""time_elapsed"": 169809, ""questions"": ""[{\""prompt\"":\""How willing or unwilling do you think this person is to take risks?\"",\""labels\"":[\""0 (Completely unwilling to take risks)\"",\""1\"",\""2\"",\""3\"",\""4\"",\""5\"",\""6\"",\""7\"",\""8\"",\""9\"",\""10 (Very willing to take risks)\""],\""required\"":true}]"", ""internal_node_id"": ""0.0-6.0"", ""trial_index"": 6, ""responses"": ""{\""Q0\"":7}""}"
debugAPDDQI:debugU8E81D,7,1541465340780,"{""rt"": 3825, ""trial_type"": ""face-likert"", ""imgName"": ""Google_1_Eunice Johnston_7_oval.jpg"", ""isRepeat"": false, ""isRandom"": true, ""time_elapsed"": 173636, ""questions"": ""[{\""prompt\"":\""How willing or unwilling do you think this person is to take risks?\"",\""labels\"":[\""0 (Completely unwilling to take risks)\"",\""1\"",\""2\"",\""3\"",\""4\"",\""5\"",\""6\"",\""7\"",\""8\"",\""9\"",\""10 (Very willing to take risks)\""],\""required\"":true}]"", ""internal_node_id"": ""0.0-7.0"", ""trial_index"": 7, ""responses"": ""{\""Q0\"":7}""}"
debugAPDDQI:debugU8E81D,8,1541465344450,"{""rt"": 3669, ""trial_type"": ""face-likert"", ""imgName"": ""Google_1_Steve Streeter_19_oval.jpg"", ""isRepeat"": false, ""isRandom"": true, ""time_elapsed"": 177306, ""questions"": ""[{\""prompt\"":\""How willing or unwilling do you think this person is to take risks?\"",\""labels\"":[\""0 (Completely unwilling to take risks)\"",\""1\"",\""2\"",\""3\"",\""4\"",\""5\"",\""6\"",\""7\"",\""8\"",\""9\"",\""10 (Very willing to take risks)\""],\""required\"":true}]"", ""internal_node_id"": ""0.0-8.0"", ""trial_index"": 8, ""responses"": ""{\""Q0\"":4}""}"
debugAPDDQI:debugU8E81D,9,1541465348750,"{""rt"": 4298, ""trial_type"": ""face-likert"", ""imgName"": ""Google_1_Janice Western_19_oval.jpg"", ""isRepeat"": false, ""isRandom"": true, ""time_elapsed"": 181606, ""questions"": ""[{\""prompt\"":\""How willing or unwilling do you think this person is to take risks?\"",\""labels\"":[\""0 (Completely unwilling to take risks)\"",\""1\"",\""2\"",\""3\"",\""4\"",\""5\"",\""6\"",\""7\"",\""8\"",\""9\"",\""10 (Very willing to take risks)\""],\""required\"":true}]"", ""internal_node_id"": ""0.0-9.0"", ""trial_index"": 9, ""responses"": ""{\""Q0\"":7}""}"
debugAPDDQI:debugU8E81D,10,1541465351753,"{""rt"": 3002, ""trial_type"": ""face-likert"", ""imgName"": ""Google_1_Shelley Natividad_1_oval.jpg"", ""isRepeat"": false, ""isRandom"": true, ""time_elapsed"": 184609, ""questions"": ""[{\""prompt\"":\""How willing or unwilling do you think this person is to take risks?\"",\""labels\"":[\""0 (Completely unwilling to take risks)\"",\""1\"",\""2\"",\""3\"",\""4\"",\""5\"",\""6\"",\""7\"",\""8\"",\""9\"",\""10 (Very willing to take risks)\""],\""required\"":true}]"", ""internal_node_id"": ""0.0-10.0"", ""trial_index"": 10, ""responses"": ""{\""Q0\"":8}""}"
debugAPDDQI:debugU8E81D,11,1541465354748,"{""rt"": 2994, ""trial_type"": ""face-likert"", ""imgName"": ""Google_1_Cecilia Peterson_11_oval.jpg"", ""isRepeat"": false, ""isRandom"": true, ""time_elapsed"": 187604, ""questions"": ""[{\""prompt\"":\""How willing or unwilling do you think this person is to take risks?\"",\""labels\"":[\""0 (Completely unwilling to take risks)\"",\""1\"",\""2\"",\""3\"",\""4\"",\""5\"",\""6\"",\""7\"",\""8\"",\""9\"",\""10 (Very willing to take risks)\""],\""required\"":true}]"", ""internal_node_id"": ""0.0-11.0"", ""trial_index"": 11, ""responses"": ""{\""Q0\"":5}""}"
debugAPDDQI:debugU8E81D,12,1541465358338,"{""rt"": 3588, ""trial_type"": ""face-likert"", ""imgName"": ""Google_1_Tammy Jacobs_12_oval.jpg"", ""isRepeat"": false, ""isRandom"": true, ""time_elapsed"": 191194, ""questions"": ""[{\""prompt\"":\""How willing or unwilling do you think this person is to take risks?\"",\""labels\"":[\""0 (Completely unwilling to take risks)\"",\""1\"",\""2\"",\""3\"",\""4\"",\""5\"",\""6\"",\""7\"",\""8\"",\""9\"",\""10 (Very willing to take risks)\""],\""required\"":true}]"", ""internal_node_id"": ""0.0-12.0"", ""trial_index"": 12, ""responses"": ""{\""Q0\"":5}""}"
debugAPDDQI:debugU8E81D,13,1541465361758,"{""rt"": 3419, ""trial_type"": ""face-likert"", ""imgName"": ""Google_1_Dale Reid_3_oval.jpg"", ""isRepeat"": false, ""isRandom"": true, ""time_elapsed"": 194614, ""questions"": ""[{\""prompt\"":\""How willing or unwilling do you think this person is to take risks?\"",\""labels\"":[\""0 (Completely unwilling to take risks)\"",\""1\"",\""2\"",\""3\"",\""4\"",\""5\"",\""6\"",\""7\"",\""8\"",\""9\"",\""10 (Very willing to take risks)\""],\""required\"":true}]"", ""internal_node_id"": ""0.0-13.0"", ""trial_index"": 13, ""responses"": ""{\""Q0\"":4}""}"
debugAPDDQI:debugU8E81D,14,1541465366556,"{""rt"": 4796, ""trial_type"": ""face-likert"", ""imgName"": ""Google_1_Laura Hines_7_oval.jpg"", ""isRepeat"": false, ""isRandom"": true, ""time_elapsed"": 199412, ""questions"": ""[{\""prompt\"":\""How willing or unwilling do you think this person is to take risks?\"",\""labels\"":[\""0 (Completely unwilling to take risks)\"",\""1\"",\""2\"",\""3\"",\""4\"",\""5\"",\""6\"",\""7\"",\""8\"",\""9\"",\""10 (Very willing to take risks)\""],\""required\"":true}]"", ""internal_node_id"": ""0.0-14.0"", ""trial_index"": 14, ""responses"": ""{\""Q0\"":4}""}"
debugAPDDQI:debugU8E81D,15,1541465373376,"{""rt"": 6820, ""trial_type"": ""face-likert"", ""imgName"": ""Billy_Farrell_9_oval.jpg"", ""isRepeat"": false, ""isRandom"": true, ""time_elapsed"": 206232, ""questions"": ""[{\""prompt\"":\""How willing or unwilling do you think this person is to take risks?\"",\""labels\"":[\""0 (Completely unwilling to take risks)\"",\""1\"",\""2\"",\""3\"",\""4\"",\""5\"",\""6\"",\""7\"",\""8\"",\""9\"",\""10 (Very willing to take risks)\""],\""required\"":true}]"", ""internal_node_id"": ""0.0-15.0"", ""trial_index"": 15, ""responses"": ""{\""Q0\"":6}""}"
debugAPDDQI:debugU8E81D,16,1541465379286,"{""rt"": 5908, ""trial_type"": ""face-likert"", ""imgName"": ""Google_1_Gregory Stott_1_oval.jpg"", ""isRepeat"": false, ""isRandom"": true, ""time_elapsed"": 212142, ""questions"": ""[{\""prompt\"":\""How willing or unwilling do you think this person is to take risks?\"",\""labels\"":[\""0 (Completely unwilling to take risks)\"",\""1\"",\""2\"",\""3\"",\""4\"",\""5\"",\""6\"",\""7\"",\""8\"",\""9\"",\""10 (Very willing to take risks)\""],\""required\"":true}]"", ""internal_node_id"": ""0.0-16.0"", ""trial_index"": 16, ""responses"": ""{\""Q0\"":6}""}"
debugAPDDQI:debugU8E81D,17,1541465383934,"{""rt"": 4646, ""trial_type"": ""face-likert"", ""imgName"": ""Google_1_Dolores Duckett_9-oval.jpg"", ""isRepeat"": false, ""isRandom"": true, ""time_elapsed"": 216790, ""questions"": ""[{\""prompt\"":\""How willing or unwilling do you think this person is to take risks?\"",\""labels\"":[\""0 (Completely unwilling to take risks)\"",\""1\"",\""2\"",\""3\"",\""4\"",\""5\"",\""6\"",\""7\"",\""8\"",\""9\"",\""10 (Very willing to take risks)\""],\""required\"":true}]"", ""internal_node_id"": ""0.0-17.0"", ""trial_index"": 17, ""responses"": ""{\""Q0\"":6}""}"
debugAPDDQI:debugU8E81D,18,1541465386364,"{""rt"": 2429, ""trial_type"": ""face-likert"", ""imgName"": ""Google_1_Suzanne Santo_15_oval.jpg"", ""isRepeat"": false, ""isRandom"": true, ""time_elapsed"": 219219, ""questions"": ""[{\""prompt\"":\""How willing or unwilling do you think this person is to take risks?\"",\""labels\"":[\""0 (Completely unwilling to take risks)\"",\""1\"",\""2\"",\""3\"",\""4\"",\""5\"",\""6\"",\""7\"",\""8\"",\""9\"",\""10 (Very willing to take risks)\""],\""required\"":true}]"", ""internal_node_id"": ""0.0-18.0"", ""trial_index"": 18, ""responses"": ""{\""Q0\"":6}""}"
debugAPDDQI:debugU8E81D,19,1541465389624,"{""rt"": 3258, ""trial_type"": ""face-likert"", ""imgName"": ""Google_1_Stanley Cornelius_3_oval.jpg"", ""isRepeat"": false, ""isRandom"": true, ""time_elapsed"": 222480, ""questions"": ""[{\""prompt\"":\""How willing or unwilling do you think this person is to take risks?\"",\""labels\"":[\""0 (Completely unwilling to take risks)\"",\""1\"",\""2\"",\""3\"",\""4\"",\""5\"",\""6\"",\""7\"",\""8\"",\""9\"",\""10 (Very willing to take risks)\""],\""required\"":true}]"", ""internal_node_id"": ""0.0-19.0"", ""trial_index"": 19, ""responses"": ""{\""Q0\"":4}""}"
debugAPDDQI:debugU8E81D,20,1541465393229,"{""rt"": 3604, ""trial_type"": ""face-likert"", ""imgName"": ""Google_1_Natalie Maes_7_oval.jpg"", ""isRepeat"": false, ""isRandom"": true, ""time_elapsed"": 226085, ""questions"": ""[{\""prompt\"":\""How willing or unwilling do you think this person is to take risks?\"",\""labels\"":[\""0 (Completely unwilling to take risks)\"",\""1\"",\""2\"",\""3\"",\""4\"",\""5\"",\""6\"",\""7\"",\""8\"",\""9\"",\""10 (Very willing to take risks)\""],\""required\"":true}]"", ""internal_node_id"": ""0.0-20.0"", ""trial_index"": 20, ""responses"": ""{\""Q0\"":7}""}"
debugAPDDQI:debugU8E81D,21,1541465396074,"{""rt"": 2844, ""trial_type"": ""face-likert"", ""imgName"": ""Google_1_Deanna Collin_5_oval.jpg"", ""isRepeat"": false, ""isRandom"": true, ""time_elapsed"": 228930, ""questions"": ""[{\""prompt\"":\""How willing or unwilling do you think this person is to take risks?\"",\""labels\"":[\""0 (Completely unwilling to take risks)\"",\""1\"",\""2\"",\""3\"",\""4\"",\""5\"",\""6\"",\""7\"",\""8\"",\""9\"",\""10 (Very willing to take risks)\""],\""required\"":true}]"", ""internal_node_id"": ""0.0-21.0"", ""trial_index"": 21, ""responses"": ""{\""Q0\"":8}""}"
debugAPDDQI:debugU8E81D,22,1541465402020,"{""rt"": 5945, ""trial_type"": ""face-likert"", ""imgName"": ""Google_1_Lori Weisman_12_oval.jpg"", ""isRepeat"": false, ""isRandom"": true, ""time_elapsed"": 234876, ""questions"": ""[{\""prompt\"":\""How willing or unwilling do you think this person is to take risks?\"",\""labels\"":[\""0 (Completely unwilling to take risks)\"",\""1\"",\""2\"",\""3\"",\""4\"",\""5\"",\""6\"",\""7\"",\""8\"",\""9\"",\""10 (Very willing to take risks)\""],\""required\"":true}]"", ""internal_node_id"": ""0.0-22.0"", ""trial_index"": 22, ""responses"": ""{\""Q0\"":6}""}"
debugAPDDQI:debugU8E81D,23,1541465405557,"{""rt"": 3534, ""trial_type"": ""face-likert"", ""imgName"": ""Google_1_Johnny Arenas_9_oval.jpg"", ""isRepeat"": false, ""isRandom"": true, ""time_elapsed"": 238413, ""questions"": ""[{\""prompt\"":\""How willing or unwilling do you think this person is to take risks?\"",\""labels\"":[\""0 (Completely unwilling to take risks)\"",\""1\"",\""2\"",\""3\"",\""4\"",\""5\"",\""6\"",\""7\"",\""8\"",\""9\"",\""10 (Very willing to take risks)\""],\""required\"":true}]"", ""internal_node_id"": ""0.0-23.0"", ""trial_index"": 23, ""responses"": ""{\""Q0\"":7}""}"
debugAPDDQI:debugU8E81D,24,1541465408082,"{""rt"": 2525, ""trial_type"": ""face-likert"", ""imgName"": ""Google_1_Todd Sandifer_7_oval.jpg"", ""isRepeat"": false, ""isRandom"": true, ""time_elapsed"": 240938, ""questions"": ""[{\""prompt\"":\""How willing or unwilling do you think this person is to take risks?\"",\""labels\"":[\""0 (Completely unwilling to take risks)\"",\""1\"",\""2\"",\""3\"",\""4\"",\""5\"",\""6\"",\""7\"",\""8\"",\""9\"",\""10 (Very willing to take risks)\""],\""required\"":true}]"", ""internal_node_id"": ""0.0-24.0"", ""trial_index"": 24, ""responses"": ""{\""Q0\"":5}""}"
debugAPDDQI:debugU8E81D,25,1541465410626,"{""rt"": 2543, ""trial_type"": ""face-likert"", ""imgName"": ""Brian_Shively_13_oval.jpg"", ""isRepeat"": false, ""isRandom"": true, ""time_elapsed"": 243482, ""questions"": ""[{\""prompt\"":\""How willing or unwilling do you think this person is to take risks?\"",\""labels\"":[\""0 (Completely unwilling to take risks)\"",\""1\"",\""2\"",\""3\"",\""4\"",\""5\"",\""6\"",\""7\"",\""8\"",\""9\"",\""10 (Very willing to take risks)\""],\""required\"":true}]"", ""internal_node_id"": ""0.0-25.0"", ""trial_index"": 25, ""responses"": ""{\""Q0\"":4}""}"
debugAPDDQI:debugU8E81D,26,1541465414263,"{""rt"": 3635, ""trial_type"": ""face-likert"", ""imgName"": ""Google_1_Victoria Strawser_3_oval.jpg"", ""isRepeat"": false, ""isRandom"": true, ""time_elapsed"": 247119, ""questions"": ""[{\""prompt\"":\""How willing or unwilling do you think this person is to take risks?\"",\""labels\"":[\""0 (Completely unwilling to take risks)\"",\""1\"",\""2\"",\""3\"",\""4\"",\""5\"",\""6\"",\""7\"",\""8\"",\""9\"",\""10 (Very willing to take risks)\""],\""required\"":true}]"", ""internal_node_id"": ""0.0-26.0"", ""trial_index"": 26, ""responses"": ""{\""Q0\"":5}""}"
debugAPDDQI:debugU8E81D,27,1541465416779,"{""rt"": 2515, ""trial_type"": ""face-likert"", ""imgName"": ""Google_1_Hazel Dunleavy_15_oval.jpg"", ""isRepeat"": false, ""isRandom"": true, ""time_elapsed"": 249635, ""questions"": ""[{\""prompt\"":\""How willing or unwilling do you think this person is to take risks?\"",\""labels\"":[\""0 (Completely unwilling to take risks)\"",\""1\"",\""2\"",\""3\"",\""4\"",\""5\"",\""6\"",\""7\"",\""8\"",\""9\"",\""10 (Very willing to take risks)\""],\""required\"":true}]"", ""internal_node_id"": ""0.0-27.0"", ""trial_index"": 27, ""responses"": ""{\""Q0\"":4}""}"
debugAPDDQI:debugU8E81D,28,1541465421741,"{""rt"": 4959, ""trial_type"": ""face-likert"", ""imgName"": ""Google_1_Douglas Devaney_72_oval.jpg"", ""isRepeat"": false, ""isRandom"": true, ""time_elapsed"": 254597, ""questions"": ""[{\""prompt\"":\""How willing or unwilling do you think this person is to take risks?\"",\""labels\"":[\""0 (Completely unwilling to take risks)\"",\""1\"",\""2\"",\""3\"",\""4\"",\""5\"",\""6\"",\""7\"",\""8\"",\""9\"",\""10 (Very willing to take risks)\""],\""required\"":true}]"", ""internal_node_id"": ""0.0-28.0"", ""trial_index"": 28, ""responses"": ""{\""Q0\"":4}""}"
debugAPDDQI:debugU8E81D,29,1541465428050,"{""rt"": 6307, ""trial_type"": ""face-likert"", ""imgName"": ""Google_1_Jeffrey Watson_1_oval.jpg"", ""isRepeat"": false, ""isRandom"": true, ""time_elapsed"": 260906, ""questions"": ""[{\""prompt\"":\""How willing or unwilling do you think this person is to take risks?\"",\""labels\"":[\""0 (Completely unwilling to take risks)\"",\""1\"",\""2\"",\""3\"",\""4\"",\""5\"",\""6\"",\""7\"",\""8\"",\""9\"",\""10 (Very willing to take risks)\""],\""required\"":true}]"", ""internal_node_id"": ""0.0-29.0"", ""trial_index"": 29, ""responses"": ""{\""Q0\"":3}""}"
debugAPDDQI:debugU8E81D,30,1541465431916,"{""rt"": 3864, ""trial_type"": ""face-likert"", ""imgName"": ""Anthony_Hartsfield_9_oval.jpg"", ""isRepeat"": false, ""isRandom"": true, ""time_elapsed"": 264772, ""questions"": ""[{\""prompt\"":\""How willing or unwilling do you think this person is to take risks?\"",\""labels\"":[\""0 (Completely unwilling to take risks)\"",\""1\"",\""2\"",\""3\"",\""4\"",\""5\"",\""6\"",\""7\"",\""8\"",\""9\"",\""10 (Very willing to take risks)\""],\""required\"":true}]"", ""internal_node_id"": ""0.0-30.0"", ""trial_index"": 30, ""responses"": ""{\""Q0\"":6}""}"
debugAPDDQI:debugU8E81D,31,1541465437090,"{""rt"": 5172, ""trial_type"": ""face-likert"", ""imgName"": ""Google_1_Jerry Strong_9_oval.jpg"", ""isRepeat"": false, ""isRandom"": true, ""time_elapsed"": 269945, ""questions"": ""[{\""prompt\"":\""How willing or unwilling do you think this person is to take risks?\"",\""labels\"":[\""0 (Completely unwilling to take risks)\"",\""1\"",\""2\"",\""3\"",\""4\"",\""5\"",\""6\"",\""7\"",\""8\"",\""9\"",\""10 (Very willing to take risks)\""],\""required\"":true}]"", ""internal_node_id"": ""0.0-31.0"", ""trial_index"": 31, ""responses"": ""{\""Q0\"":6}""}"
debugAPDDQI:debugU8E81D,32,1541465441230,"{""rt"": 4138, ""trial_type"": ""face-likert"", ""imgName"": ""Google_1_Bruce Murrell_15_oval.jpg"", ""isRepeat"": false, ""isRandom"": true, ""time_elapsed"": 274086, ""questions"": ""[{\""prompt\"":\""How willing or unwilling do you think this person is to take risks?\"",\""labels\"":[\""0 (Completely unwilling to take risks)\"",\""1\"",\""2\"",\""3\"",\""4\"",\""5\"",\""6\"",\""7\"",\""8\"",\""9\"",\""10 (Very willing to take risks)\""],\""required\"":true}]"", ""internal_node_id"": ""0.0-32.0"", ""trial_index"": 32, ""responses"": ""{\""Q0\"":5}""}"
debugAPDDQI:debugU8E81D,33,1541465444280,"{""rt"": 3050, ""trial_type"": ""face-likert"", ""imgName"": ""Google_1_Laurie Russo_1_oval.jpg"", ""isRepeat"": false, ""isRandom"": true, ""time_elapsed"": 277136, ""questions"": ""[{\""prompt\"":\""How willing or unwilling do you think this person is to take risks?\"",\""labels\"":[\""0 (Completely unwilling to take risks)\"",\""1\"",\""2\"",\""3\"",\""4\"",\""5\"",\""6\"",\""7\"",\""8\"",\""9\"",\""10 (Very willing to take risks)\""],\""required\"":true}]"", ""internal_node_id"": ""0.0-33.0"", ""trial_index"": 33, ""responses"": ""{\""Q0\"":6}""}"
debugAPDDQI:debugU8E81D,34,1541465452825,"{""rt"": 8542, ""trial_type"": ""face-likert"", ""imgName"": ""Google_1_Hazel Dixon_12_oval.jpg"", ""isRepeat"": false, ""isRandom"": true, ""time_elapsed"": 285680, ""questions"": ""[{\""prompt\"":\""How willing or unwilling do you think this person is to take risks?\"",\""labels\"":[\""0 (Completely unwilling to take risks)\"",\""1\"",\""2\"",\""3\"",\""4\"",\""5\"",\""6\"",\""7\"",\""8\"",\""9\"",\""10 (Very willing to take risks)\""],\""required\"":true}]"", ""internal_node_id"": ""0.0-34.0"", ""trial_index"": 34, ""responses"": ""{\""Q0\"":6}""}"
debugAPDDQI:debugU8E81D,35,1541465457749,"{""rt"": 4924, ""trial_type"": ""face-likert"", ""imgName"": ""Google_1_Steven Mayorga_7_oval.jpg"", ""isRepeat"": false, ""isRandom"": true, ""time_elapsed"": 290605, ""questions"": ""[{\""prompt\"":\""How willing or unwilling do you think this person is to take risks?\"",\""labels\"":[\""0 (Completely unwilling to take risks)\"",\""1\"",\""2\"",\""3\"",\""4\"",\""5\"",\""6\"",\""7\"",\""8\"",\""9\"",\""10 (Very willing to take risks)\""],\""required\"":true}]"", ""internal_node_id"": ""0.0-35.0"", ""trial_index"": 35, ""responses"": ""{\""Q0\"":6}""}"
debugAPDDQI:debugU8E81D,36,1541465464581,"{""rt"": 6831, ""trial_type"": ""face-likert"", ""imgName"": ""Google_1_Sean Bissonnette_1_oval.jpg"", ""isRepeat"": false, ""isRandom"": true, ""time_elapsed"": 297437, ""questions"": ""[{\""prompt\"":\""How willing or unwilling do you think this person is to take risks?\"",\""labels\"":[\""0 (Completely unwilling to take risks)\"",\""1\"",\""2\"",\""3\"",\""4\"",\""5\"",\""6\"",\""7\"",\""8\"",\""9\"",\""10 (Very willing to take risks)\""],\""required\"":true}]"", ""internal_node_id"": ""0.0-36.0"", ""trial_index"": 36, ""responses"": ""{\""Q0\"":5}""}"
debugAPDDQI:debugU8E81D,37,1541465469851,"{""rt"": 5267, ""trial_type"": ""face-likert"", ""imgName"": ""Google_1_Randy Conlon_5_oval.jpg"", ""isRepeat"": false, ""isRandom"": true, ""time_elapsed"": 302707, ""questions"": ""[{\""prompt\"":\""How willing or unwilling do you think this person is to take risks?\"",\""labels\"":[\""0 (Completely unwilling to take risks)\"",\""1\"",\""2\"",\""3\"",\""4\"",\""5\"",\""6\"",\""7\"",\""8\"",\""9\"",\""10 (Very willing to take risks)\""],\""required\"":true}]"", ""internal_node_id"": ""0.0-37.0"", ""trial_index"": 37, ""responses"": ""{\""Q0\"":3}""}"
debugAPDDQI:debugU8E81D,38,1541465472730,"{""rt"": 2878, ""trial_type"": ""face-likert"", ""imgName"": ""Google_1_Norman Stitt_17_oval.jpg"", ""isRepeat"": false, ""isRandom"": true, ""time_elapsed"": 305586, ""questions"": ""[{\""prompt\"":\""How willing or unwilling do you think this person is to take risks?\"",\""labels\"":[\""0 (Completely unwilling to take risks)\"",\""1\"",\""2\"",\""3\"",\""4\"",\""5\"",\""6\"",\""7\"",\""8\"",\""9\"",\""10 (Very willing to take risks)\""],\""required\"":true}]"", ""internal_node_id"": ""0.0-38.0"", ""trial_index"": 38, ""responses"": ""{\""Q0\"":5}""}"
debugAPDDQI:debugU8E81D,39,1541465476415,"{""rt"": 3683, ""trial_type"": ""face-likert"", ""imgName"": ""Google_1_Douglas Wampler_7_oval.jpg"", ""isRepeat"": false, ""isRandom"": true, ""time_elapsed"": 309271, ""questions"": ""[{\""prompt\"":\""How willing or unwilling do you think this person is to take risks?\"",\""labels\"":[\""0 (Completely unwilling to take risks)\"",\""1\"",\""2\"",\""3\"",\""4\"",\""5\"",\""6\"",\""7\"",\""8\"",\""9\"",\""10 (Very willing to take risks)\""],\""required\"":true}]"", ""internal_node_id"": ""0.0-39.0"", ""trial_index"": 39, ""responses"": ""{\""Q0\"":7}""}"
debugAPDDQI:debugU8E81D,40,1541465479653,"{""rt"": 3236, ""trial_type"": ""face-likert"", ""imgName"": ""Google_1_Maureen Groce_9_oval.jpg"", ""isRepeat"": false, ""isRandom"": true, ""time_elapsed"": 312509, ""questions"": ""[{\""prompt\"":\""How willing or unwilling do you think this person is to take risks?\"",\""labels\"":[\""0 (Completely unwilling to take risks)\"",\""1\"",\""2\"",\""3\"",\""4\"",\""5\"",\""6\"",\""7\"",\""8\"",\""9\"",\""10 (Very willing to take risks)\""],\""required\"":true}]"", ""internal_node_id"": ""0.0-40.0"", ""trial_index"": 40, ""responses"": ""{\""Q0\"":5}""}"
debugAPDDQI:debugU8E81D,41,1541465484362,"{""rt"": 4708, ""trial_type"": ""face-likert"", ""imgName"": ""Google_1_Robert Ross_11_oval.jpg"", ""isRepeat"": false, ""isRandom"": true, ""time_elapsed"": 317218, ""questions"": ""[{\""prompt\"":\""How willing or unwilling do you think this person is to take risks?\"",\""labels\"":[\""0 (Completely unwilling to take risks)\"",\""1\"",\""2\"",\""3\"",\""4\"",\""5\"",\""6\"",\""7\"",\""8\"",\""9\"",\""10 (Very willing to take risks)\""],\""required\"":true}]"", ""internal_node_id"": ""0.0-41.0"", ""trial_index"": 41, ""responses"": ""{\""Q0\"":7}""}"
debugAPDDQI:debugU8E81D,42,1541465489200,"{""rt"": 4836, ""trial_type"": ""face-likert"", ""imgName"": ""Google_1_Margie Spriggs_1_oval.jpg"", ""isRepeat"": false, ""isRandom"": true, ""time_elapsed"": 322056, ""questions"": ""[{\""prompt\"":\""How willing or unwilling do you think this person is to take risks?\"",\""labels\"":[\""0 (Completely unwilling to take risks)\"",\""1\"",\""2\"",\""3\"",\""4\"",\""5\"",\""6\"",\""7\"",\""8\"",\""9\"",\""10 (Very willing to take risks)\""],\""required\"":true}]"", ""internal_node_id"": ""0.0-42.0"", ""trial_index"": 42, ""responses"": ""{\""Q0\"":7}""}"
debugAPDDQI:debugU8E81D,43,1541465492222,"{""rt"": 3020, ""trial_type"": ""face-likert"", ""imgName"": ""Google_1_Sean Revels_7_oval.jpg"", ""isRepeat"": false, ""isRandom"": true, ""time_elapsed"": 325078, ""questions"": ""[{\""prompt\"":\""How willing or unwilling do you think this person is to take risks?\"",\""labels\"":[\""0 (Completely unwilling to take risks)\"",\""1\"",\""2\"",\""3\"",\""4\"",\""5\"",\""6\"",\""7\"",\""8\"",\""9\"",\""10 (Very willing to take risks)\""],\""required\"":true}]"", ""internal_node_id"": ""0.0-43.0"", ""trial_index"": 43, ""responses"": ""{\""Q0\"":8}""}"
debugAPDDQI:debugU8E81D,44,1541465502097,"{""rt"": 9873, ""trial_type"": ""face-likert"", ""imgName"": ""Google_1_Susan Burdette_17_oval.jpg"", ""isRepeat"": false, ""isRandom"": true, ""time_elapsed"": 334953, ""questions"": ""[{\""prompt\"":\""How willing or unwilling do you think this person is to take risks?\"",\""labels\"":[\""0 (Completely unwilling to take risks)\"",\""1\"",\""2\"",\""3\"",\""4\"",\""5\"",\""6\"",\""7\"",\""8\"",\""9\"",\""10 (Very willing to take risks)\""],\""required\"":true}]"", ""internal_node_id"": ""0.0-44.0"", ""trial_index"": 44, ""responses"": ""{\""Q0\"":8}""}"
debugAPDDQI:debugU8E81D,45,1541465505372,"{""rt"": 3273, ""trial_type"": ""face-likert"", ""imgName"": ""Google_1_Dawn Bullis_1_oval.jpg"", ""isRepeat"": false, ""isRandom"": true, ""time_elapsed"": 338228, ""questions"": ""[{\""prompt\"":\""How willing or unwilling do you think this person is to take risks?\"",\""labels\"":[\""0 (Completely unwilling to take risks)\"",\""1\"",\""2\"",\""3\"",\""4\"",\""5\"",\""6\"",\""7\"",\""8\"",\""9\"",\""10 (Very willing to take risks)\""],\""required\"":true}]"", ""internal_node_id"": ""0.0-45.0"", ""trial_index"": 45, ""responses"": ""{\""Q0\"":8}""}"
debugAPDDQI:debugU8E81D,46,1541465507623,"{""rt"": 2251, ""trial_type"": ""face-likert"", ""imgName"": ""Google_1_Jeffrey Churchwell_1_oval.jpg"", ""isRepeat"": false, ""isRandom"": true, ""time_elapsed"": 340479, ""questions"": ""[{\""prompt\"":\""How willing or unwilling do you think this person is to take risks?\"",\""labels\"":[\""0 (Completely unwilling to take risks)\"",\""1\"",\""2\"",\""3\"",\""4\"",\""5\"",\""6\"",\""7\"",\""8\"",\""9\"",\""10 (Very willing to take risks)\""],\""required\"":true}]"", ""internal_node_id"": ""0.0-46.0"", ""trial_index"": 46, ""responses"": ""{\""Q0\"":8}""}"
debugAPDDQI:debugU8E81D,47,1541465510278,"{""rt"": 2654, ""trial_type"": ""face-likert"", ""imgName"": ""Google_1_Elizabeth Roach_3_oval.jpg"", ""isRepeat"": false, ""isRandom"": true, ""time_elapsed"": 343134, ""questions"": ""[{\""prompt\"":\""How willing or unwilling do you think this person is to take risks?\"",\""labels\"":[\""0 (Completely unwilling to take risks)\"",\""1\"",\""2\"",\""3\"",\""4\"",\""5\"",\""6\"",\""7\"",\""8\"",\""9\"",\""10 (Very willing to take risks)\""],\""required\"":true}]"", ""internal_node_id"": ""0.0-47.0"", ""trial_index"": 47, ""responses"": ""{\""Q0\"":5}""}"
debugAPDDQI:debugU8E81D,48,1541465512760,"{""rt"": 2482, ""trial_type"": ""face-likert"", ""imgName"": ""Google_1_Marjorie Derr_17_oval.jpg"", ""isRepeat"": false, ""isRandom"": true, ""time_elapsed"": 345616, ""questions"": ""[{\""prompt\"":\""How willing or unwilling do you think this person is to take risks?\"",\""labels\"":[\""0 (Completely unwilling to take risks)\"",\""1\"",\""2\"",\""3\"",\""4\"",\""5\"",\""6\"",\""7\"",\""8\"",\""9\"",\""10 (Very willing to take risks)\""],\""required\"":true}]"", ""internal_node_id"": ""0.0-48.0"", ""trial_index"": 48, ""responses"": ""{\""Q0\"":6}""}"
debugAPDDQI:debugU8E81D,49,1541465517344,"{""rt"": 4581, ""trial_type"": ""face-likert"", ""imgName"": ""Google_1_David Bourassa_11_oval.jpg"", ""isRepeat"": false, ""isRandom"": true, ""time_elapsed"": 350200, ""questions"": ""[{\""prompt\"":\""How willing or unwilling do you think this person is to take risks?\"",\""labels\"":[\""0 (Completely unwilling to take risks)\"",\""1\"",\""2\"",\""3\"",\""4\"",\""5\"",\""6\"",\""7\"",\""8\"",\""9\"",\""10 (Very willing to take risks)\""],\""required\"":true}]"", ""internal_node_id"": ""0.0-49.0"", ""trial_index"": 49, ""responses"": ""{\""Q0\"":6}""}"
debugAPDDQI:debugU8E81D,50,1541465519661,"{""rt"": 2316, ""trial_type"": ""face-likert"", ""imgName"": ""Brandon_Kellogg_15_oval.jpg"", ""isRepeat"": false, ""isRandom"": true, ""time_elapsed"": 352517, ""questions"": ""[{\""prompt\"":\""How willing or unwilling do you think this person is to take risks?\"",\""labels\"":[\""0 (Completely unwilling to take risks)\"",\""1\"",\""2\"",\""3\"",\""4\"",\""5\"",\""6\"",\""7\"",\""8\"",\""9\"",\""10 (Very willing to take risks)\""],\""required\"":true}]"", ""internal_node_id"": ""0.0-50.0"", ""trial_index"": 50, ""responses"": ""{\""Q0\"":7}""}"
debugAPDDQI:debugU8E81D,51,1541465522763,"{""rt"": 3100, ""trial_type"": ""face-likert"", ""imgName"": ""Google_1_Helen Ferland_17_oval.jpg"", ""isRepeat"": false, ""isRandom"": true, ""time_elapsed"": 355619, ""questions"": ""[{\""prompt\"":\""How willing or unwilling do you think this person is to take risks?\"",\""labels\"":[\""0 (Completely unwilling to take risks)\"",\""1\"",\""2\"",\""3\"",\""4\"",\""5\"",\""6\"",\""7\"",\""8\"",\""9\"",\""10 (Very willing to take risks)\""],\""required\"":true}]"", ""internal_node_id"": ""0.0-51.0"", ""trial_index"": 51, ""responses"": ""{\""Q0\"":7}""}"
debugAPDDQI:debugU8E81D,52,1541465525420,"{""rt"": 2654, ""trial_type"": ""face-likert"", ""imgName"": ""Google_1_Gerald Brotherton_5_oval.jpg"", ""isRepeat"": false, ""isRandom"": true, ""time_elapsed"": 358275, ""questions"": ""[{\""prompt\"":\""How willing or unwilling do you think this person is to take risks?\"",\""labels\"":[\""0 (Completely unwilling to take risks)\"",\""1\"",\""2\"",\""3\"",\""4\"",\""5\"",\""6\"",\""7\"",\""8\"",\""9\"",\""10 (Very willing to take risks)\""],\""required\"":true}]"", ""internal_node_id"": ""0.0-52.0"", ""trial_index"": 52, ""responses"": ""{\""Q0\"":5}""}"
debugAPDDQI:debugU8E81D,53,1541465530857,"{""rt"": 5435, ""trial_type"": ""face-likert"", ""imgName"": ""Google_1_Bruce Raab_15_oval.jpg"", ""isRepeat"": false, ""isRandom"": true, ""time_elapsed"": 363713, ""questions"": ""[{\""prompt\"":\""How willing or unwilling do you think this person is to take risks?\"",\""labels\"":[\""0 (Completely unwilling to take risks)\"",\""1\"",\""2\"",\""3\"",\""4\"",\""5\"",\""6\"",\""7\"",\""8\"",\""9\"",\""10 (Very willing to take risks)\""],\""required\"":true}]"", ""internal_node_id"": ""0.0-53.0"", ""trial_index"": 53, ""responses"": ""{\""Q0\"":4}""}"
debugAPDDQI:debugU8E81D,54,1541465534857,"{""rt"": 3999, ""trial_type"": ""face-likert"", ""imgName"": ""Google_1_Debra Jankowski_7_oval.jpg"", ""isRepeat"": false, ""isRandom"": true, ""time_elapsed"": 367713, ""questions"": ""[{\""prompt\"":\""How willing or unwilling do you think this person is to take risks?\"",\""labels\"":[\""0 (Completely unwilling to take risks)\"",\""1\"",\""2\"",\""3\"",\""4\"",\""5\"",\""6\"",\""7\"",\""8\"",\""9\"",\""10 (Very willing to take risks)\""],\""required\"":true}]"", ""internal_node_id"": ""0.0-54.0"", ""trial_index"": 54, ""responses"": ""{\""Q0\"":4}""}"
debugAPDDQI:debugU8E81D,55,1541465540466,"{""rt"": 5607, ""trial_type"": ""face-likert"", ""imgName"": ""Google_1_Michael Stoner_15_oval.jpg"", ""isRepeat"": false, ""isRandom"": true, ""time_elapsed"": 373322, ""questions"": ""[{\""prompt\"":\""How willing or unwilling do you think this person is to take risks?\"",\""labels\"":[\""0 (Completely unwilling to take risks)\"",\""1\"",\""2\"",\""3\"",\""4\"",\""5\"",\""6\"",\""7\"",\""8\"",\""9\"",\""10 (Very willing to take risks)\""],\""required\"":true}]"", ""internal_node_id"": ""0.0-55.0"", ""trial_index"": 55, ""responses"": ""{\""Q0\"":3}""}"
debugAPDDQI:debugU8E81D,56,1541465543292,"{""rt"": 2825, ""trial_type"": ""face-likert"", ""imgName"": ""Google_1_Jeff Martindale_9_oval.jpg"", ""isRepeat"": false, ""isRandom"": true, ""time_elapsed"": 376148, ""questions"": ""[{\""prompt\"":\""How willing or unwilling do you think this person is to take risks?\"",\""labels\"":[\""0 (Completely unwilling to take risks)\"",\""1\"",\""2\"",\""3\"",\""4\"",\""5\"",\""6\"",\""7\"",\""8\"",\""9\"",\""10 (Very willing to take risks)\""],\""required\"":true}]"", ""internal_node_id"": ""0.0-56.0"", ""trial_index"": 56, ""responses"": ""{\""Q0\"":5}""}"
debugAPDDQI:debugU8E81D,57,1541465547765,"{""rt"": 4471, ""trial_type"": ""face-likert"", ""imgName"": ""Google_1_Rachel Hollingshead_52_oval.jpg"", ""isRepeat"": false, ""isRandom"": true, ""time_elapsed"": 380621, ""questions"": ""[{\""prompt\"":\""How willing or unwilling do you think this person is to take risks?\"",\""labels\"":[\""0 (Completely unwilling to take risks)\"",\""1\"",\""2\"",\""3\"",\""4\"",\""5\"",\""6\"",\""7\"",\""8\"",\""9\"",\""10 (Very willing to take risks)\""],\""required\"":true}]"", ""internal_node_id"": ""0.0-57.0"", ""trial_index"": 57, ""responses"": ""{\""Q0\"":6}""}"
debugAPDDQI:debugU8E81D,58,1541465550382,"{""rt"": 2615, ""trial_type"": ""face-likert"", ""imgName"": ""Google_1_Tonya Kile_1_oval.jpg"", ""isRepeat"": false, ""isRandom"": true, ""time_elapsed"": 383237, ""questions"": ""[{\""prompt\"":\""How willing or unwilling do you think this person is to take risks?\"",\""labels\"":[\""0 (Completely unwilling to take risks)\"",\""1\"",\""2\"",\""3\"",\""4\"",\""5\"",\""6\"",\""7\"",\""8\"",\""9\"",\""10 (Very willing to take risks)\""],\""required\"":true}]"", ""internal_node_id"": ""0.0-58.0"", ""trial_index"": 58, ""responses"": ""{\""Q0\"":6}""}"
debugAPDDQI:debugU8E81D,59,1541465554917,"{""rt"": 4534, ""trial_type"": ""face-likert"", ""imgName"": ""Google_1_Yvette Hardwick_14_oval.jpg"", ""isRepeat"": false, ""isRandom"": true, ""time_elapsed"": 387773, ""questions"": ""[{\""prompt\"":\""How willing or unwilling do you think this person is to take risks?\"",\""labels\"":[\""0 (Completely unwilling to take risks)\"",\""1\"",\""2\"",\""3\"",\""4\"",\""5\"",\""6\"",\""7\"",\""8\"",\""9\"",\""10 (Very willing to take risks)\""],\""required\"":true}]"", ""internal_node_id"": ""0.0-59.0"", ""trial_index"": 59, ""responses"": ""{\""Q0\"":4}""}"
debugAPDDQI:debugU8E81D,60,1541465566217,"{""rt"": 11299, ""trial_type"": ""face-likert"", ""imgName"": ""Google_1_David Gooden_15_oval.jpg"", ""isRepeat"": false, ""isRandom"": true, ""time_elapsed"": 399073, ""questions"": ""[{\""prompt\"":\""How willing or unwilling do you think this person is to take risks?\"",\""labels\"":[\""0 (Completely unwilling to take risks)\"",\""1\"",\""2\"",\""3\"",\""4\"",\""5\"",\""6\"",\""7\"",\""8\"",\""9\"",\""10 (Very willing to take risks)\""],\""required\"":true}]"", ""internal_node_id"": ""0.0-60.0"", ""trial_index"": 60, ""responses"": ""{\""Q0\"":5}""}"
debugAPDDQI:debugU8E81D,61,1541465569121,"{""rt"": 2903, ""trial_type"": ""face-likert"", ""imgName"": ""Google_1_Gary Sprinkle_15_oval.jpg"", ""isRepeat"": false, ""isRandom"": true, ""time_elapsed"": 401977, ""questions"": ""[{\""prompt\"":\""How willing or unwilling do you think this person is to take risks?\"",\""labels\"":[\""0 (Completely unwilling to take risks)\"",\""1\"",\""2\"",\""3\"",\""4\"",\""5\"",\""6\"",\""7\"",\""8\"",\""9\"",\""10 (Very willing to take risks)\""],\""required\"":true}]"", ""internal_node_id"": ""0.0-61.0"", ""trial_index"": 61, ""responses"": ""{\""Q0\"":6}""}"
debugAPDDQI:debugU8E81D,62,1541465574146,"{""rt"": 5022, ""trial_type"": ""face-likert"", ""imgName"": ""Google_1_Myra Mundy_11_oval.jpg"", ""isRepeat"": false, ""isRandom"": true, ""time_elapsed"": 407002, ""questions"": ""[{\""prompt\"":\""How willing or unwilling do you think this person is to take risks?\"",\""labels\"":[\""0 (Completely unwilling to take risks)\"",\""1\"",\""2\"",\""3\"",\""4\"",\""5\"",\""6\"",\""7\"",\""8\"",\""9\"",\""10 (Very willing to take risks)\""],\""required\"":true}]"", ""internal_node_id"": ""0.0-62.0"", ""trial_index"": 62, ""responses"": ""{\""Q0\"":6}""}"
debugAPDDQI:debugU8E81D,63,1541465576965,"{""rt"": 2819, ""trial_type"": ""face-likert"", ""imgName"": ""Google_1_Matthew Click_5_oval.jpg"", ""isRepeat"": false, ""isRandom"": true, ""time_elapsed"": 409821, ""questions"": ""[{\""prompt\"":\""How willing or unwilling do you think this person is to take risks?\"",\""labels\"":[\""0 (Completely unwilling to take risks)\"",\""1\"",\""2\"",\""3\"",\""4\"",\""5\"",\""6\"",\""7\"",\""8\"",\""9\"",\""10 (Very willing to take risks)\""],\""required\"":true}]"", ""internal_node_id"": ""0.0-63.0"", ""trial_index"": 63, ""responses"": ""{\""Q0\"":6}""}"
debugAPDDQI:debugU8E81D,64,1541465579392,"{""rt"": 2424, ""trial_type"": ""face-likert"", ""imgName"": ""Google_1_Wendy Schiff_19_oval.jpg"", ""isRepeat"": false, ""isRandom"": true, ""time_elapsed"": 412247, ""questions"": ""[{\""prompt\"":\""How willing or unwilling do you think this person is to take risks?\"",\""labels\"":[\""0 (Completely unwilling to take risks)\"",\""1\"",\""2\"",\""3\"",\""4\"",\""5\"",\""6\"",\""7\"",\""8\"",\""9\"",\""10 (Very willing to take risks)\""],\""required\"":true}]"", ""internal_node_id"": ""0.0-64.0"", ""trial_index"": 64, ""responses"": ""{\""Q0\"":6}""}"
debugAPDDQI:debugU8E81D,65,1541465581998,"{""rt"": 2605, ""trial_type"": ""face-likert"", ""imgName"": ""Google_1_Janice Sumrall_9_oval.jpg"", ""isRepeat"": false, ""isRandom"": true, ""time_elapsed"": 414853, ""questions"": ""[{\""prompt\"":\""How willing or unwilling do you think this person is to take risks?\"",\""labels\"":[\""0 (Completely unwilling to take risks)\"",\""1\"",\""2\"",\""3\"",\""4\"",\""5\"",\""6\"",\""7\"",\""8\"",\""9\"",\""10 (Very willing to take risks)\""],\""required\"":true}]"", ""internal_node_id"": ""0.0-65.0"", ""trial_index"": 65, ""responses"": ""{\""Q0\"":5}""}"
debugAPDDQI:debugU8E81D,66,1541465588081,"{""rt"": 6082, ""trial_type"": ""face-likert"", ""imgName"": ""Google_1_Celia Griffin_3_oval.jpg"", ""isRepeat"": false, ""isRandom"": true, ""time_elapsed"": 420936, ""questions"": ""[{\""prompt\"":\""How willing or unwilling do you think this person is to take risks?\"",\""labels\"":[\""0 (Completely unwilling to take risks)\"",\""1\"",\""2\"",\""3\"",\""4\"",\""5\"",\""6\"",\""7\"",\""8\"",\""9\"",\""10 (Very willing to take risks)\""],\""required\"":true}]"", ""internal_node_id"": ""0.0-66.0"", ""trial_index"": 66, ""responses"": ""{\""Q0\"":6}""}"
debugAPDDQI:debugU8E81D,67,1541465590301,"{""rt"": 2218, ""trial_type"": ""face-likert"", ""imgName"": ""Google_1_Brandi Harbaugh_7_oval.jpg"", ""isRepeat"": false, ""isRandom"": true, ""time_elapsed"": 423156, ""questions"": ""[{\""prompt\"":\""How willing or unwilling do you think this person is to take risks?\"",\""labels\"":[\""0 (Completely unwilling to take risks)\"",\""1\"",\""2\"",\""3\"",\""4\"",\""5\"",\""6\"",\""7\"",\""8\"",\""9\"",\""10 (Very willing to take risks)\""],\""required\"":true}]"", ""internal_node_id"": ""0.0-67.0"", ""trial_index"": 67, ""responses"": ""{\""Q0\"":7}""}"
debugAPDDQI:debugU8E81D,68,1541465597010,"{""rt"": 6707, ""trial_type"": ""face-likert"", ""imgName"": ""Google_1_Carole Bentley_7_oval.jpg"", ""isRepeat"": false, ""isRandom"": true, ""time_elapsed"": 429866, ""questions"": ""[{\""prompt\"":\""How willing or unwilling do you think this person is to take risks?\"",\""labels\"":[\""0 (Completely unwilling to take risks)\"",\""1\"",\""2\"",\""3\"",\""4\"",\""5\"",\""6\"",\""7\"",\""8\"",\""9\"",\""10 (Very willing to take risks)\""],\""required\"":true}]"", ""internal_node_id"": ""0.0-68.0"", ""trial_index"": 68, ""responses"": ""{\""Q0\"":5}""}"
debugAPDDQI:debugU8E81D,69,1541465600961,"{""rt"": 3951, ""trial_type"": ""face-likert"", ""imgName"": ""Google_1_Edward Goldsmith_9_oval.jpg"", ""isRepeat"": false, ""isRandom"": true, ""time_elapsed"": 433817, ""questions"": ""[{\""prompt\"":\""How willing or unwilling do you think this person is to take risks?\"",\""labels\"":[\""0 (Completely unwilling to take risks)\"",\""1\"",\""2\"",\""3\"",\""4\"",\""5\"",\""6\"",\""7\"",\""8\"",\""9\"",\""10 (Very willing to take risks)\""],\""required\"":true}]"", ""internal_node_id"": ""0.0-69.0"", ""trial_index"": 69, ""responses"": ""{\""Q0\"":6}""}"
debugAPDDQI:debugU8E81D,70,1541465603726,"{""rt"": 2763, ""trial_type"": ""face-likert"", ""imgName"": ""Google_1_Roberta Jasso_5_oval.jpg"", ""isRepeat"": false, ""isRandom"": true, ""time_elapsed"": 436582, ""questions"": ""[{\""prompt\"":\""How willing or unwilling do you think this person is to take risks?\"",\""labels\"":[\""0 (Completely unwilling to take risks)\"",\""1\"",\""2\"",\""3\"",\""4\"",\""5\"",\""6\"",\""7\"",\""8\"",\""9\"",\""10 (Very willing to take risks)\""],\""required\"":true}]"", ""internal_node_id"": ""0.0-70.0"", ""trial_index"": 70, ""responses"": ""{\""Q0\"":7}""}"
debugAPDDQI:debugU8E81D,71,1541465606431,"{""rt"": 2704, ""trial_type"": ""face-likert"", ""imgName"": ""Google_1_Roy Mcadoo_7_oval.jpg"", ""isRepeat"": false, ""isRandom"": true, ""time_elapsed"": 439287, ""questions"": ""[{\""prompt\"":\""How willing or unwilling do you think this person is to take risks?\"",\""labels\"":[\""0 (Completely unwilling to take risks)\"",\""1\"",\""2\"",\""3\"",\""4\"",\""5\"",\""6\"",\""7\"",\""8\"",\""9\"",\""10 (Very willing to take risks)\""],\""required\"":true}]"", ""internal_node_id"": ""0.0-71.0"", ""trial_index"": 71, ""responses"": ""{\""Q0\"":5}""}"
debugAPDDQI:debugU8E81D,72,1541465609389,"{""rt"": 2956, ""trial_type"": ""face-likert"", ""imgName"": ""Google_1_Regina Mckim_5_oval.jpg"", ""isRepeat"": false, ""isRandom"": true, ""time_elapsed"": 442245, ""questions"": ""[{\""prompt\"":\""How willing or unwilling do you think this person is to take risks?\"",\""labels\"":[\""0 (Completely unwilling to take risks)\"",\""1\"",\""2\"",\""3\"",\""4\"",\""5\"",\""6\"",\""7\"",\""8\"",\""9\"",\""10 (Very willing to take risks)\""],\""required\"":true}]"", ""internal_node_id"": ""0.0-72.0"", ""trial_index"": 72, ""responses"": ""{\""Q0\"":4}""}"
debugAPDDQI:debugU8E81D,73,1541465621970,"{""rt"": 12579, ""trial_type"": ""face-likert"", ""imgName"": ""Google_1_Ryan Concepcion_3_oval.jpg"", ""isRepeat"": false, ""isRandom"": true, ""time_elapsed"": 454825, ""questions"": ""[{\""prompt\"":\""How willing or unwilling do you think this person is to take risks?\"",\""labels\"":[\""0 (Completely unwilling to take risks)\"",\""1\"",\""2\"",\""3\"",\""4\"",\""5\"",\""6\"",\""7\"",\""8\"",\""9\"",\""10 (Very willing to take risks)\""],\""required\"":true}]"", ""internal_node_id"": ""0.0-73.0"", ""trial_index"": 73, ""responses"": ""{\""Q0\"":4}""}"
debugAPDDQI:debugU8E81D,74,1541465627253,"{""rt"": 5282, ""trial_type"": ""face-likert"", ""imgName"": ""Google_1_Todd Lassiter_7_oval.jpg"", ""isRepeat"": false, ""isRandom"": true, ""time_elapsed"": 460109, ""questions"": ""[{\""prompt\"":\""How willing or unwilling do you think this person is to take risks?\"",\""labels\"":[\""0 (Completely unwilling to take risks)\"",\""1\"",\""2\"",\""3\"",\""4\"",\""5\"",\""6\"",\""7\"",\""8\"",\""9\"",\""10 (Very willing to take risks)\""],\""required\"":true}]"", ""internal_node_id"": ""0.0-74.0"", ""trial_index"": 74, ""responses"": ""{\""Q0\"":6}""}"
debugAPDDQI:debugU8E81D,75,1541465630276,"{""rt"": 3021, ""trial_type"": ""face-likert"", ""imgName"": ""Google_1_Evelyn Whaley_11_oval.jpg"", ""isRepeat"": false, ""isRandom"": true, ""time_elapsed"": 463132, ""questions"": ""[{\""prompt\"":\""How willing or unwilling do you think this person is to take risks?\"",\""labels\"":[\""0 (Completely unwilling to take risks)\"",\""1\"",\""2\"",\""3\"",\""4\"",\""5\"",\""6\"",\""7\"",\""8\"",\""9\"",\""10 (Very willing to take risks)\""],\""required\"":true}]"", ""internal_node_id"": ""0.0-75.0"", ""trial_index"": 75, ""responses"": ""{\""Q0\"":6}""}"
debugAPDDQI:debugU8E81D,76,1541465632822,"{""rt"": 2545, ""trial_type"": ""face-likert"", ""imgName"": ""Google_1_Gregory Wynne_1_oval.jpg"", ""isRepeat"": false, ""isRandom"": true, ""time_elapsed"": 465678, ""questions"": ""[{\""prompt\"":\""How willing or unwilling do you think this person is to take risks?\"",\""labels\"":[\""0 (Completely unwilling to take risks)\"",\""1\"",\""2\"",\""3\"",\""4\"",\""5\"",\""6\"",\""7\"",\""8\"",\""9\"",\""10 (Very willing to take risks)\""],\""required\"":true}]"", ""internal_node_id"": ""0.0-76.0"", ""trial_index"": 76, ""responses"": ""{\""Q0\"":4}""}"
debugAPDDQI:debugU8E81D,77,1541465636006,"{""rt"": 3182, ""trial_type"": ""face-likert"", ""imgName"": ""Google_1_David Bourassa_5_oval.jpg"", ""isRepeat"": false, ""isRandom"": true, ""time_elapsed"": 468862, ""questions"": ""[{\""prompt\"":\""How willing or unwilling do you think this person is to take risks?\"",\""labels\"":[\""0 (Completely unwilling to take risks)\"",\""1\"",\""2\"",\""3\"",\""4\"",\""5\"",\""6\"",\""7\"",\""8\"",\""9\"",\""10 (Very willing to take risks)\""],\""required\"":true}]"", ""internal_node_id"": ""0.0-77.0"", ""trial_index"": 77, ""responses"": ""{\""Q0\"":4}""}"
debugAPDDQI:debugU8E81D,78,1541465639361,"{""rt"": 3352, ""trial_type"": ""face-likert"", ""imgName"": ""Google_1_Nicholas Arenas_2_oval.jpg"", ""isRepeat"": false, ""isRandom"": true, ""time_elapsed"": 472215, ""questions"": ""[{\""prompt\"":\""How willing or unwilling do you think this person is to take risks?\"",\""labels\"":[\""0 (Completely unwilling to take risks)\"",\""1\"",\""2\"",\""3\"",\""4\"",\""5\"",\""6\"",\""7\"",\""8\"",\""9\"",\""10 (Very willing to take risks)\""],\""required\"":true}]"", ""internal_node_id"": ""0.0-78.0"", ""trial_index"": 78, ""responses"": ""{\""Q0\"":3}""}"
debugAPDDQI:debugU8E81D,79,1541465642346,"{""rt"": 2983, ""trial_type"": ""face-likert"", ""imgName"": ""Google_1_Brandon Shrader_5_oval.jpg"", ""isRepeat"": false, ""isRandom"": true, ""time_elapsed"": 475202, ""questions"": ""[{\""prompt\"":\""How willing or unwilling do you think this person is to take risks?\"",\""labels\"":[\""0 (Completely unwilling to take risks)\"",\""1\"",\""2\"",\""3\"",\""4\"",\""5\"",\""6\"",\""7\"",\""8\"",\""9\"",\""10 (Very willing to take risks)\""],\""required\"":true}]"", ""internal_node_id"": ""0.0-79.0"", ""trial_index"": 79, ""responses"": ""{\""Q0\"":4}""}"
debugAPDDQI:debugU8E81D,80,1541465646664,"{""rt"": 4318, ""trial_type"": ""face-likert"", ""imgName"": ""Google_1_Sarah Stricklin_13_oval.jpg"", ""isRepeat"": false, ""isRandom"": true, ""time_elapsed"": 479520, ""questions"": ""[{\""prompt\"":\""How willing or unwilling do you think this person is to take risks?\"",\""labels\"":[\""0 (Completely unwilling to take risks)\"",\""1\"",\""2\"",\""3\"",\""4\"",\""5\"",\""6\"",\""7\"",\""8\"",\""9\"",\""10 (Very willing to take risks)\""],\""required\"":true}]"", ""internal_node_id"": ""0.0-80.0"", ""trial_index"": 80, ""responses"": ""{\""Q0\"":3}""}"
debugAPDDQI:debugU8E81D,81,1541465649690,"{""rt"": 3024, ""trial_type"": ""face-likert"", ""imgName"": ""Gerald_Addington_11_oval.jpg"", ""isRepeat"": false, ""isRandom"": true, ""time_elapsed"": 482546, ""questions"": ""[{\""prompt\"":\""How willing or unwilling do you think this person is to take risks?\"",\""labels\"":[\""0 (Completely unwilling to take risks)\"",\""1\"",\""2\"",\""3\"",\""4\"",\""5\"",\""6\"",\""7\"",\""8\"",\""9\"",\""10 (Very willing to take risks)\""],\""required\"":true}]"", ""internal_node_id"": ""0.0-81.0"", ""trial_index"": 81, ""responses"": ""{\""Q0\"":7}""}"
debugAPDDQI:debugU8E81D,82,1541465656064,"{""rt"": 6372, ""trial_type"": ""face-likert"", ""imgName"": ""Albert_Neu_7_oval.jpg"", ""isRepeat"": false, ""isRandom"": true, ""time_elapsed"": 488920, ""questions"": ""[{\""prompt\"":\""How willing or unwilling do you think this person is to take risks?\"",\""labels\"":[\""0 (Completely unwilling to take risks)\"",\""1\"",\""2\"",\""3\"",\""4\"",\""5\"",\""6\"",\""7\"",\""8\"",\""9\"",\""10 (Very willing to take risks)\""],\""required\"":true}]"", ""internal_node_id"": ""0.0-82.0"", ""trial_index"": 82, ""responses"": ""{\""Q0\"":6}""}"
debugAPDDQI:debugU8E81D,83,1541465662287,"{""rt"": 6222, ""trial_type"": ""face-likert"", ""imgName"": ""Google_1_Louis Cisneros_5_oval.jpg"", ""isRepeat"": false, ""isRandom"": true, ""time_elapsed"": 495143, ""questions"": ""[{\""prompt\"":\""How willing or unwilling do you think this person is to take risks?\"",\""labels\"":[\""0 (Completely unwilling to take risks)\"",\""1\"",\""2\"",\""3\"",\""4\"",\""5\"",\""6\"",\""7\"",\""8\"",\""9\"",\""10 (Very willing to take risks)\""],\""required\"":true}]"", ""internal_node_id"": ""0.0-83.0"", ""trial_index"": 83, ""responses"": ""{\""Q0\"":5}""}"
debugAPDDQI:debugU8E81D,84,1541465666280,"{""rt"": 3991, ""trial_type"": ""face-likert"", ""imgName"": ""Google_1_Jill Leclerc_7_oval.jpg"", ""isRepeat"": false, ""isRandom"": true, ""time_elapsed"": 499136, ""questions"": ""[{\""prompt\"":\""How willing or unwilling do you think this person is to take risks?\"",\""labels\"":[\""0 (Completely unwilling to take risks)\"",\""1\"",\""2\"",\""3\"",\""4\"",\""5\"",\""6\"",\""7\"",\""8\"",\""9\"",\""10 (Very willing to take risks)\""],\""required\"":true}]"", ""internal_node_id"": ""0.0-84.0"", ""trial_index"": 84, ""responses"": ""{\""Q0\"":8}""}"
debugAPDDQI:debugU8E81D,85,1541465673667,"{""rt"": 7386, ""trial_type"": ""face-likert"", ""imgName"": ""Google_1_Danielle Christenson_13_oval.jpg"", ""isRepeat"": false, ""isRandom"": true, ""time_elapsed"": 506523, ""questions"": ""[{\""prompt\"":\""How willing or unwilling do you think this person is to take risks?\"",\""labels\"":[\""0 (Completely unwilling to take risks)\"",\""1\"",\""2\"",\""3\"",\""4\"",\""5\"",\""6\"",\""7\"",\""8\"",\""9\"",\""10 (Very willing to take risks)\""],\""required\"":true}]"", ""internal_node_id"": ""0.0-85.0"", ""trial_index"": 85, ""responses"": ""{\""Q0\"":6}""}"
debugAPDDQI:debugU8E81D,86,1541465676793,"{""rt"": 3123, ""trial_type"": ""face-likert"", ""imgName"": ""Google_1_Bruce Richmond_3_oval.jpg"", ""isRepeat"": false, ""isRandom"": true, ""time_elapsed"": 509649, ""questions"": ""[{\""prompt\"":\""How willing or unwilling do you think this person is to take risks?\"",\""labels\"":[\""0 (Completely unwilling to take risks)\"",\""1\"",\""2\"",\""3\"",\""4\"",\""5\"",\""6\"",\""7\"",\""8\"",\""9\"",\""10 (Very willing to take risks)\""],\""required\"":true}]"", ""internal_node_id"": ""0.0-86.0"", ""trial_index"": 86, ""responses"": ""{\""Q0\"":4}""}"
debugAPDDQI:debugU8E81D,87,1541465680920,"{""rt"": 4127, ""trial_type"": ""face-likert"", ""imgName"": ""Google_1_Norman Sears_1_oval.jpg"", ""isRepeat"": false, ""isRandom"": true, ""time_elapsed"": 513776, ""questions"": ""[{\""prompt\"":\""How willing or unwilling do you think this person is to take risks?\"",\""labels\"":[\""0 (Completely unwilling to take risks)\"",\""1\"",\""2\"",\""3\"",\""4\"",\""5\"",\""6\"",\""7\"",\""8\"",\""9\"",\""10 (Very willing to take risks)\""],\""required\"":true}]"", ""internal_node_id"": ""0.0-87.0"", ""trial_index"": 87, ""responses"": ""{\""Q0\"":4}""}"
debugAPDDQI:debugU8E81D,88,1541465686950,"{""rt"": 6029, ""trial_type"": ""face-likert"", ""imgName"": ""Google_1_Lorraine Byrd_9_oval.jpg"", ""isRepeat"": false, ""isRandom"": true, ""time_elapsed"": 519806, ""questions"": ""[{\""prompt\"":\""How willing or unwilling do you think this person is to take risks?\"",\""labels\"":[\""0 (Completely unwilling to take risks)\"",\""1\"",\""2\"",\""3\"",\""4\"",\""5\"",\""6\"",\""7\"",\""8\"",\""9\"",\""10 (Very willing to take risks)\""],\""required\"":true}]"", ""internal_node_id"": ""0.0-88.0"", ""trial_index"": 88, ""responses"": ""{\""Q0\"":3}""}"
debugAPDDQI:debugU8E81D,89,1541465691850,"{""rt"": 4897, ""trial_type"": ""face-likert"", ""imgName"": ""Google_1_Brian Owen_11_oval.jpg"", ""isRepeat"": false, ""isRandom"": true, ""time_elapsed"": 524706, ""questions"": ""[{\""prompt\"":\""How willing or unwilling do you think this person is to take risks?\"",\""labels\"":[\""0 (Completely unwilling to take risks)\"",\""1\"",\""2\"",\""3\"",\""4\"",\""5\"",\""6\"",\""7\"",\""8\"",\""9\"",\""10 (Very willing to take risks)\""],\""required\"":true}]"", ""internal_node_id"": ""0.0-89.0"", ""trial_index"": 89, ""responses"": ""{\""Q0\"":2}""}"
debugAPDDQI:debugU8E81D,90,1541465694158,"{""rt"": 2307, ""trial_type"": ""face-likert"", ""imgName"": ""Brian_Mach_1_oval.jpg"", ""isRepeat"": false, ""isRandom"": true, ""time_elapsed"": 527014, ""questions"": ""[{\""prompt\"":\""How willing or unwilling do you think this person is to take risks?\"",\""labels\"":[\""0 (Completely unwilling to take risks)\"",\""1\"",\""2\"",\""3\"",\""4\"",\""5\"",\""6\"",\""7\"",\""8\"",\""9\"",\""10 (Very willing to take risks)\""],\""required\"":true}]"", ""internal_node_id"": ""0.0-90.0"", ""trial_index"": 90, ""responses"": ""{\""Q0\"":3}""}"
debugAPDDQI:debugU8E81D,91,1541465701085,"{""rt"": 6925, ""trial_type"": ""face-likert"", ""imgName"": ""Andrew_Perreira_5_oval.jpg"", ""isRepeat"": false, ""isRandom"": true, ""time_elapsed"": 533941, ""questions"": ""[{\""prompt\"":\""How willing or unwilling do you think this person is to take risks?\"",\""labels\"":[\""0 (Completely unwilling to take risks)\"",\""1\"",\""2\"",\""3\"",\""4\"",\""5\"",\""6\"",\""7\"",\""8\"",\""9\"",\""10 (Very willing to take risks)\""],\""required\"":true}]"", ""internal_node_id"": ""0.0-91.0"", ""trial_index"": 91, ""responses"": ""{\""Q0\"":4}""}"
debugAPDDQI:debugU8E81D,92,1541465705077,"{""rt"": 3990, ""trial_type"": ""face-likert"", ""imgName"": ""Google_1_Pam Daugherty_17_oval.jpg"", ""isRepeat"": false, ""isRandom"": true, ""time_elapsed"": 537933, ""questions"": ""[{\""prompt\"":\""How willing or unwilling do you think this person is to take risks?\"",\""labels\"":[\""0 (Completely unwilling to take risks)\"",\""1\"",\""2\"",\""3\"",\""4\"",\""5\"",\""6\"",\""7\"",\""8\"",\""9\"",\""10 (Very willing to take risks)\""],\""required\"":true}]"", ""internal_node_id"": ""0.0-92.0"", ""trial_index"": 92, ""responses"": ""{\""Q0\"":6}""}"
debugAPDDQI:debugU8E81D,93,1541465708527,"{""rt"": 3448, ""trial_type"": ""face-likert"", ""imgName"": ""Google_1_Daniel Groth_17_oval.jpg"", ""isRepeat"": false, ""isRandom"": true, ""time_elapsed"": 541383, ""questions"": ""[{\""prompt\"":\""How willing or unwilling do you think this person is to take risks?\"",\""labels\"":[\""0 (Completely unwilling to take risks)\"",\""1\"",\""2\"",\""3\"",\""4\"",\""5\"",\""6\"",\""7\"",\""8\"",\""9\"",\""10 (Very willing to take risks)\""],\""required\"":true}]"", ""internal_node_id"": ""0.0-93.0"", ""trial_index"": 93, ""responses"": ""{\""Q0\"":6}""}"
debugAPDDQI:debugU8E81D,94,1541465712773,"{""rt"": 4244, ""trial_type"": ""face-likert"", ""imgName"": ""Google_1_Vivian Pender_7_oval.jpg"", ""isRepeat"": false, ""isRandom"": true, ""time_elapsed"": 545629, ""questions"": ""[{\""prompt\"":\""How willing or unwilling do you think this person is to take risks?\"",\""labels\"":[\""0 (Completely unwilling to take risks)\"",\""1\"",\""2\"",\""3\"",\""4\"",\""5\"",\""6\"",\""7\"",\""8\"",\""9\"",\""10 (Very willing to take risks)\""],\""required\"":true}]"", ""internal_node_id"": ""0.0-94.0"", ""trial_index"": 94, ""responses"": ""{\""Q0\"":5}""}"
debugAPDDQI:debugU8E81D,95,1541465716451,"{""rt"": 3677, ""trial_type"": ""face-likert"", ""imgName"": ""Google_1_Alicia Mcgann_1_oval.jpg"", ""isRepeat"": false, ""isRandom"": true, ""time_elapsed"": 549307, ""questions"": ""[{\""prompt\"":\""How willing or unwilling do you think this person is to take risks?\"",\""labels\"":[\""0 (Completely unwilling to take risks)\"",\""1\"",\""2\"",\""3\"",\""4\"",\""5\"",\""6\"",\""7\"",\""8\"",\""9\"",\""10 (Very willing to take risks)\""],\""required\"":true}]"", ""internal_node_id"": ""0.0-95.0"", ""trial_index"": 95, ""responses"": ""{\""Q0\"":3}""}"
debugAPDDQI:debugU8E81D,96,1541465719549,"{""rt"": 3097, ""trial_type"": ""face-likert"", ""imgName"": ""Google_1_Vanessa Beltz_7_oval.jpg"", ""isRepeat"": false, ""isRandom"": true, ""time_elapsed"": 552405, ""questions"": ""[{\""prompt\"":\""How willing or unwilling do you think this person is to take risks?\"",\""labels\"":[\""0 (Completely unwilling to take risks)\"",\""1\"",\""2\"",\""3\"",\""4\"",\""5\"",\""6\"",\""7\"",\""8\"",\""9\"",\""10 (Very willing to take risks)\""],\""required\"":true}]"", ""internal_node_id"": ""0.0-96.0"", ""trial_index"": 96, ""responses"": ""{\""Q0\"":4}""}"
debugAPDDQI:debugU8E81D,97,1541465726548,"{""rt"": 6997, ""trial_type"": ""face-likert"", ""imgName"": ""Google_1_Jodi Comer_5_oval.jpg"", ""isRepeat"": false, ""isRandom"": true, ""time_elapsed"": 559404, ""questions"": ""[{\""prompt\"":\""How willing or unwilling do you think this person is to take risks?\"",\""labels\"":[\""0 (Completely unwilling to take risks)\"",\""1\"",\""2\"",\""3\"",\""4\"",\""5\"",\""6\"",\""7\"",\""8\"",\""9\"",\""10 (Very willing to take risks)\""],\""required\"":true}]"", ""internal_node_id"": ""0.0-97.0"", ""trial_index"": 97, ""responses"": ""{\""Q0\"":3}""}"
debugAPDDQI:debugU8E81D,98,1541465731286,"{""rt"": 4737, ""trial_type"": ""face-likert"", ""imgName"": ""Bryan_Woolard_13_oval.jpg"", ""isRepeat"": false, ""isRandom"": true, ""time_elapsed"": 564142, ""questions"": ""[{\""prompt\"":\""How willing or unwilling do you think this person is to take risks?\"",\""labels\"":[\""0 (Completely unwilling to take risks)\"",\""1\"",\""2\"",\""3\"",\""4\"",\""5\"",\""6\"",\""7\"",\""8\"",\""9\"",\""10 (Very willing to take risks)\""],\""required\"":true}]"", ""internal_node_id"": ""0.0-98.0"", ""trial_index"": 98, ""responses"": ""{\""Q0\"":6}""}"
debugAPDDQI:debugU8E81D,99,1541465737303,"{""rt"": 6015, ""trial_type"": ""face-likert"", ""imgName"": ""Google_1_Nancy Goebel_1_oval.jpg"", ""isRepeat"": false, ""isRandom"": true, ""time_elapsed"": 570159, ""questions"": ""[{\""prompt\"":\""How willing or unwilling do you think this person is to take risks?\"",\""labels\"":[\""0 (Completely unwilling to take risks)\"",\""1\"",\""2\"",\""3\"",\""4\"",\""5\"",\""6\"",\""7\"",\""8\"",\""9\"",\""10 (Very willing to take risks)\""],\""required\"":true}]"", ""internal_node_id"": ""0.0-99.0"", ""trial_index"": 99, ""responses"": ""{\""Q0\"":6}""}"
debugAPDDQI:debugU8E81D,100,1541465740271,"{""rt"": 2966, ""trial_type"": ""face-likert"", ""imgName"": ""Google_1_Sheila Sokol_7_oval.jpg"", ""isRepeat"": false, ""isRandom"": true, ""time_elapsed"": 573127, ""questions"": ""[{\""prompt\"":\""How willing or unwilling do you think this person is to take risks?\"",\""labels\"":[\""0 (Completely unwilling to take risks)\"",\""1\"",\""2\"",\""3\"",\""4\"",\""5\"",\""6\"",\""7\"",\""8\"",\""9\"",\""10 (Very willing to take risks)\""],\""required\"":true}]"", ""internal_node_id"": ""0.0-100.0"", ""trial_index"": 100, ""responses"": ""{\""Q0\"":4}""}"
debugAPDDQI:debugU8E81D,101,1541465746176,"{""rt"": 5904, ""trial_type"": ""face-likert"", ""imgName"": ""Google_1_Rhonda Corey_11_oval.jpg"", ""isRepeat"": false, ""isRandom"": true, ""time_elapsed"": 579032, ""questions"": ""[{\""prompt\"":\""How willing or unwilling do you think this person is to take risks?\"",\""labels\"":[\""0 (Completely unwilling to take risks)\"",\""1\"",\""2\"",\""3\"",\""4\"",\""5\"",\""6\"",\""7\"",\""8\"",\""9\"",\""10 (Very willing to take risks)\""],\""required\"":true}]"", ""internal_node_id"": ""0.0-101.0"", ""trial_index"": 101, ""responses"": ""{\""Q0\"":5}""}"
debugAPDDQI:debugU8E81D,102,1541465750851,"{""rt"": 4673, ""trial_type"": ""face-likert"", ""imgName"": ""Google_1_Jill Mathis_1_oval.jpg"", ""isRepeat"": false, ""isRandom"": true, ""time_elapsed"": 583707, ""questions"": ""[{\""prompt\"":\""How willing or unwilling do you think this person is to take risks?\"",\""labels\"":[\""0 (Completely unwilling to take risks)\"",\""1\"",\""2\"",\""3\"",\""4\"",\""5\"",\""6\"",\""7\"",\""8\"",\""9\"",\""10 (Very willing to take risks)\""],\""required\"":true}]"", ""internal_node_id"": ""0.0-102.0"", ""trial_index"": 102, ""responses"": ""{\""Q0\"":3}""}"
debugAPDDQI:debugU8E81D,103,1541465754017,"{""rt"": 3165, ""trial_type"": ""face-likert"", ""imgName"": ""Google_1_Elaine Grey_9_oval.jpg"", ""isRepeat"": false, ""isRandom"": true, ""time_elapsed"": 586873, ""questions"": ""[{\""prompt\"":\""How willing or unwilling do you think this person is to take risks?\"",\""labels\"":[\""0 (Completely unwilling to take risks)\"",\""1\"",\""2\"",\""3\"",\""4\"",\""5\"",\""6\"",\""7\"",\""8\"",\""9\"",\""10 (Very willing to take risks)\""],\""required\"":true}]"", ""internal_node_id"": ""0.0-103.0"", ""trial_index"": 103, ""responses"": ""{\""Q0\"":3}""}"
debugAPDDQI:debugU8E81D,104,1541465757205,"{""rt"": 3186, ""trial_type"": ""face-likert"", ""imgName"": ""Betty_Trainor_19_oval.jpg"", ""isRepeat"": false, ""isRandom"": true, ""time_elapsed"": 590061, ""questions"": ""[{\""prompt\"":\""How willing or unwilling do you think this person is to take risks?\"",\""labels\"":[\""0 (Completely unwilling to take risks)\"",\""1\"",\""2\"",\""3\"",\""4\"",\""5\"",\""6\"",\""7\"",\""8\"",\""9\"",\""10 (Very willing to take risks)\""],\""required\"":true}]"", ""internal_node_id"": ""0.0-104.0"", ""trial_index"": 104, ""responses"": ""{\""Q0\"":4}""}"
debugAPDDQI:debugU8E81D,105,1541465770379,"{""rt"": 13174, ""trial_type"": ""face-likert"", ""imgName"": ""Google_1_Steven Prevost_19_oval.jpg"", ""isRepeat"": false, ""isRandom"": true, ""time_elapsed"": 603235, ""questions"": ""[{\""prompt\"":\""How willing or unwilling do you think this person is to take risks?\"",\""labels\"":[\""0 (Completely unwilling to take risks)\"",\""1\"",\""2\"",\""3\"",\""4\"",\""5\"",\""6\"",\""7\"",\""8\"",\""9\"",\""10 (Very willing to take risks)\""],\""required\"":true}]"", ""internal_node_id"": ""0.0-105.0"", ""trial_index"": 105, ""responses"": ""{\""Q0\"":8}""}"
debugAPDDQI:debugU8E81D,106,1541465772763,"{""rt"": 2383, ""trial_type"": ""face-likert"", ""imgName"": ""Google_1_Alice Pryor_9_oval.jpg"", ""isRepeat"": false, ""isRandom"": true, ""time_elapsed"": 605619, ""questions"": ""[{\""prompt\"":\""How willing or unwilling do you think this person is to take risks?\"",\""labels\"":[\""0 (Completely unwilling to take risks)\"",\""1\"",\""2\"",\""3\"",\""4\"",\""5\"",\""6\"",\""7\"",\""8\"",\""9\"",\""10 (Very willing to take risks)\""],\""required\"":true}]"", ""internal_node_id"": ""0.0-106.0"", ""trial_index"": 106, ""responses"": ""{\""Q0\"":6}""}"
debugAPDDQI:debugU8E81D,107,1541465777243,"{""rt"": 4479, ""trial_type"": ""face-likert"", ""imgName"": ""Google_1_Leonard True_5_oval.jpg"", ""isRepeat"": false, ""isRandom"": true, ""time_elapsed"": 610099, ""questions"": ""[{\""prompt\"":\""How willing or unwilling do you think this person is to take risks?\"",\""labels\"":[\""0 (Completely unwilling to take risks)\"",\""1\"",\""2\"",\""3\"",\""4\"",\""5\"",\""6\"",\""7\"",\""8\"",\""9\"",\""10 (Very willing to take risks)\""],\""required\"":true}]"", ""internal_node_id"": ""0.0-107.0"", ""trial_index"": 107, ""responses"": ""{\""Q0\"":5}""}"
debugAPDDQI:debugU8E81D,108,1541465779345,"{""rt"": 2101, ""trial_type"": ""face-likert"", ""imgName"": ""Adrienne_Blaney_15_oval.jpg"", ""isRepeat"": false, ""isRandom"": true, ""time_elapsed"": 612201, ""questions"": ""[{\""prompt\"":\""How willing or unwilling do you think this person is to take risks?\"",\""labels\"":[\""0 (Completely unwilling to take risks)\"",\""1\"",\""2\"",\""3\"",\""4\"",\""5\"",\""6\"",\""7\"",\""8\"",\""9\"",\""10 (Very willing to take risks)\""],\""required\"":true}]"", ""internal_node_id"": ""0.0-108.0"", ""trial_index"": 108, ""responses"": ""{\""Q0\"":6}""}"
debugAPDDQI:debugU8E81D,109,1541465782322,"{""rt"": 2975, ""trial_type"": ""face-likert"", ""imgName"": ""Google_1_Stanley Stott_5_oval.jpg"", ""isRepeat"": false, ""isRandom"": true, ""time_elapsed"": 615178, ""questions"": ""[{\""prompt\"":\""How willing or unwilling do you think this person is to take risks?\"",\""labels\"":[\""0 (Completely unwilling to take risks)\"",\""1\"",\""2\"",\""3\"",\""4\"",\""5\"",\""6\"",\""7\"",\""8\"",\""9\"",\""10 (Very willing to take risks)\""],\""required\"":true}]"", ""internal_node_id"": ""0.0-109.0"", ""trial_index"": 109, ""responses"": ""{\""Q0\"":5}""}"
debugAPDDQI:debugU8E81D,110,1541465786137,"{""rt"": 3815, ""trial_type"": ""face-likert"", ""imgName"": ""Google_1_Frank Macfarlane_15_oval.jpg"", ""isRepeat"": false, ""isRandom"": true, ""time_elapsed"": 618993, ""questions"": ""[{\""prompt\"":\""How willing or unwilling do you think this person is to take risks?\"",\""labels\"":[\""0 (Completely unwilling to take risks)\"",\""1\"",\""2\"",\""3\"",\""4\"",\""5\"",\""6\"",\""7\"",\""8\"",\""9\"",\""10 (Very willing to take risks)\""],\""required\"":true}]"", ""internal_node_id"": ""0.0-110.0"", ""trial_index"": 110, ""responses"": ""{\""Q0\"":4}""}"
debugAPDDQI:debugU8E81D,111,1541465790950,"{""rt"": 4812, ""trial_type"": ""face-likert"", ""imgName"": ""Google_1_Jeffrey Chao_15_oval.jpg"", ""isRepeat"": false, ""isRandom"": true, ""time_elapsed"": 623806, ""questions"": ""[{\""prompt\"":\""How willing or unwilling do you think this person is to take risks?\"",\""labels\"":[\""0 (Completely unwilling to take risks)\"",\""1\"",\""2\"",\""3\"",\""4\"",\""5\"",\""6\"",\""7\"",\""8\"",\""9\"",\""10 (Very willing to take risks)\""],\""required\"":true}]"", ""internal_node_id"": ""0.0-111.0"", ""trial_index"": 111, ""responses"": ""{\""Q0\"":3}""}"
debugAPDDQI:debugU8E81D,112,1541465793357,"{""rt"": 2406, ""trial_type"": ""face-likert"", ""imgName"": ""Google_1_Janet Lashley_9_oval.jpg"", ""isRepeat"": false, ""isRandom"": true, ""time_elapsed"": 626213, ""questions"": ""[{\""prompt\"":\""How willing or unwilling do you think this person is to take risks?\"",\""labels\"":[\""0 (Completely unwilling to take risks)\"",\""1\"",\""2\"",\""3\"",\""4\"",\""5\"",\""6\"",\""7\"",\""8\"",\""9\"",\""10 (Very willing to take risks)\""],\""required\"":true}]"", ""internal_node_id"": ""0.0-112.0"", ""trial_index"": 112, ""responses"": ""{\""Q0\"":4}""}"
debugAPDDQI:debugU8E81D,113,1541465796329,"{""rt"": 2971, ""trial_type"": ""face-likert"", ""imgName"": ""Google_1_Randy Conlon_5_oval.jpg"", ""isRepeat"": false, ""isRandom"": false, ""time_elapsed"": 629185, ""questions"": ""[{\""prompt\"":\""How willing or unwilling do you think this person is to take risks?\"",\""labels\"":[\""0 (Completely unwilling to take risks)\"",\""1\"",\""2\"",\""3\"",\""4\"",\""5\"",\""6\"",\""7\"",\""8\"",\""9\"",\""10 (Very willing to take risks)\""],\""required\"":true}]"", ""internal_node_id"": ""0.0-113.0"", ""trial_index"": 113, ""responses"": ""{\""Q0\"":2}""}"
debugAPDDQI:debugU8E81D,114,1541465800898,"{""rt"": 4568, ""trial_type"": ""face-likert"", ""imgName"": ""Google_1_Sarah Stricklin_13_oval.jpg"", ""isRepeat"": false, ""isRandom"": false, ""time_elapsed"": 633754, ""questions"": ""[{\""prompt\"":\""How willing or unwilling do you think this person is to take risks?\"",\""labels\"":[\""0 (Completely unwilling to take risks)\"",\""1\"",\""2\"",\""3\"",\""4\"",\""5\"",\""6\"",\""7\"",\""8\"",\""9\"",\""10 (Very willing to take risks)\""],\""required\"":true}]"", ""internal_node_id"": ""0.0-114.0"", ""trial_index"": 114, ""responses"": ""{\""Q0\"":3}""}"
debugAPDDQI:debugU8E81D,115,1541465804439,"{""rt"": 3540, ""trial_type"": ""face-likert"", ""imgName"": ""Google_1_Laurie Russo_1_oval.jpg"", ""isRepeat"": false, ""isRandom"": false, ""time_elapsed"": 637295, ""questions"": ""[{\""prompt\"":\""How willing or unwilling do you think this person is to take risks?\"",\""labels\"":[\""0 (Completely unwilling to take risks)\"",\""1\"",\""2\"",\""3\"",\""4\"",\""5\"",\""6\"",\""7\"",\""8\"",\""9\"",\""10 (Very willing to take risks)\""],\""required\"":true}]"", ""internal_node_id"": ""0.0-115.0"", ""trial_index"": 115, ""responses"": ""{\""Q0\"":4}""}"
debugAPDDQI:debugU8E81D,116,1541465808588,"{""rt"": 4148, ""trial_type"": ""face-likert"", ""imgName"": ""Google_1_Nancy Goebel_1_oval.jpg"", ""isRepeat"": false, ""isRandom"": false, ""time_elapsed"": 641444, ""questions"": ""[{\""prompt\"":\""How willing or unwilling do you think this person is to take risks?\"",\""labels\"":[\""0 (Completely unwilling to take risks)\"",\""1\"",\""2\"",\""3\"",\""4\"",\""5\"",\""6\"",\""7\"",\""8\"",\""9\"",\""10 (Very willing to take risks)\""],\""required\"":true}]"", ""internal_node_id"": ""0.0-116.0"", ""trial_index"": 116, ""responses"": ""{\""Q0\"":6}""}"
debugAPDDQI:debugU8E81D,117,1541465812625,"{""rt"": 4034, ""trial_type"": ""face-likert"", ""imgName"": ""Google_1_Frank Macfarlane_15_oval.jpg"", ""isRepeat"": false, ""isRandom"": false, ""time_elapsed"": 645481, ""questions"": ""[{\""prompt\"":\""How willing or unwilling do you think this person is to take risks?\"",\""labels\"":[\""0 (Completely unwilling to take risks)\"",\""1\"",\""2\"",\""3\"",\""4\"",\""5\"",\""6\"",\""7\"",\""8\"",\""9\"",\""10 (Very willing to take risks)\""],\""required\"":true}]"", ""internal_node_id"": ""0.0-117.0"", ""trial_index"": 117, ""responses"": ""{\""Q0\"":6}""}"
debugAPDDQI:debugU8E81D,118,1541465815018,"{""rt"": 2392, ""trial_type"": ""face-likert"", ""imgName"": ""Google_1_Pam Daugherty_17_oval.jpg"", ""isRepeat"": false, ""isRandom"": false, ""time_elapsed"": 647874, ""questions"": ""[{\""prompt\"":\""How willing or unwilling do you think this person is to take risks?\"",\""labels\"":[\""0 (Completely unwilling to take risks)\"",\""1\"",\""2\"",\""3\"",\""4\"",\""5\"",\""6\"",\""7\"",\""8\"",\""9\"",\""10 (Very willing to take risks)\""],\""required\"":true}]"", ""internal_node_id"": ""0.0-118.0"", ""trial_index"": 118, ""responses"": ""{\""Q0\"":7}""}"
debugAPDDQI:debugU8E81D,119,1541465820265,"{""rt"": 5244, ""trial_type"": ""face-likert"", ""imgName"": ""Google_1_Alice Pryor_9_oval.jpg"", ""isRepeat"": false, ""isRandom"": false, ""time_elapsed"": 653121, ""questions"": ""[{\""prompt\"":\""How willing or unwilling do you think this person is to take risks?\"",\""labels\"":[\""0 (Completely unwilling to take risks)\"",\""1\"",\""2\"",\""3\"",\""4\"",\""5\"",\""6\"",\""7\"",\""8\"",\""9\"",\""10 (Very willing to take risks)\""],\""required\"":true}]"", ""internal_node_id"": ""0.0-119.0"", ""trial_index"": 119, ""responses"": ""{\""Q0\"":6}""}"
debugAPDDQI:debugU8E81D,120,1541465824707,"{""rt"": 4440, ""trial_type"": ""face-likert"", ""imgName"": ""Google_1_Shelly Samaniego_1_oval.jpg"", ""isRepeat"": false, ""isRandom"": false, ""time_elapsed"": 657563, ""questions"": ""[{\""prompt\"":\""How willing or unwilling do you think this person is to take risks?\"",\""labels\"":[\""0 (Completely unwilling to take risks)\"",\""1\"",\""2\"",\""3\"",\""4\"",\""5\"",\""6\"",\""7\"",\""8\"",\""9\"",\""10 (Very willing to take risks)\""],\""required\"":true}]"", ""internal_node_id"": ""0.0-120.0"", ""trial_index"": 120, ""responses"": ""{\""Q0\"":7}""}"
debugAPDDQI:debugU8E81D,121,1541465828685,"{""rt"": 3976, ""trial_type"": ""face-likert"", ""imgName"": ""Brian_Mach_1_oval.jpg"", ""isRepeat"": false, ""isRandom"": false, ""time_elapsed"": 661541, ""questions"": ""[{\""prompt\"":\""How willing or unwilling do you think this person is to take risks?\"",\""labels\"":[\""0 (Completely unwilling to take risks)\"",\""1\"",\""2\"",\""3\"",\""4\"",\""5\"",\""6\"",\""7\"",\""8\"",\""9\"",\""10 (Very willing to take risks)\""],\""required\"":true}]"", ""internal_node_id"": ""0.0-121.0"", ""trial_index"": 121, ""responses"": ""{\""Q0\"":4}""}"
debugAPDDQI:debugU8E81D,122,1541465832037,"{""rt"": 3350, ""trial_type"": ""face-likert"", ""imgName"": ""Google_1_Norman Sears_1_oval.jpg"", ""isRepeat"": false, ""isRandom"": false, ""time_elapsed"": 664893, ""questions"": ""[{\""prompt\"":\""How willing or unwilling do you think this person is to take risks?\"",\""labels\"":[\""0 (Completely unwilling to take risks)\"",\""1\"",\""2\"",\""3\"",\""4\"",\""5\"",\""6\"",\""7\"",\""8\"",\""9\"",\""10 (Very willing to take risks)\""],\""required\"":true}]"", ""internal_node_id"": ""0.0-122.0"", ""trial_index"": 122, ""responses"": ""{\""Q0\"":4}""}"
