A6XBXQC3G59N8:3VP0C6EFSI3WXKQRF9ERIP60I906M0,0,1542248532061,"{""rt"": 31308, ""trial_type"": ""instructions"", ""view_history"": ""[{\""page_index\"":0,\""viewing_time\"":28962},{\""page_index\"":1,\""viewing_time\"":1139},{\""page_index\"":2,\""viewing_time\"":1206}]"", ""internal_node_id"": ""0.0-0.0"", ""time_elapsed"": 31309, ""trial_index"": 0}"
A6XBXQC3G59N8:3VP0C6EFSI3WXKQRF9ERIP60I906M0,1,1542248546610,"{""rt"": 12926, ""trial_type"": ""survey-multi-choice"", ""responses"": ""{\""Q0\"":\""Under 18\"",\""Q1\"":\""Male\"",\""Q2\"":\""Yes\"",\""Q3\"":\""1\"",\""Q4\"":\""American Indian or Alaskan Native\"",\""Q5\"":\""Less than a high school diploma\""}"", ""time_elapsed"": 44245, ""sanity_check_1_continue"": false, ""total_unique_trials"": 80, ""random_num"": 4, ""questions"": ""[{\""prompt\"":\""What is your age?\"",\""options\"":[\""Under 18\"",\""18-25\"",\""26-35\"",\""36-45\"",\""46-54\""],\""required\"":true},{\""prompt\"":\""What is your gender?\"",\""options\"":[\""Male\"",\""Female\"",\""Other/Prefer not to say\""],\""required\"":true},{\""prompt\"":\""Are you of Hispanic, Latino, or Spanish origin?\"",\""options\"":[\""Yes\"",\""No\""],\""required\"":true},{\""prompt\"":\""Please choose the option that match the number here: 4\"",\""options\"":[\""1\"",\""2\"",\""3\"",\""4\""],\""required\"":true},{\""prompt\"":\""How would you describe yourself?\"",\""options\"":[\""American Indian or Alaskan Native\"",\""Asian\"",\""Black or African-American\"",\""Native Hawaiian or Other Pacific Islander\"",\""White\""],\""required\"":true},{\""prompt\"":\""What is the highest degree or level of school you have completed? (If you&#8217;re currently enrolled in school, please indicate the highest degree you have received?\"",\""options\"":[\""Less than a high school diploma\"",\""High school degree or equivalent (e.g. GED)\"",\""Some college, no degree\"",\""Associate degree (e.g. AA, AS)\"",\""Bachelor&#8217;s degree (e.g. BA, BS)\"",\""Professional or ppost-baccalauriate degree\""],\""required\"":true}]"", ""internal_node_id"": ""0.0-1.0-0.0"", ""payment"": 1, ""trial_index"": 1}"
A6XBXQC3G59N8:3VP0C6EFSI3WXKQRF9ERIP60I906M0,2,1542248557119,"{""rt"": 10502, ""trial_type"": ""survey-multi-choice"", ""responses"": ""{\""Q0\"":\""Under 18\"",\""Q1\"":\""Male\"",\""Q2\"":\""Yes\"",\""Q3\"":\""4\"",\""Q4\"":\""American Indian or Alaskan Native\"",\""Q5\"":\""Less than a high school diploma\""}"", ""time_elapsed"": 56368, ""sanity_check_1_continue"": true, ""total_unique_trials"": 80, ""random_num"": 4, ""questions"": ""[{\""prompt\"":\""What is your age?\"",\""options\"":[\""Under 18\"",\""18-25\"",\""26-35\"",\""36-45\"",\""46-54\""],\""required\"":true},{\""prompt\"":\""What is your gender?\"",\""options\"":[\""Male\"",\""Female\"",\""Other/Prefer not to say\""],\""required\"":true},{\""prompt\"":\""Are you of Hispanic, Latino, or Spanish origin?\"",\""options\"":[\""Yes\"",\""No\""],\""required\"":true},{\""prompt\"":\""Please choose the option that match the number here: 4\"",\""options\"":[\""1\"",\""2\"",\""3\"",\""4\""],\""required\"":true},{\""prompt\"":\""How would you describe yourself?\"",\""options\"":[\""American Indian or Alaskan Native\"",\""Asian\"",\""Black or African-American\"",\""Native Hawaiian or Other Pacific Islander\"",\""White\""],\""required\"":true},{\""prompt\"":\""What is the highest degree or level of school you have completed? (If you&#8217;re currently enrolled in school, please indicate the highest degree you have received?\"",\""options\"":[\""Less than a high school diploma\"",\""High school degree or equivalent (e.g. GED)\"",\""Some college, no degree\"",\""Associate degree (e.g. AA, AS)\"",\""Bachelor&#8217;s degree (e.g. BA, BS)\"",\""Professional or ppost-baccalauriate degree\""],\""required\"":true}]"", ""internal_node_id"": ""0.0-1.1-0.1"", ""payment"": 1, ""trial_index"": 2}"
A6XBXQC3G59N8:3VP0C6EFSI3WXKQRF9ERIP60I906M0,3,1542248566065,"{""rt"": 8944, ""trial_type"": ""survey-text-req"", ""responses"": ""{\""Q0\"":\""debug\"",\""Q1\"":\""debug\"",\""Q2\"":\""debug\""}"", ""internal_node_id"": ""0.0-2.0"", ""time_elapsed"": 65314, ""trial_index"": 3}"
A6XBXQC3G59N8:3VP0C6EFSI3WXKQRF9ERIP60I906M0,4,1542248573421,"{""rt"": 7353, ""trial_type"": ""survey-text-req"", ""responses"": ""{\""Q0\"":\""How willing or unwilling do you think this person is to take risks?\""}"", ""internal_node_id"": ""0.0-3.0-0.0"", ""comprehension_check_continue"": true, ""time_elapsed"": 72670, ""trial_index"": 4}"
A6XBXQC3G59N8:3VP0C6EFSI3WXKQRF9ERIP60I906M0,5,1542248576553,"{""rt"": 3130, ""trial_type"": ""face-likert-amanda"", ""imgName"": ""/static/images/faces/empty-image-1.jpg"", ""responses"": ""{\""Q0\"":0}"", ""internal_node_id"": ""0.0-4.0"", ""time_elapsed"": 75802, ""questions"": ""[{\""prompt\"":\""<p>How willing or unwilling do you think this person is to take risks? Rate from 1-9</p>\"",\""labels\"":[\""1 <br/>(Completely unwilling to take risks)\"",\""2\"",\""3\"",\""4\"",\""5\"",\""6\"",\""7\"",\""8\"",\""9  <br/>(Very willing to take risks)\""],\""required\"":true}]"", ""trial_index"": 5, ""isRepeat"": false}"
A6XBXQC3G59N8:3VP0C6EFSI3WXKQRF9ERIP60I906M0,6,1542248577654,"{""rt"": 1101, ""trial_type"": ""instructions"", ""view_history"": ""[{\""page_index\"":0,\""viewing_time\"":1101}]"", ""internal_node_id"": ""0.0-5.0"", ""time_elapsed"": 76903, ""trial_index"": 6}"
A6XBXQC3G59N8:3VP0C6EFSI3WXKQRF9ERIP60I906M0,7,1542248580379,"{""rt"": 2723, ""trial_type"": ""face-likert-amanda"", ""imgName"": ""/static/images/2kfaces/Google_1_Gloria Canada_13_oval.jpg"", ""responses"": ""{\""Q0\"":0}"", ""internal_node_id"": ""0.0-6.0-0.0-0.0"", ""time_elapsed"": 79627, ""questions"": ""[{\""prompt\"":\""<p>How willing or unwilling do you think this person is to take risks? Rate from 1-9</p>\"",\""labels\"":[\""1 <br/>(Completely unwilling to take risks)\"",\""2\"",\""3\"",\""4\"",\""5\"",\""6\"",\""7\"",\""8\"",\""9  <br/>(Very willing to take risks)\""],\""required\"":true}]"", ""trial_index"": 7, ""isRepeat"": 0}"
A6XBXQC3G59N8:3VP0C6EFSI3WXKQRF9ERIP60I906M0,8,1542248582722,"{""rt"": 2342, ""trial_type"": ""face-likert-amanda"", ""imgName"": ""/static/images/2kfaces/Google_1_Gertrude Bayne_11_oval.jpg"", ""responses"": ""{\""Q0\"":0}"", ""internal_node_id"": ""0.0-6.0-0.0-1.0"", ""time_elapsed"": 81971, ""questions"": ""[{\""prompt\"":\""<p>How willing or unwilling do you think this person is to take risks? Rate from 1-9</p>\"",\""labels\"":[\""1 <br/>(Completely unwilling to take risks)\"",\""2\"",\""3\"",\""4\"",\""5\"",\""6\"",\""7\"",\""8\"",\""9  <br/>(Very willing to take risks)\""],\""required\"":true}]"", ""trial_index"": 8, ""isRepeat"": 0}"
A6XBXQC3G59N8:3VP0C6EFSI3WXKQRF9ERIP60I906M0,9,1542248585363,"{""rt"": 2639, ""trial_type"": ""face-likert-amanda"", ""imgName"": ""/static/images/2kfaces/Google_1_Ernest Crump_3_oval.jpg"", ""responses"": ""{\""Q0\"":0}"", ""internal_node_id"": ""0.0-6.0-0.0-2.0"", ""time_elapsed"": 84612, ""questions"": ""[{\""prompt\"":\""<p>How willing or unwilling do you think this person is to take risks? Rate from 1-9</p>\"",\""labels\"":[\""1 <br/>(Completely unwilling to take risks)\"",\""2\"",\""3\"",\""4\"",\""5\"",\""6\"",\""7\"",\""8\"",\""9  <br/>(Very willing to take risks)\""],\""required\"":true}]"", ""trial_index"": 9, ""isRepeat"": 0}"
A6XBXQC3G59N8:3VP0C6EFSI3WXKQRF9ERIP60I906M0,10,1542248587469,"{""rt"": 2104, ""trial_type"": ""face-likert-amanda"", ""imgName"": ""/static/images/2kfaces/Google_1_Frank Whitehouse_3_oval.jpg"", ""responses"": ""{\""Q0\"":0}"", ""internal_node_id"": ""0.0-6.0-0.0-3.0"", ""time_elapsed"": 86718, ""questions"": ""[{\""prompt\"":\""<p>How willing or unwilling do you think this person is to take risks? Rate from 1-9</p>\"",\""labels\"":[\""1 <br/>(Completely unwilling to take risks)\"",\""2\"",\""3\"",\""4\"",\""5\"",\""6\"",\""7\"",\""8\"",\""9  <br/>(Very willing to take risks)\""],\""required\"":true}]"", ""trial_index"": 10, ""isRepeat"": 0}"
A6XBXQC3G59N8:3VP0C6EFSI3WXKQRF9ERIP60I906M0,11,1542248589363,"{""rt"": 1893, ""trial_type"": ""face-likert-amanda"", ""imgName"": ""/static/images/2kfaces/Google_1_Rose Barlow_1_oval.jpg"", ""responses"": ""{\""Q0\"":0}"", ""internal_node_id"": ""0.0-6.0-0.0-4.0"", ""time_elapsed"": 88612, ""questions"": ""[{\""prompt\"":\""<p>How willing or unwilling do you think this person is to take risks? Rate from 1-9</p>\"",\""labels\"":[\""1 <br/>(Completely unwilling to take risks)\"",\""2\"",\""3\"",\""4\"",\""5\"",\""6\"",\""7\"",\""8\"",\""9  <br/>(Very willing to take risks)\""],\""required\"":true}]"", ""trial_index"": 11, ""isRepeat"": 0}"
A6XBXQC3G59N8:3VP0C6EFSI3WXKQRF9ERIP60I906M0,12,1542248590677,"{""rt"": 1313, ""trial_type"": ""face-likert-amanda"", ""imgName"": ""/static/images/2kfaces/Google_1_Billy Kiely_1_oval.jpg"", ""responses"": ""{\""Q0\"":0}"", ""internal_node_id"": ""0.0-6.0-0.0-5.0"", ""time_elapsed"": 89926, ""questions"": ""[{\""prompt\"":\""<p>How willing or unwilling do you think this person is to take risks? Rate from 1-9</p>\"",\""labels\"":[\""1 <br/>(Completely unwilling to take risks)\"",\""2\"",\""3\"",\""4\"",\""5\"",\""6\"",\""7\"",\""8\"",\""9  <br/>(Very willing to take risks)\""],\""required\"":true}]"", ""trial_index"": 12, ""isRepeat"": 0}"
A6XBXQC3G59N8:3VP0C6EFSI3WXKQRF9ERIP60I906M0,13,1542248595547,"{""rt"": 4868, ""trial_type"": ""face-likert-amanda"", ""imgName"": ""/static/images/2kfaces/Google_1_Frank Luke_9_oval.jpg"", ""responses"": ""{\""Q0\"":0}"", ""internal_node_id"": ""0.0-6.0-0.0-6.0"", ""time_elapsed"": 94796, ""questions"": ""[{\""prompt\"":\""<p>How willing or unwilling do you think this person is to take risks? Rate from 1-9</p>\"",\""labels\"":[\""1 <br/>(Completely unwilling to take risks)\"",\""2\"",\""3\"",\""4\"",\""5\"",\""6\"",\""7\"",\""8\"",\""9  <br/>(Very willing to take risks)\""],\""required\"":true}]"", ""trial_index"": 13, ""isRepeat"": 0}"
A6XBXQC3G59N8:3VP0C6EFSI3WXKQRF9ERIP60I906M0,14,1542248598129,"{""rt"": 2580, ""trial_type"": ""face-likert-amanda"", ""imgName"": ""/static/images/2kfaces/Google_1_Diana Bateman_7_oval.jpg"", ""responses"": ""{\""Q0\"":0}"", ""internal_node_id"": ""0.0-6.0-0.0-7.0"", ""time_elapsed"": 97378, ""questions"": ""[{\""prompt\"":\""<p>How willing or unwilling do you think this person is to take risks? Rate from 1-9</p>\"",\""labels\"":[\""1 <br/>(Completely unwilling to take risks)\"",\""2\"",\""3\"",\""4\"",\""5\"",\""6\"",\""7\"",\""8\"",\""9  <br/>(Very willing to take risks)\""],\""required\"":true}]"", ""trial_index"": 14, ""isRepeat"": 0}"
A6XBXQC3G59N8:3VP0C6EFSI3WXKQRF9ERIP60I906M0,15,1542248599983,"{""rt"": 1853, ""trial_type"": ""face-likert-amanda"", ""imgName"": ""/static/images/2kfaces/Google_1_Shelley Lund_5_oval.jpg"", ""responses"": ""{\""Q0\"":0}"", ""internal_node_id"": ""0.0-6.0-0.0-8.0"", ""time_elapsed"": 99232, ""questions"": ""[{\""prompt\"":\""<p>How willing or unwilling do you think this person is to take risks? Rate from 1-9</p>\"",\""labels\"":[\""1 <br/>(Completely unwilling to take risks)\"",\""2\"",\""3\"",\""4\"",\""5\"",\""6\"",\""7\"",\""8\"",\""9  <br/>(Very willing to take risks)\""],\""required\"":true}]"", ""trial_index"": 15, ""isRepeat"": 0}"
A6XBXQC3G59N8:3VP0C6EFSI3WXKQRF9ERIP60I906M0,16,1542248602747,"{""rt"": 2763, ""trial_type"": ""face-likert-amanda"", ""imgName"": ""/static/images/2kfaces/Google_1_Stanley Rowden_19_oval.jpg"", ""responses"": ""{\""Q0\"":0}"", ""internal_node_id"": ""0.0-6.0-0.0-9.0"", ""time_elapsed"": 101996, ""questions"": ""[{\""prompt\"":\""<p>How willing or unwilling do you think this person is to take risks? Rate from 1-9</p>\"",\""labels\"":[\""1 <br/>(Completely unwilling to take risks)\"",\""2\"",\""3\"",\""4\"",\""5\"",\""6\"",\""7\"",\""8\"",\""9  <br/>(Very willing to take risks)\""],\""required\"":true}]"", ""trial_index"": 16, ""isRepeat"": 0}"
A6XBXQC3G59N8:3VP0C6EFSI3WXKQRF9ERIP60I906M0,17,1542248607459,"{""rt"": 4711, ""trial_type"": ""face-likert-amanda"", ""imgName"": ""/static/images/2kfaces/Google_1_Ryan Marvel_15_oval.jpg"", ""responses"": ""{\""Q0\"":6}"", ""internal_node_id"": ""0.0-6.0-0.0-10.0"", ""time_elapsed"": 106708, ""questions"": ""[{\""prompt\"":\""<p>How willing or unwilling do you think this person is to take risks? Rate from 1-9</p>\"",\""labels\"":[\""1 <br/>(Completely unwilling to take risks)\"",\""2\"",\""3\"",\""4\"",\""5\"",\""6\"",\""7\"",\""8\"",\""9  <br/>(Very willing to take risks)\""],\""required\"":true}]"", ""trial_index"": 17, ""isRepeat"": 0}"
A6XBXQC3G59N8:3VP0C6EFSI3WXKQRF9ERIP60I906M0,18,1542248614605,"{""rt"": 7144, ""trial_type"": ""face-likert-amanda"", ""imgName"": ""/static/images/2kfaces/Google_1_Samuel Goff_1_oval.jpg"", ""responses"": ""{\""Q0\"":3}"", ""internal_node_id"": ""0.0-6.0-0.0-11.0"", ""time_elapsed"": 113854, ""questions"": ""[{\""prompt\"":\""<p>How willing or unwilling do you think this person is to take risks? Rate from 1-9</p>\"",\""labels\"":[\""1 <br/>(Completely unwilling to take risks)\"",\""2\"",\""3\"",\""4\"",\""5\"",\""6\"",\""7\"",\""8\"",\""9  <br/>(Very willing to take risks)\""],\""required\"":true}]"", ""trial_index"": 18, ""isRepeat"": 0}"
A6XBXQC3G59N8:3VP0C6EFSI3WXKQRF9ERIP60I906M0,19,1542248617703,"{""rt"": 3096, ""trial_type"": ""face-likert-amanda"", ""imgName"": ""/static/images/2kfaces/Google_1_Erika Fletcher_1_oval.jpg"", ""responses"": ""{\""Q0\"":5}"", ""internal_node_id"": ""0.0-6.0-0.0-12.0"", ""time_elapsed"": 116952, ""questions"": ""[{\""prompt\"":\""<p>How willing or unwilling do you think this person is to take risks? Rate from 1-9</p>\"",\""labels\"":[\""1 <br/>(Completely unwilling to take risks)\"",\""2\"",\""3\"",\""4\"",\""5\"",\""6\"",\""7\"",\""8\"",\""9  <br/>(Very willing to take risks)\""],\""required\"":true}]"", ""trial_index"": 19, ""isRepeat"": 0}"
A6XBXQC3G59N8:3VP0C6EFSI3WXKQRF9ERIP60I906M0,20,1542248620320,"{""rt"": 2616, ""trial_type"": ""face-likert-amanda"", ""imgName"": ""/static/images/2kfaces/Google_1_Cindy Morehead_5_oval.jpg"", ""responses"": ""{\""Q0\"":3}"", ""internal_node_id"": ""0.0-6.0-0.0-13.0"", ""time_elapsed"": 119569, ""questions"": ""[{\""prompt\"":\""<p>How willing or unwilling do you think this person is to take risks? Rate from 1-9</p>\"",\""labels\"":[\""1 <br/>(Completely unwilling to take risks)\"",\""2\"",\""3\"",\""4\"",\""5\"",\""6\"",\""7\"",\""8\"",\""9  <br/>(Very willing to take risks)\""],\""required\"":true}]"", ""trial_index"": 20, ""isRepeat"": 0}"
A6XBXQC3G59N8:3VP0C6EFSI3WXKQRF9ERIP60I906M0,21,1542248623573,"{""rt"": 3253, ""trial_type"": ""face-likert-amanda"", ""imgName"": ""/static/images/2kfaces/Google_1_Samuel Paschal_17_oval.jpg"", ""responses"": ""{\""Q0\"":5}"", ""internal_node_id"": ""0.0-6.0-0.0-14.0"", ""time_elapsed"": 122822, ""questions"": ""[{\""prompt\"":\""<p>How willing or unwilling do you think this person is to take risks? Rate from 1-9</p>\"",\""labels\"":[\""1 <br/>(Completely unwilling to take risks)\"",\""2\"",\""3\"",\""4\"",\""5\"",\""6\"",\""7\"",\""8\"",\""9  <br/>(Very willing to take risks)\""],\""required\"":true}]"", ""trial_index"": 21, ""isRepeat"": 0}"
A6XBXQC3G59N8:3VP0C6EFSI3WXKQRF9ERIP60I906M0,22,1542248626842,"{""rt"": 3266, ""trial_type"": ""face-likert-amanda"", ""imgName"": ""/static/images/2kfaces/Google_1_Sara Guajardo_1_oval.jpg"", ""responses"": ""{\""Q0\"":6}"", ""internal_node_id"": ""0.0-6.0-0.0-15.0"", ""time_elapsed"": 126091, ""questions"": ""[{\""prompt\"":\""<p>How willing or unwilling do you think this person is to take risks? Rate from 1-9</p>\"",\""labels\"":[\""1 <br/>(Completely unwilling to take risks)\"",\""2\"",\""3\"",\""4\"",\""5\"",\""6\"",\""7\"",\""8\"",\""9  <br/>(Very willing to take risks)\""],\""required\"":true}]"", ""trial_index"": 22, ""isRepeat"": 0}"
A6XBXQC3G59N8:3VP0C6EFSI3WXKQRF9ERIP60I906M0,23,1542248629145,"{""rt"": 2303, ""trial_type"": ""face-likert-amanda"", ""imgName"": ""/static/images/2kfaces/Google_1_Donna Asberry_5_oval.jpg"", ""responses"": ""{\""Q0\"":6}"", ""internal_node_id"": ""0.0-6.0-0.0-16.0"", ""time_elapsed"": 128394, ""questions"": ""[{\""prompt\"":\""<p>How willing or unwilling do you think this person is to take risks? Rate from 1-9</p>\"",\""labels\"":[\""1 <br/>(Completely unwilling to take risks)\"",\""2\"",\""3\"",\""4\"",\""5\"",\""6\"",\""7\"",\""8\"",\""9  <br/>(Very willing to take risks)\""],\""required\"":true}]"", ""trial_index"": 23, ""isRepeat"": 0}"
A6XBXQC3G59N8:3VP0C6EFSI3WXKQRF9ERIP60I906M0,24,1542248631847,"{""rt"": 2700, ""trial_type"": ""face-likert-amanda"", ""imgName"": ""/static/images/2kfaces/Google_1_Claudia Rohrer_13_oval.jpg"", ""responses"": ""{\""Q0\"":3}"", ""internal_node_id"": ""0.0-6.0-0.0-17.0"", ""time_elapsed"": 131096, ""questions"": ""[{\""prompt\"":\""<p>How willing or unwilling do you think this person is to take risks? Rate from 1-9</p>\"",\""labels\"":[\""1 <br/>(Completely unwilling to take risks)\"",\""2\"",\""3\"",\""4\"",\""5\"",\""6\"",\""7\"",\""8\"",\""9  <br/>(Very willing to take risks)\""],\""required\"":true}]"", ""trial_index"": 24, ""isRepeat"": 0}"
A6XBXQC3G59N8:3VP0C6EFSI3WXKQRF9ERIP60I906M0,25,1542248634695,"{""rt"": 2847, ""trial_type"": ""face-likert-amanda"", ""imgName"": ""/static/images/2kfaces/Google_1_Ronald Driver_19_oval.jpg"", ""responses"": ""{\""Q0\"":7}"", ""internal_node_id"": ""0.0-6.0-0.0-18.0"", ""time_elapsed"": 133944, ""questions"": ""[{\""prompt\"":\""<p>How willing or unwilling do you think this person is to take risks? Rate from 1-9</p>\"",\""labels\"":[\""1 <br/>(Completely unwilling to take risks)\"",\""2\"",\""3\"",\""4\"",\""5\"",\""6\"",\""7\"",\""8\"",\""9  <br/>(Very willing to take risks)\""],\""required\"":true}]"", ""trial_index"": 25, ""isRepeat"": 0}"
A6XBXQC3G59N8:3VP0C6EFSI3WXKQRF9ERIP60I906M0,26,1542248638076,"{""rt"": 3378, ""trial_type"": ""face-likert-amanda"", ""imgName"": ""/static/images/2kfaces/Google_1_Beth Hollister_3_oval.jpg"", ""responses"": ""{\""Q0\"":8}"", ""internal_node_id"": ""0.0-6.0-0.0-19.0"", ""time_elapsed"": 137325, ""questions"": ""[{\""prompt\"":\""<p>How willing or unwilling do you think this person is to take risks? Rate from 1-9</p>\"",\""labels\"":[\""1 <br/>(Completely unwilling to take risks)\"",\""2\"",\""3\"",\""4\"",\""5\"",\""6\"",\""7\"",\""8\"",\""9  <br/>(Very willing to take risks)\""],\""required\"":true}]"", ""trial_index"": 26, ""isRepeat"": 0}"
A6XBXQC3G59N8:3VP0C6EFSI3WXKQRF9ERIP60I906M0,27,1542248640087,"{""rt"": 2011, ""trial_type"": ""face-likert-amanda"", ""imgName"": ""/static/images/2kfaces/Google_1_Molly Palm_5_oval.jpg"", ""responses"": ""{\""Q0\"":6}"", ""internal_node_id"": ""0.0-6.0-0.0-20.0"", ""time_elapsed"": 139336, ""questions"": ""[{\""prompt\"":\""<p>How willing or unwilling do you think this person is to take risks? Rate from 1-9</p>\"",\""labels\"":[\""1 <br/>(Completely unwilling to take risks)\"",\""2\"",\""3\"",\""4\"",\""5\"",\""6\"",\""7\"",\""8\"",\""9  <br/>(Very willing to take risks)\""],\""required\"":true}]"", ""trial_index"": 27, ""isRepeat"": 0}"
A6XBXQC3G59N8:3VP0C6EFSI3WXKQRF9ERIP60I906M0,28,1542248643381,"{""rt"": 3293, ""trial_type"": ""face-likert-amanda"", ""imgName"": ""/static/images/2kfaces/Google_1_Leonard True_5_oval.jpg"", ""responses"": ""{\""Q0\"":3}"", ""internal_node_id"": ""0.0-6.0-0.0-21.0"", ""time_elapsed"": 142630, ""questions"": ""[{\""prompt\"":\""<p>How willing or unwilling do you think this person is to take risks? Rate from 1-9</p>\"",\""labels\"":[\""1 <br/>(Completely unwilling to take risks)\"",\""2\"",\""3\"",\""4\"",\""5\"",\""6\"",\""7\"",\""8\"",\""9  <br/>(Very willing to take risks)\""],\""required\"":true}]"", ""trial_index"": 28, ""isRepeat"": 0}"
A6XBXQC3G59N8:3VP0C6EFSI3WXKQRF9ERIP60I906M0,29,1542248646089,"{""rt"": 2705, ""trial_type"": ""face-likert-amanda"", ""imgName"": ""/static/images/2kfaces/Google_1_Gary Nance_3_oval.jpg"", ""responses"": ""{\""Q0\"":3}"", ""internal_node_id"": ""0.0-6.0-0.0-22.0"", ""time_elapsed"": 145338, ""questions"": ""[{\""prompt\"":\""<p>How willing or unwilling do you think this person is to take risks? Rate from 1-9</p>\"",\""labels\"":[\""1 <br/>(Completely unwilling to take risks)\"",\""2\"",\""3\"",\""4\"",\""5\"",\""6\"",\""7\"",\""8\"",\""9  <br/>(Very willing to take risks)\""],\""required\"":true}]"", ""trial_index"": 29, ""isRepeat"": 0}"
A6XBXQC3G59N8:3VP0C6EFSI3WXKQRF9ERIP60I906M0,30,1542248648612,"{""rt"": 2521, ""trial_type"": ""face-likert-amanda"", ""imgName"": ""/static/images/2kfaces/Google_1_Steve Stamm_1_oval.jpg"", ""responses"": ""{\""Q0\"":6}"", ""internal_node_id"": ""0.0-6.0-0.0-23.0"", ""time_elapsed"": 147860, ""questions"": ""[{\""prompt\"":\""<p>How willing or unwilling do you think this person is to take risks? Rate from 1-9</p>\"",\""labels\"":[\""1 <br/>(Completely unwilling to take risks)\"",\""2\"",\""3\"",\""4\"",\""5\"",\""6\"",\""7\"",\""8\"",\""9  <br/>(Very willing to take risks)\""],\""required\"":true}]"", ""trial_index"": 30, ""isRepeat"": 0}"
A6XBXQC3G59N8:3VP0C6EFSI3WXKQRF9ERIP60I906M0,31,1542248652596,"{""rt"": 3981, ""trial_type"": ""face-likert-amanda"", ""imgName"": ""/static/images/2kfaces/Google_1_Donald Shaw_13_oval.jpg"", ""responses"": ""{\""Q0\"":3}"", ""internal_node_id"": ""0.0-6.0-0.0-24.0"", ""time_elapsed"": 151845, ""questions"": ""[{\""prompt\"":\""<p>How willing or unwilling do you think this person is to take risks? Rate from 1-9</p>\"",\""labels\"":[\""1 <br/>(Completely unwilling to take risks)\"",\""2\"",\""3\"",\""4\"",\""5\"",\""6\"",\""7\"",\""8\"",\""9  <br/>(Very willing to take risks)\""],\""required\"":true}]"", ""trial_index"": 31, ""isRepeat"": 0}"
A6XBXQC3G59N8:3VP0C6EFSI3WXKQRF9ERIP60I906M0,32,1542248656809,"{""rt"": 4213, ""trial_type"": ""face-likert-amanda"", ""imgName"": ""/static/images/2kfaces/Google_1_Jeff Williford_7_oval.jpg"", ""responses"": ""{\""Q0\"":5}"", ""internal_node_id"": ""0.0-6.0-0.0-25.0"", ""time_elapsed"": 156058, ""questions"": ""[{\""prompt\"":\""<p>How willing or unwilling do you think this person is to take risks? Rate from 1-9</p>\"",\""labels\"":[\""1 <br/>(Completely unwilling to take risks)\"",\""2\"",\""3\"",\""4\"",\""5\"",\""6\"",\""7\"",\""8\"",\""9  <br/>(Very willing to take risks)\""],\""required\"":true}]"", ""trial_index"": 32, ""isRepeat"": 0}"
A6XBXQC3G59N8:3VP0C6EFSI3WXKQRF9ERIP60I906M0,33,1542248661623,"{""rt"": 4812, ""trial_type"": ""face-likert-amanda"", ""imgName"": ""/static/images/2kfaces/Google_1_Matthew Vanbuskirk_1_oval.jpg"", ""responses"": ""{\""Q0\"":6}"", ""internal_node_id"": ""0.0-6.0-0.0-26.0"", ""time_elapsed"": 160872, ""questions"": ""[{\""prompt\"":\""<p>How willing or unwilling do you think this person is to take risks? Rate from 1-9</p>\"",\""labels\"":[\""1 <br/>(Completely unwilling to take risks)\"",\""2\"",\""3\"",\""4\"",\""5\"",\""6\"",\""7\"",\""8\"",\""9  <br/>(Very willing to take risks)\""],\""required\"":true}]"", ""trial_index"": 33, ""isRepeat"": 0}"
A6XBXQC3G59N8:3VP0C6EFSI3WXKQRF9ERIP60I906M0,34,1542248664814,"{""rt"": 3188, ""trial_type"": ""face-likert-amanda"", ""imgName"": ""/static/images/2kfaces/Google_1_Bryan Brunner_3_oval.jpg"", ""responses"": ""{\""Q0\"":5}"", ""internal_node_id"": ""0.0-6.0-0.0-27.0"", ""time_elapsed"": 164063, ""questions"": ""[{\""prompt\"":\""<p>How willing or unwilling do you think this person is to take risks? Rate from 1-9</p>\"",\""labels\"":[\""1 <br/>(Completely unwilling to take risks)\"",\""2\"",\""3\"",\""4\"",\""5\"",\""6\"",\""7\"",\""8\"",\""9  <br/>(Very willing to take risks)\""],\""required\"":true}]"", ""trial_index"": 34, ""isRepeat"": 0}"
A6XBXQC3G59N8:3VP0C6EFSI3WXKQRF9ERIP60I906M0,35,1542248666683,"{""rt"": 1869, ""trial_type"": ""face-likert-amanda"", ""imgName"": ""/static/images/2kfaces/Google_1_Paul Reno_1_oval.jpg"", ""responses"": ""{\""Q0\"":5}"", ""internal_node_id"": ""0.0-6.0-0.0-28.0"", ""time_elapsed"": 165932, ""questions"": ""[{\""prompt\"":\""<p>How willing or unwilling do you think this person is to take risks? Rate from 1-9</p>\"",\""labels\"":[\""1 <br/>(Completely unwilling to take risks)\"",\""2\"",\""3\"",\""4\"",\""5\"",\""6\"",\""7\"",\""8\"",\""9  <br/>(Very willing to take risks)\""],\""required\"":true}]"", ""trial_index"": 35, ""isRepeat"": 0}"
A6XBXQC3G59N8:3VP0C6EFSI3WXKQRF9ERIP60I906M0,36,1542248674922,"{""rt"": 8237, ""trial_type"": ""face-likert-amanda"", ""imgName"": ""/static/images/2kfaces/Google_1_Veronica Percy_7_oval.jpg"", ""responses"": ""{\""Q0\"":5}"", ""internal_node_id"": ""0.0-6.0-0.0-29.0"", ""time_elapsed"": 174171, ""questions"": ""[{\""prompt\"":\""<p>How willing or unwilling do you think this person is to take risks? Rate from 1-9</p>\"",\""labels\"":[\""1 <br/>(Completely unwilling to take risks)\"",\""2\"",\""3\"",\""4\"",\""5\"",\""6\"",\""7\"",\""8\"",\""9  <br/>(Very willing to take risks)\""],\""required\"":true}]"", ""trial_index"": 36, ""isRepeat"": 0}"
A6XBXQC3G59N8:3VP0C6EFSI3WXKQRF9ERIP60I906M0,37,1542248683816,"{""rt"": 8893, ""trial_type"": ""face-likert-amanda"", ""imgName"": ""/static/images/2kfaces/Google_1_Claudia Olivarez_9_oval.jpg"", ""responses"": ""{\""Q0\"":7}"", ""internal_node_id"": ""0.0-6.0-0.0-30.0"", ""time_elapsed"": 183065, ""questions"": ""[{\""prompt\"":\""<p>How willing or unwilling do you think this person is to take risks? Rate from 1-9</p>\"",\""labels\"":[\""1 <br/>(Completely unwilling to take risks)\"",\""2\"",\""3\"",\""4\"",\""5\"",\""6\"",\""7\"",\""8\"",\""9  <br/>(Very willing to take risks)\""],\""required\"":true}]"", ""trial_index"": 37, ""isRepeat"": 0}"
A6XBXQC3G59N8:3VP0C6EFSI3WXKQRF9ERIP60I906M0,38,1542248686564,"{""rt"": 2747, ""trial_type"": ""face-likert-amanda"", ""imgName"": ""/static/images/2kfaces/Google_1_Sherry Mcmichael_11_oval.jpg"", ""responses"": ""{\""Q0\"":7}"", ""internal_node_id"": ""0.0-6.0-0.0-31.0"", ""time_elapsed"": 185813, ""questions"": ""[{\""prompt\"":\""<p>How willing or unwilling do you think this person is to take risks? Rate from 1-9</p>\"",\""labels\"":[\""1 <br/>(Completely unwilling to take risks)\"",\""2\"",\""3\"",\""4\"",\""5\"",\""6\"",\""7\"",\""8\"",\""9  <br/>(Very willing to take risks)\""],\""required\"":true}]"", ""trial_index"": 38, ""isRepeat"": 0}"
A6XBXQC3G59N8:3VP0C6EFSI3WXKQRF9ERIP60I906M0,39,1542248689507,"{""rt"": 2943, ""trial_type"": ""face-likert-amanda"", ""imgName"": ""/static/images/2kfaces/Google_1_Florence Melton_1_oval.jpg"", ""responses"": ""{\""Q0\"":6}"", ""internal_node_id"": ""0.0-6.0-0.0-32.0"", ""time_elapsed"": 188756, ""questions"": ""[{\""prompt\"":\""<p>How willing or unwilling do you think this person is to take risks? Rate from 1-9</p>\"",\""labels\"":[\""1 <br/>(Completely unwilling to take risks)\"",\""2\"",\""3\"",\""4\"",\""5\"",\""6\"",\""7\"",\""8\"",\""9  <br/>(Very willing to take risks)\""],\""required\"":true}]"", ""trial_index"": 39, ""isRepeat"": 0}"
A6XBXQC3G59N8:3VP0C6EFSI3WXKQRF9ERIP60I906M0,40,1542248692673,"{""rt"": 3164, ""trial_type"": ""face-likert-amanda"", ""imgName"": ""/static/images/2kfaces/Google_1_Sean Raleigh_7_oval.jpg"", ""responses"": ""{\""Q0\"":7}"", ""internal_node_id"": ""0.0-6.0-0.0-33.0"", ""time_elapsed"": 191922, ""questions"": ""[{\""prompt\"":\""<p>How willing or unwilling do you think this person is to take risks? Rate from 1-9</p>\"",\""labels\"":[\""1 <br/>(Completely unwilling to take risks)\"",\""2\"",\""3\"",\""4\"",\""5\"",\""6\"",\""7\"",\""8\"",\""9  <br/>(Very willing to take risks)\""],\""required\"":true}]"", ""trial_index"": 40, ""isRepeat"": 0}"
A6XBXQC3G59N8:3VP0C6EFSI3WXKQRF9ERIP60I906M0,41,1542248694954,"{""rt"": 2278, ""trial_type"": ""face-likert-amanda"", ""imgName"": ""/static/images/2kfaces/Google_1_Charlotte Dearborn_13_oval.jpg"", ""responses"": ""{\""Q0\"":3}"", ""internal_node_id"": ""0.0-6.0-0.0-34.0"", ""time_elapsed"": 194203, ""questions"": ""[{\""prompt\"":\""<p>How willing or unwilling do you think this person is to take risks? Rate from 1-9</p>\"",\""labels\"":[\""1 <br/>(Completely unwilling to take risks)\"",\""2\"",\""3\"",\""4\"",\""5\"",\""6\"",\""7\"",\""8\"",\""9  <br/>(Very willing to take risks)\""],\""required\"":true}]"", ""trial_index"": 41, ""isRepeat"": 0}"
A6XBXQC3G59N8:3VP0C6EFSI3WXKQRF9ERIP60I906M0,42,1542248696324,"{""rt"": 1368, ""trial_type"": ""face-likert-amanda"", ""imgName"": ""/static/images/2kfaces/Google_1_Belinda Dupuis_9_oval.jpg"", ""responses"": ""{\""Q0\"":3}"", ""internal_node_id"": ""0.0-6.0-0.0-35.0"", ""time_elapsed"": 195572, ""questions"": ""[{\""prompt\"":\""<p>How willing or unwilling do you think this person is to take risks? Rate from 1-9</p>\"",\""labels\"":[\""1 <br/>(Completely unwilling to take risks)\"",\""2\"",\""3\"",\""4\"",\""5\"",\""6\"",\""7\"",\""8\"",\""9  <br/>(Very willing to take risks)\""],\""required\"":true}]"", ""trial_index"": 42, ""isRepeat"": 0}"
A6XBXQC3G59N8:3VP0C6EFSI3WXKQRF9ERIP60I906M0,43,1542248697484,"{""rt"": 1159, ""trial_type"": ""face-likert-amanda"", ""imgName"": ""/static/images/2kfaces/Google_1_Antonio Benn_12_oval.jpg"", ""responses"": ""{\""Q0\"":3}"", ""internal_node_id"": ""0.0-6.0-0.0-36.0"", ""time_elapsed"": 196732, ""questions"": ""[{\""prompt\"":\""<p>How willing or unwilling do you think this person is to take risks? Rate from 1-9</p>\"",\""labels\"":[\""1 <br/>(Completely unwilling to take risks)\"",\""2\"",\""3\"",\""4\"",\""5\"",\""6\"",\""7\"",\""8\"",\""9  <br/>(Very willing to take risks)\""],\""required\"":true}]"", ""trial_index"": 43, ""isRepeat"": 0}"
A6XBXQC3G59N8:3VP0C6EFSI3WXKQRF9ERIP60I906M0,44,1542248699048,"{""rt"": 1563, ""trial_type"": ""face-likert-amanda"", ""imgName"": ""/static/images/2kfaces/Google_1_Colleen Summer_5_oval.jpg"", ""responses"": ""{\""Q0\"":3}"", ""internal_node_id"": ""0.0-6.0-0.0-37.0"", ""time_elapsed"": 198297, ""questions"": ""[{\""prompt\"":\""<p>How willing or unwilling do you think this person is to take risks? Rate from 1-9</p>\"",\""labels\"":[\""1 <br/>(Completely unwilling to take risks)\"",\""2\"",\""3\"",\""4\"",\""5\"",\""6\"",\""7\"",\""8\"",\""9  <br/>(Very willing to take risks)\""],\""required\"":true}]"", ""trial_index"": 44, ""isRepeat"": 0}"
A6XBXQC3G59N8:3VP0C6EFSI3WXKQRF9ERIP60I906M0,45,1542248701482,"{""rt"": 2432, ""trial_type"": ""face-likert-amanda"", ""imgName"": ""/static/images/2kfaces/Google_1_Mark Houser_17_oval.jpg"", ""responses"": ""{\""Q0\"":3}"", ""internal_node_id"": ""0.0-6.0-0.0-38.0"", ""time_elapsed"": 200731, ""questions"": ""[{\""prompt\"":\""<p>How willing or unwilling do you think this person is to take risks? Rate from 1-9</p>\"",\""labels\"":[\""1 <br/>(Completely unwilling to take risks)\"",\""2\"",\""3\"",\""4\"",\""5\"",\""6\"",\""7\"",\""8\"",\""9  <br/>(Very willing to take risks)\""],\""required\"":true}]"", ""trial_index"": 45, ""isRepeat"": 0}"
A6XBXQC3G59N8:3VP0C6EFSI3WXKQRF9ERIP60I906M0,46,1542248703218,"{""rt"": 1734, ""trial_type"": ""face-likert-amanda"", ""imgName"": ""/static/images/2kfaces/Google_1_Florence Lott_19_oval.jpg"", ""responses"": ""{\""Q0\"":4}"", ""internal_node_id"": ""0.0-6.0-0.0-39.0"", ""time_elapsed"": 202467, ""questions"": ""[{\""prompt\"":\""<p>How willing or unwilling do you think this person is to take risks? Rate from 1-9</p>\"",\""labels\"":[\""1 <br/>(Completely unwilling to take risks)\"",\""2\"",\""3\"",\""4\"",\""5\"",\""6\"",\""7\"",\""8\"",\""9  <br/>(Very willing to take risks)\""],\""required\"":true}]"", ""trial_index"": 46, ""isRepeat"": 0}"
A6XBXQC3G59N8:3VP0C6EFSI3WXKQRF9ERIP60I906M0,47,1542248703976,"{""rt"": null, ""trial_type"": ""html-keyboard-response"", ""stimulus"": ""<p>Good job! Let us take a quick break!</p>"", ""internal_node_id"": ""0.0-6.0-1.0"", ""time_elapsed"": 203225, ""key_press"": null, ""trial_index"": 47}"
A6XBXQC3G59N8:3VP0C6EFSI3WXKQRF9ERIP60I906M0,48,1542248710428,"{""rt"": 6450, ""trial_type"": ""face-likert-amanda"", ""imgName"": ""/static/images/2kfaces/Google_1_Cheryl Griffin_15_oval.jpg"", ""responses"": ""{\""Q0\"":4}"", ""internal_node_id"": ""0.0-7.0-0.0-0.0"", ""time_elapsed"": 209677, ""questions"": ""[{\""prompt\"":\""<p>How willing or unwilling do you think this person is to take risks? Rate from 1-9</p>\"",\""labels\"":[\""1 <br/>(Completely unwilling to take risks)\"",\""2\"",\""3\"",\""4\"",\""5\"",\""6\"",\""7\"",\""8\"",\""9  <br/>(Very willing to take risks)\""],\""required\"":true}]"", ""trial_index"": 48, ""isRepeat"": 0}"
A6XBXQC3G59N8:3VP0C6EFSI3WXKQRF9ERIP60I906M0,49,1542248711596,"{""rt"": 1166, ""trial_type"": ""face-likert-amanda"", ""imgName"": ""/static/images/2kfaces/Google_1_Alma Poor_7_oval.jpg"", ""responses"": ""{\""Q0\"":4}"", ""internal_node_id"": ""0.0-7.0-0.0-1.0"", ""time_elapsed"": 210845, ""questions"": ""[{\""prompt\"":\""<p>How willing or unwilling do you think this person is to take risks? Rate from 1-9</p>\"",\""labels\"":[\""1 <br/>(Completely unwilling to take risks)\"",\""2\"",\""3\"",\""4\"",\""5\"",\""6\"",\""7\"",\""8\"",\""9  <br/>(Very willing to take risks)\""],\""required\"":true}]"", ""trial_index"": 49, ""isRepeat"": 0}"
A6XBXQC3G59N8:3VP0C6EFSI3WXKQRF9ERIP60I906M0,50,1542248712930,"{""rt"": 1332, ""trial_type"": ""face-likert-amanda"", ""imgName"": ""/static/images/2kfaces/Google_1_Victoria Ambrose_17_oval.jpg"", ""responses"": ""{\""Q0\"":4}"", ""internal_node_id"": ""0.0-7.0-0.0-2.0"", ""time_elapsed"": 212179, ""questions"": ""[{\""prompt\"":\""<p>How willing or unwilling do you think this person is to take risks? Rate from 1-9</p>\"",\""labels\"":[\""1 <br/>(Completely unwilling to take risks)\"",\""2\"",\""3\"",\""4\"",\""5\"",\""6\"",\""7\"",\""8\"",\""9  <br/>(Very willing to take risks)\""],\""required\"":true}]"", ""trial_index"": 50, ""isRepeat"": 0}"
A6XBXQC3G59N8:3VP0C6EFSI3WXKQRF9ERIP60I906M0,51,1542248714006,"{""rt"": 1074, ""trial_type"": ""face-likert-amanda"", ""imgName"": ""/static/images/2kfaces/Alice_Mckellar_11_oval.jpg"", ""responses"": ""{\""Q0\"":4}"", ""internal_node_id"": ""0.0-7.0-0.0-3.0"", ""time_elapsed"": 213255, ""questions"": ""[{\""prompt\"":\""<p>How willing or unwilling do you think this person is to take risks? Rate from 1-9</p>\"",\""labels\"":[\""1 <br/>(Completely unwilling to take risks)\"",\""2\"",\""3\"",\""4\"",\""5\"",\""6\"",\""7\"",\""8\"",\""9  <br/>(Very willing to take risks)\""],\""required\"":true}]"", ""trial_index"": 51, ""isRepeat"": 0}"
A6XBXQC3G59N8:3VP0C6EFSI3WXKQRF9ERIP60I906M0,52,1542248715440,"{""rt"": 1432, ""trial_type"": ""face-likert-amanda"", ""imgName"": ""/static/images/2kfaces/Google_1_Stanley Kato_17_oval.jpg"", ""responses"": ""{\""Q0\"":4}"", ""internal_node_id"": ""0.0-7.0-0.0-4.0"", ""time_elapsed"": 214689, ""questions"": ""[{\""prompt\"":\""<p>How willing or unwilling do you think this person is to take risks? Rate from 1-9</p>\"",\""labels\"":[\""1 <br/>(Completely unwilling to take risks)\"",\""2\"",\""3\"",\""4\"",\""5\"",\""6\"",\""7\"",\""8\"",\""9  <br/>(Very willing to take risks)\""],\""required\"":true}]"", ""trial_index"": 52, ""isRepeat"": 0}"
A6XBXQC3G59N8:3VP0C6EFSI3WXKQRF9ERIP60I906M0,53,1542248716753,"{""rt"": 1312, ""trial_type"": ""face-likert-amanda"", ""imgName"": ""/static/images/2kfaces/Google_1_Douglas Tanguay_9_oval.jpg"", ""responses"": ""{\""Q0\"":4}"", ""internal_node_id"": ""0.0-7.0-0.0-5.0"", ""time_elapsed"": 216002, ""questions"": ""[{\""prompt\"":\""<p>How willing or unwilling do you think this person is to take risks? Rate from 1-9</p>\"",\""labels\"":[\""1 <br/>(Completely unwilling to take risks)\"",\""2\"",\""3\"",\""4\"",\""5\"",\""6\"",\""7\"",\""8\"",\""9  <br/>(Very willing to take risks)\""],\""required\"":true}]"", ""trial_index"": 53, ""isRepeat"": 0}"
A6XBXQC3G59N8:3VP0C6EFSI3WXKQRF9ERIP60I906M0,54,1542248718203,"{""rt"": 1447, ""trial_type"": ""face-likert-amanda"", ""imgName"": ""/static/images/2kfaces/Google_1_Stephen Conley_1_oval.jpg"", ""responses"": ""{\""Q0\"":3}"", ""internal_node_id"": ""0.0-7.0-0.0-6.0"", ""time_elapsed"": 217452, ""questions"": ""[{\""prompt\"":\""<p>How willing or unwilling do you think this person is to take risks? Rate from 1-9</p>\"",\""labels\"":[\""1 <br/>(Completely unwilling to take risks)\"",\""2\"",\""3\"",\""4\"",\""5\"",\""6\"",\""7\"",\""8\"",\""9  <br/>(Very willing to take risks)\""],\""required\"":true}]"", ""trial_index"": 54, ""isRepeat"": 0}"
A6XBXQC3G59N8:3VP0C6EFSI3WXKQRF9ERIP60I906M0,55,1542248719658,"{""rt"": 1453, ""trial_type"": ""face-likert-amanda"", ""imgName"": ""/static/images/2kfaces/Google_1_Timothy Galvan_11_oval.jpg"", ""responses"": ""{\""Q0\"":3}"", ""internal_node_id"": ""0.0-7.0-0.0-7.0"", ""time_elapsed"": 218907, ""questions"": ""[{\""prompt\"":\""<p>How willing or unwilling do you think this person is to take risks? Rate from 1-9</p>\"",\""labels\"":[\""1 <br/>(Completely unwilling to take risks)\"",\""2\"",\""3\"",\""4\"",\""5\"",\""6\"",\""7\"",\""8\"",\""9  <br/>(Very willing to take risks)\""],\""required\"":true}]"", ""trial_index"": 55, ""isRepeat"": 0}"
A6XBXQC3G59N8:3VP0C6EFSI3WXKQRF9ERIP60I906M0,56,1542248721108,"{""rt"": 1449, ""trial_type"": ""face-likert-amanda"", ""imgName"": ""/static/images/2kfaces/Google_1_Henry Gumm_19_oval.jpg"", ""responses"": ""{\""Q0\"":4}"", ""internal_node_id"": ""0.0-7.0-0.0-8.0"", ""time_elapsed"": 220357, ""questions"": ""[{\""prompt\"":\""<p>How willing or unwilling do you think this person is to take risks? Rate from 1-9</p>\"",\""labels\"":[\""1 <br/>(Completely unwilling to take risks)\"",\""2\"",\""3\"",\""4\"",\""5\"",\""6\"",\""7\"",\""8\"",\""9  <br/>(Very willing to take risks)\""],\""required\"":true}]"", ""trial_index"": 56, ""isRepeat"": 0}"
A6XBXQC3G59N8:3VP0C6EFSI3WXKQRF9ERIP60I906M0,57,1542248722580,"{""rt"": 1471, ""trial_type"": ""face-likert-amanda"", ""imgName"": ""/static/images/2kfaces/Google_1_Jeffery Mcclinton_7-oval.jpg"", ""responses"": ""{\""Q0\"":4}"", ""internal_node_id"": ""0.0-7.0-0.0-9.0"", ""time_elapsed"": 221829, ""questions"": ""[{\""prompt\"":\""<p>How willing or unwilling do you think this person is to take risks? Rate from 1-9</p>\"",\""labels\"":[\""1 <br/>(Completely unwilling to take risks)\"",\""2\"",\""3\"",\""4\"",\""5\"",\""6\"",\""7\"",\""8\"",\""9  <br/>(Very willing to take risks)\""],\""required\"":true}]"", ""trial_index"": 57, ""isRepeat"": 0}"
A6XBXQC3G59N8:3VP0C6EFSI3WXKQRF9ERIP60I906M0,58,1542248723860,"{""rt"": 1278, ""trial_type"": ""face-likert-amanda"", ""imgName"": ""/static/images/2kfaces/Google_1_Marjorie Rule_3_oval.jpg"", ""responses"": ""{\""Q0\"":4}"", ""internal_node_id"": ""0.0-7.0-0.0-10.0"", ""time_elapsed"": 223109, ""questions"": ""[{\""prompt\"":\""<p>How willing or unwilling do you think this person is to take risks? Rate from 1-9</p>\"",\""labels\"":[\""1 <br/>(Completely unwilling to take risks)\"",\""2\"",\""3\"",\""4\"",\""5\"",\""6\"",\""7\"",\""8\"",\""9  <br/>(Very willing to take risks)\""],\""required\"":true}]"", ""trial_index"": 58, ""isRepeat"": 0}"
A6XBXQC3G59N8:3VP0C6EFSI3WXKQRF9ERIP60I906M0,59,1542248725447,"{""rt"": 1586, ""trial_type"": ""face-likert-amanda"", ""imgName"": ""/static/images/2kfaces/Google_1_Paul Horst_15_oval.jpg"", ""responses"": ""{\""Q0\"":4}"", ""internal_node_id"": ""0.0-7.0-0.0-11.0"", ""time_elapsed"": 224696, ""questions"": ""[{\""prompt\"":\""<p>How willing or unwilling do you think this person is to take risks? Rate from 1-9</p>\"",\""labels\"":[\""1 <br/>(Completely unwilling to take risks)\"",\""2\"",\""3\"",\""4\"",\""5\"",\""6\"",\""7\"",\""8\"",\""9  <br/>(Very willing to take risks)\""],\""required\"":true}]"", ""trial_index"": 59, ""isRepeat"": 0}"
A6XBXQC3G59N8:3VP0C6EFSI3WXKQRF9ERIP60I906M0,60,1542248726930,"{""rt"": 1481, ""trial_type"": ""face-likert-amanda"", ""imgName"": ""/static/images/2kfaces/Google_1_Jonathan Marek_5_oval.jpg"", ""responses"": ""{\""Q0\"":5}"", ""internal_node_id"": ""0.0-7.0-0.0-12.0"", ""time_elapsed"": 226179, ""questions"": ""[{\""prompt\"":\""<p>How willing or unwilling do you think this person is to take risks? Rate from 1-9</p>\"",\""labels\"":[\""1 <br/>(Completely unwilling to take risks)\"",\""2\"",\""3\"",\""4\"",\""5\"",\""6\"",\""7\"",\""8\"",\""9  <br/>(Very willing to take risks)\""],\""required\"":true}]"", ""trial_index"": 60, ""isRepeat"": 0}"
A6XBXQC3G59N8:3VP0C6EFSI3WXKQRF9ERIP60I906M0,61,1542248728578,"{""rt"": 1647, ""trial_type"": ""face-likert-amanda"", ""imgName"": ""/static/images/2kfaces/Google_1_Jose Monaghan_9_oval.jpg"", ""responses"": ""{\""Q0\"":5}"", ""internal_node_id"": ""0.0-7.0-0.0-13.0"", ""time_elapsed"": 227827, ""questions"": ""[{\""prompt\"":\""<p>How willing or unwilling do you think this person is to take risks? Rate from 1-9</p>\"",\""labels\"":[\""1 <br/>(Completely unwilling to take risks)\"",\""2\"",\""3\"",\""4\"",\""5\"",\""6\"",\""7\"",\""8\"",\""9  <br/>(Very willing to take risks)\""],\""required\"":true}]"", ""trial_index"": 61, ""isRepeat"": 0}"
A6XBXQC3G59N8:3VP0C6EFSI3WXKQRF9ERIP60I906M0,62,1542248730058,"{""rt"": 1480, ""trial_type"": ""face-likert-amanda"", ""imgName"": ""/static/images/2kfaces/Google_1_Eva Kirkman_15_oval.jpg"", ""responses"": ""{\""Q0\"":2}"", ""internal_node_id"": ""0.0-7.0-0.0-14.0"", ""time_elapsed"": 229307, ""questions"": ""[{\""prompt\"":\""<p>How willing or unwilling do you think this person is to take risks? Rate from 1-9</p>\"",\""labels\"":[\""1 <br/>(Completely unwilling to take risks)\"",\""2\"",\""3\"",\""4\"",\""5\"",\""6\"",\""7\"",\""8\"",\""9  <br/>(Very willing to take risks)\""],\""required\"":true}]"", ""trial_index"": 62, ""isRepeat"": 0}"
A6XBXQC3G59N8:3VP0C6EFSI3WXKQRF9ERIP60I906M0,63,1542248731547,"{""rt"": 1489, ""trial_type"": ""face-likert-amanda"", ""imgName"": ""/static/images/2kfaces/Google_1_Eric Osuna_3_oval.jpg"", ""responses"": ""{\""Q0\"":4}"", ""internal_node_id"": ""0.0-7.0-0.0-15.0"", ""time_elapsed"": 230796, ""questions"": ""[{\""prompt\"":\""<p>How willing or unwilling do you think this person is to take risks? Rate from 1-9</p>\"",\""labels\"":[\""1 <br/>(Completely unwilling to take risks)\"",\""2\"",\""3\"",\""4\"",\""5\"",\""6\"",\""7\"",\""8\"",\""9  <br/>(Very willing to take risks)\""],\""required\"":true}]"", ""trial_index"": 63, ""isRepeat"": 0}"
A6XBXQC3G59N8:3VP0C6EFSI3WXKQRF9ERIP60I906M0,64,1542248733574,"{""rt"": 2024, ""trial_type"": ""face-likert-amanda"", ""imgName"": ""/static/images/2kfaces/Google_1_Shelia Latham_17_oval.jpg"", ""responses"": ""{\""Q0\"":4}"", ""internal_node_id"": ""0.0-7.0-0.0-16.0"", ""time_elapsed"": 232823, ""questions"": ""[{\""prompt\"":\""<p>How willing or unwilling do you think this person is to take risks? Rate from 1-9</p>\"",\""labels\"":[\""1 <br/>(Completely unwilling to take risks)\"",\""2\"",\""3\"",\""4\"",\""5\"",\""6\"",\""7\"",\""8\"",\""9  <br/>(Very willing to take risks)\""],\""required\"":true}]"", ""trial_index"": 64, ""isRepeat"": 0}"
A6XBXQC3G59N8:3VP0C6EFSI3WXKQRF9ERIP60I906M0,65,1542248735030,"{""rt"": 1456, ""trial_type"": ""face-likert-amanda"", ""imgName"": ""/static/images/2kfaces/Google_1_Carole Bentley_7_oval.jpg"", ""responses"": ""{\""Q0\"":4}"", ""internal_node_id"": ""0.0-7.0-0.0-17.0"", ""time_elapsed"": 234279, ""questions"": ""[{\""prompt\"":\""<p>How willing or unwilling do you think this person is to take risks? Rate from 1-9</p>\"",\""labels\"":[\""1 <br/>(Completely unwilling to take risks)\"",\""2\"",\""3\"",\""4\"",\""5\"",\""6\"",\""7\"",\""8\"",\""9  <br/>(Very willing to take risks)\""],\""required\"":true}]"", ""trial_index"": 65, ""isRepeat"": 0}"
A6XBXQC3G59N8:3VP0C6EFSI3WXKQRF9ERIP60I906M0,66,1542248736571,"{""rt"": 1540, ""trial_type"": ""face-likert-amanda"", ""imgName"": ""/static/images/2kfaces/Google_1_Mark Detwiler_9_oval.jpg"", ""responses"": ""{\""Q0\"":5}"", ""internal_node_id"": ""0.0-7.0-0.0-18.0"", ""time_elapsed"": 235820, ""questions"": ""[{\""prompt\"":\""<p>How willing or unwilling do you think this person is to take risks? Rate from 1-9</p>\"",\""labels\"":[\""1 <br/>(Completely unwilling to take risks)\"",\""2\"",\""3\"",\""4\"",\""5\"",\""6\"",\""7\"",\""8\"",\""9  <br/>(Very willing to take risks)\""],\""required\"":true}]"", ""trial_index"": 66, ""isRepeat"": 0}"
A6XBXQC3G59N8:3VP0C6EFSI3WXKQRF9ERIP60I906M0,67,1542248738304,"{""rt"": 1733, ""trial_type"": ""face-likert-amanda"", ""imgName"": ""/static/images/2kfaces/Google_1_Sarah Woodcock_3_oval.jpg"", ""responses"": ""{\""Q0\"":5}"", ""internal_node_id"": ""0.0-7.0-0.0-19.0"", ""time_elapsed"": 237553, ""questions"": ""[{\""prompt\"":\""<p>How willing or unwilling do you think this person is to take risks? Rate from 1-9</p>\"",\""labels\"":[\""1 <br/>(Completely unwilling to take risks)\"",\""2\"",\""3\"",\""4\"",\""5\"",\""6\"",\""7\"",\""8\"",\""9  <br/>(Very willing to take risks)\""],\""required\"":true}]"", ""trial_index"": 67, ""isRepeat"": 0}"
A6XBXQC3G59N8:3VP0C6EFSI3WXKQRF9ERIP60I906M0,68,1542248739976,"{""rt"": 1671, ""trial_type"": ""face-likert-amanda"", ""imgName"": ""/static/images/2kfaces/Google_1_Russell Gillam_17_oval.jpg"", ""responses"": ""{\""Q0\"":3}"", ""internal_node_id"": ""0.0-7.0-0.0-20.0"", ""time_elapsed"": 239225, ""questions"": ""[{\""prompt\"":\""<p>How willing or unwilling do you think this person is to take risks? Rate from 1-9</p>\"",\""labels\"":[\""1 <br/>(Completely unwilling to take risks)\"",\""2\"",\""3\"",\""4\"",\""5\"",\""6\"",\""7\"",\""8\"",\""9  <br/>(Very willing to take risks)\""],\""required\"":true}]"", ""trial_index"": 68, ""isRepeat"": 0}"
A6XBXQC3G59N8:3VP0C6EFSI3WXKQRF9ERIP60I906M0,69,1542248741902,"{""rt"": 1924, ""trial_type"": ""face-likert-amanda"", ""imgName"": ""/static/images/2kfaces/Brian_Mach_1_oval.jpg"", ""responses"": ""{\""Q0\"":4}"", ""internal_node_id"": ""0.0-7.0-0.0-21.0"", ""time_elapsed"": 241151, ""questions"": ""[{\""prompt\"":\""<p>How willing or unwilling do you think this person is to take risks? Rate from 1-9</p>\"",\""labels\"":[\""1 <br/>(Completely unwilling to take risks)\"",\""2\"",\""3\"",\""4\"",\""5\"",\""6\"",\""7\"",\""8\"",\""9  <br/>(Very willing to take risks)\""],\""required\"":true}]"", ""trial_index"": 69, ""isRepeat"": 0}"
A6XBXQC3G59N8:3VP0C6EFSI3WXKQRF9ERIP60I906M0,70,1542248743926,"{""rt"": 2023, ""trial_type"": ""face-likert-amanda"", ""imgName"": ""/static/images/2kfaces/Google_1_Norman Westfall_5_oval.jpg"", ""responses"": ""{\""Q0\"":4}"", ""internal_node_id"": ""0.0-7.0-0.0-22.0"", ""time_elapsed"": 243175, ""questions"": ""[{\""prompt\"":\""<p>How willing or unwilling do you think this person is to take risks? Rate from 1-9</p>\"",\""labels\"":[\""1 <br/>(Completely unwilling to take risks)\"",\""2\"",\""3\"",\""4\"",\""5\"",\""6\"",\""7\"",\""8\"",\""9  <br/>(Very willing to take risks)\""],\""required\"":true}]"", ""trial_index"": 70, ""isRepeat"": 0}"
A6XBXQC3G59N8:3VP0C6EFSI3WXKQRF9ERIP60I906M0,71,1542248746452,"{""rt"": 2524, ""trial_type"": ""face-likert-amanda"", ""imgName"": ""/static/images/2kfaces/Google_1_Joshua Lessard_11_oval.jpg"", ""responses"": ""{\""Q0\"":4}"", ""internal_node_id"": ""0.0-7.0-0.0-23.0"", ""time_elapsed"": 245701, ""questions"": ""[{\""prompt\"":\""<p>How willing or unwilling do you think this person is to take risks? Rate from 1-9</p>\"",\""labels\"":[\""1 <br/>(Completely unwilling to take risks)\"",\""2\"",\""3\"",\""4\"",\""5\"",\""6\"",\""7\"",\""8\"",\""9  <br/>(Very willing to take risks)\""],\""required\"":true}]"", ""trial_index"": 71, ""isRepeat"": 0}"
A6XBXQC3G59N8:3VP0C6EFSI3WXKQRF9ERIP60I906M0,72,1542248747918,"{""rt"": 1464, ""trial_type"": ""face-likert-amanda"", ""imgName"": ""/static/images/2kfaces/Google_1_Andrew Diggs_9_oval.jpg"", ""responses"": ""{\""Q0\"":3}"", ""internal_node_id"": ""0.0-7.0-0.0-24.0"", ""time_elapsed"": 247167, ""questions"": ""[{\""prompt\"":\""<p>How willing or unwilling do you think this person is to take risks? Rate from 1-9</p>\"",\""labels\"":[\""1 <br/>(Completely unwilling to take risks)\"",\""2\"",\""3\"",\""4\"",\""5\"",\""6\"",\""7\"",\""8\"",\""9  <br/>(Very willing to take risks)\""],\""required\"":true}]"", ""trial_index"": 72, ""isRepeat"": 0}"
A6XBXQC3G59N8:3VP0C6EFSI3WXKQRF9ERIP60I906M0,73,1542248749425,"{""rt"": 1505, ""trial_type"": ""face-likert-amanda"", ""imgName"": ""/static/images/2kfaces/Bryan_Shanklin_9_oval.jpg"", ""responses"": ""{\""Q0\"":4}"", ""internal_node_id"": ""0.0-7.0-0.0-25.0"", ""time_elapsed"": 248673, ""questions"": ""[{\""prompt\"":\""<p>How willing or unwilling do you think this person is to take risks? Rate from 1-9</p>\"",\""labels\"":[\""1 <br/>(Completely unwilling to take risks)\"",\""2\"",\""3\"",\""4\"",\""5\"",\""6\"",\""7\"",\""8\"",\""9  <br/>(Very willing to take risks)\""],\""required\"":true}]"", ""trial_index"": 73, ""isRepeat"": 0}"
A6XBXQC3G59N8:3VP0C6EFSI3WXKQRF9ERIP60I906M0,74,1542248751672,"{""rt"": 2246, ""trial_type"": ""face-likert-amanda"", ""imgName"": ""/static/images/2kfaces/Google_1_Gregory Arriola_3_oval.jpg"", ""responses"": ""{\""Q0\"":6}"", ""internal_node_id"": ""0.0-7.0-0.0-26.0"", ""time_elapsed"": 250921, ""questions"": ""[{\""prompt\"":\""<p>How willing or unwilling do you think this person is to take risks? Rate from 1-9</p>\"",\""labels\"":[\""1 <br/>(Completely unwilling to take risks)\"",\""2\"",\""3\"",\""4\"",\""5\"",\""6\"",\""7\"",\""8\"",\""9  <br/>(Very willing to take risks)\""],\""required\"":true}]"", ""trial_index"": 74, ""isRepeat"": 0}"
A6XBXQC3G59N8:3VP0C6EFSI3WXKQRF9ERIP60I906M0,75,1542248753562,"{""rt"": 1889, ""trial_type"": ""face-likert-amanda"", ""imgName"": ""/static/images/2kfaces/Google_1_Kara Mickelson_13_oval.jpg"", ""responses"": ""{\""Q0\"":4}"", ""internal_node_id"": ""0.0-7.0-0.0-27.0"", ""time_elapsed"": 252811, ""questions"": ""[{\""prompt\"":\""<p>How willing or unwilling do you think this person is to take risks? Rate from 1-9</p>\"",\""labels\"":[\""1 <br/>(Completely unwilling to take risks)\"",\""2\"",\""3\"",\""4\"",\""5\"",\""6\"",\""7\"",\""8\"",\""9  <br/>(Very willing to take risks)\""],\""required\"":true}]"", ""trial_index"": 75, ""isRepeat"": 0}"
A6XBXQC3G59N8:3VP0C6EFSI3WXKQRF9ERIP60I906M0,76,1542248755846,"{""rt"": 2283, ""trial_type"": ""face-likert-amanda"", ""imgName"": ""/static/images/2kfaces/Google_1_Kathleen Sartain_1_oval.jpg"", ""responses"": ""{\""Q0\"":4}"", ""internal_node_id"": ""0.0-7.0-0.0-28.0"", ""time_elapsed"": 255095, ""questions"": ""[{\""prompt\"":\""<p>How willing or unwilling do you think this person is to take risks? Rate from 1-9</p>\"",\""labels\"":[\""1 <br/>(Completely unwilling to take risks)\"",\""2\"",\""3\"",\""4\"",\""5\"",\""6\"",\""7\"",\""8\"",\""9  <br/>(Very willing to take risks)\""],\""required\"":true}]"", ""trial_index"": 76, ""isRepeat"": 0}"
A6XBXQC3G59N8:3VP0C6EFSI3WXKQRF9ERIP60I906M0,77,1542248757394,"{""rt"": 1546, ""trial_type"": ""face-likert-amanda"", ""imgName"": ""/static/images/2kfaces/Google_1_Gary Perri_3_oval.jpg"", ""responses"": ""{\""Q0\"":3}"", ""internal_node_id"": ""0.0-7.0-0.0-29.0"", ""time_elapsed"": 256643, ""questions"": ""[{\""prompt\"":\""<p>How willing or unwilling do you think this person is to take risks? Rate from 1-9</p>\"",\""labels\"":[\""1 <br/>(Completely unwilling to take risks)\"",\""2\"",\""3\"",\""4\"",\""5\"",\""6\"",\""7\"",\""8\"",\""9  <br/>(Very willing to take risks)\""],\""required\"":true}]"", ""trial_index"": 77, ""isRepeat"": 0}"
A6XBXQC3G59N8:3VP0C6EFSI3WXKQRF9ERIP60I906M0,78,1542248759016,"{""rt"": 1620, ""trial_type"": ""face-likert-amanda"", ""imgName"": ""/static/images/2kfaces/Google_1_Amelia Lines_11_oval.jpg"", ""responses"": ""{\""Q0\"":3}"", ""internal_node_id"": ""0.0-7.0-0.0-30.0"", ""time_elapsed"": 258264, ""questions"": ""[{\""prompt\"":\""<p>How willing or unwilling do you think this person is to take risks? Rate from 1-9</p>\"",\""labels\"":[\""1 <br/>(Completely unwilling to take risks)\"",\""2\"",\""3\"",\""4\"",\""5\"",\""6\"",\""7\"",\""8\"",\""9  <br/>(Very willing to take risks)\""],\""required\"":true}]"", ""trial_index"": 78, ""isRepeat"": 0}"
A6XBXQC3G59N8:3VP0C6EFSI3WXKQRF9ERIP60I906M0,79,1542248760961,"{""rt"": 1942, ""trial_type"": ""face-likert-amanda"", ""imgName"": ""/static/images/2kfaces/Google_1_Kenneth Rigsby_15_oval.jpg"", ""responses"": ""{\""Q0\"":4}"", ""internal_node_id"": ""0.0-7.0-0.0-31.0"", ""time_elapsed"": 260210, ""questions"": ""[{\""prompt\"":\""<p>How willing or unwilling do you think this person is to take risks? Rate from 1-9</p>\"",\""labels\"":[\""1 <br/>(Completely unwilling to take risks)\"",\""2\"",\""3\"",\""4\"",\""5\"",\""6\"",\""7\"",\""8\"",\""9  <br/>(Very willing to take risks)\""],\""required\"":true}]"", ""trial_index"": 79, ""isRepeat"": 0}"
A6XBXQC3G59N8:3VP0C6EFSI3WXKQRF9ERIP60I906M0,80,1542248762208,"{""rt"": 1246, ""trial_type"": ""face-likert-amanda"", ""imgName"": ""/static/images/2kfaces/Google_1_Louis Mceachern_7_oval.jpg"", ""responses"": ""{\""Q0\"":4}"", ""internal_node_id"": ""0.0-7.0-0.0-32.0"", ""time_elapsed"": 261457, ""questions"": ""[{\""prompt\"":\""<p>How willing or unwilling do you think this person is to take risks? Rate from 1-9</p>\"",\""labels\"":[\""1 <br/>(Completely unwilling to take risks)\"",\""2\"",\""3\"",\""4\"",\""5\"",\""6\"",\""7\"",\""8\"",\""9  <br/>(Very willing to take risks)\""],\""required\"":true}]"", ""trial_index"": 80, ""isRepeat"": 0}"
A6XBXQC3G59N8:3VP0C6EFSI3WXKQRF9ERIP60I906M0,81,1542248763490,"{""rt"": 1281, ""trial_type"": ""face-likert-amanda"", ""imgName"": ""/static/images/2kfaces/Google_1_Valerie Noble_9_oval.jpg"", ""responses"": ""{\""Q0\"":4}"", ""internal_node_id"": ""0.0-7.0-0.0-33.0"", ""time_elapsed"": 262739, ""questions"": ""[{\""prompt\"":\""<p>How willing or unwilling do you think this person is to take risks? Rate from 1-9</p>\"",\""labels\"":[\""1 <br/>(Completely unwilling to take risks)\"",\""2\"",\""3\"",\""4\"",\""5\"",\""6\"",\""7\"",\""8\"",\""9  <br/>(Very willing to take risks)\""],\""required\"":true}]"", ""trial_index"": 81, ""isRepeat"": 0}"
A6XBXQC3G59N8:3VP0C6EFSI3WXKQRF9ERIP60I906M0,82,1542248764710,"{""rt"": 1218, ""trial_type"": ""face-likert-amanda"", ""imgName"": ""/static/images/2kfaces/Google_1_Leonard Overcash_5_oval.jpg"", ""responses"": ""{\""Q0\"":4}"", ""internal_node_id"": ""0.0-7.0-0.0-34.0"", ""time_elapsed"": 263959, ""questions"": ""[{\""prompt\"":\""<p>How willing or unwilling do you think this person is to take risks? Rate from 1-9</p>\"",\""labels\"":[\""1 <br/>(Completely unwilling to take risks)\"",\""2\"",\""3\"",\""4\"",\""5\"",\""6\"",\""7\"",\""8\"",\""9  <br/>(Very willing to take risks)\""],\""required\"":true}]"", ""trial_index"": 82, ""isRepeat"": 0}"
A6XBXQC3G59N8:3VP0C6EFSI3WXKQRF9ERIP60I906M0,83,1542248766584,"{""rt"": 1874, ""trial_type"": ""face-likert-amanda"", ""imgName"": ""/static/images/2kfaces/Google_1_Wilma Allman_15_oval.jpg"", ""responses"": ""{\""Q0\"":5}"", ""internal_node_id"": ""0.0-7.0-0.0-35.0"", ""time_elapsed"": 265833, ""questions"": ""[{\""prompt\"":\""<p>How willing or unwilling do you think this person is to take risks? Rate from 1-9</p>\"",\""labels\"":[\""1 <br/>(Completely unwilling to take risks)\"",\""2\"",\""3\"",\""4\"",\""5\"",\""6\"",\""7\"",\""8\"",\""9  <br/>(Very willing to take risks)\""],\""required\"":true}]"", ""trial_index"": 83, ""isRepeat"": 0}"
A6XBXQC3G59N8:3VP0C6EFSI3WXKQRF9ERIP60I906M0,84,1542248767990,"{""rt"": 1405, ""trial_type"": ""face-likert-amanda"", ""imgName"": ""/static/images/2kfaces/Google_1_Kenneth Cabral_19_oval.jpg"", ""responses"": ""{\""Q0\"":5}"", ""internal_node_id"": ""0.0-7.0-0.0-36.0"", ""time_elapsed"": 267239, ""questions"": ""[{\""prompt\"":\""<p>How willing or unwilling do you think this person is to take risks? Rate from 1-9</p>\"",\""labels\"":[\""1 <br/>(Completely unwilling to take risks)\"",\""2\"",\""3\"",\""4\"",\""5\"",\""6\"",\""7\"",\""8\"",\""9  <br/>(Very willing to take risks)\""],\""required\"":true}]"", ""trial_index"": 84, ""isRepeat"": 0}"
A6XBXQC3G59N8:3VP0C6EFSI3WXKQRF9ERIP60I906M0,85,1542248769695,"{""rt"": 1704, ""trial_type"": ""face-likert-amanda"", ""imgName"": ""/static/images/2kfaces/Google_1_Rodney Wyant_13_oval.jpg"", ""responses"": ""{\""Q0\"":6}"", ""internal_node_id"": ""0.0-7.0-0.0-37.0"", ""time_elapsed"": 268944, ""questions"": ""[{\""prompt\"":\""<p>How willing or unwilling do you think this person is to take risks? Rate from 1-9</p>\"",\""labels\"":[\""1 <br/>(Completely unwilling to take risks)\"",\""2\"",\""3\"",\""4\"",\""5\"",\""6\"",\""7\"",\""8\"",\""9  <br/>(Very willing to take risks)\""],\""required\"":true}]"", ""trial_index"": 85, ""isRepeat"": 0}"
A6XBXQC3G59N8:3VP0C6EFSI3WXKQRF9ERIP60I906M0,86,1542248771291,"{""rt"": 1594, ""trial_type"": ""face-likert-amanda"", ""imgName"": ""/static/images/2kfaces/Google_1_Tina Middleton_7_oval.jpg"", ""responses"": ""{\""Q0\"":5}"", ""internal_node_id"": ""0.0-7.0-0.0-38.0"", ""time_elapsed"": 270540, ""questions"": ""[{\""prompt\"":\""<p>How willing or unwilling do you think this person is to take risks? Rate from 1-9</p>\"",\""labels\"":[\""1 <br/>(Completely unwilling to take risks)\"",\""2\"",\""3\"",\""4\"",\""5\"",\""6\"",\""7\"",\""8\"",\""9  <br/>(Very willing to take risks)\""],\""required\"":true}]"", ""trial_index"": 86, ""isRepeat"": 0}"
A6XBXQC3G59N8:3VP0C6EFSI3WXKQRF9ERIP60I906M0,87,1542248772673,"{""rt"": 1381, ""trial_type"": ""face-likert-amanda"", ""imgName"": ""/static/images/2kfaces/Google_1_Vera Becker_5_oval.jpg"", ""responses"": ""{\""Q0\"":5}"", ""internal_node_id"": ""0.0-7.0-0.0-39.0"", ""time_elapsed"": 271922, ""questions"": ""[{\""prompt\"":\""<p>How willing or unwilling do you think this person is to take risks? Rate from 1-9</p>\"",\""labels\"":[\""1 <br/>(Completely unwilling to take risks)\"",\""2\"",\""3\"",\""4\"",\""5\"",\""6\"",\""7\"",\""8\"",\""9  <br/>(Very willing to take risks)\""],\""required\"":true}]"", ""trial_index"": 87, ""isRepeat"": 0}"
A6XBXQC3G59N8:3VP0C6EFSI3WXKQRF9ERIP60I906M0,88,1542248773679,"{""rt"": null, ""trial_type"": ""html-keyboard-response"", ""stimulus"": ""<p>Good job! Let us take a quick break!</p>"", ""internal_node_id"": ""0.0-7.0-1.0"", ""time_elapsed"": 272928, ""key_press"": null, ""trial_index"": 88}"
A6XBXQC3G59N8:3VP0C6EFSI3WXKQRF9ERIP60I906M0,89,1542248776181,"{""rt"": null, ""trial_type"": ""html-keyboard-response"", ""stimulus"": ""<p>Enjoy a longer break :)</p>"", ""internal_node_id"": ""0.0-8.0"", ""time_elapsed"": 275430, ""key_press"": null, ""trial_index"": 89}"
A6XBXQC3G59N8:3VP0C6EFSI3WXKQRF9ERIP60I906M0,90,1542248778209,"{""rt"": 2027, ""trial_type"": ""face-likert-amanda"", ""imgName"": ""/static/images/2kfaces/Google_1_Henry Gumm_19_oval.jpg"", ""responses"": ""{\""Q0\"":3}"", ""internal_node_id"": ""0.0-9.0-0.0-0.0"", ""time_elapsed"": 277458, ""questions"": ""[{\""prompt\"":\""<p>How willing or unwilling do you think this person is to take risks? Rate from 1-9</p>\"",\""labels\"":[\""1 <br/>(Completely unwilling to take risks)\"",\""2\"",\""3\"",\""4\"",\""5\"",\""6\"",\""7\"",\""8\"",\""9  <br/>(Very willing to take risks)\""],\""required\"":true}]"", ""trial_index"": 90, ""isRepeat"": 1}"
A6XBXQC3G59N8:3VP0C6EFSI3WXKQRF9ERIP60I906M0,91,1542248779963,"{""rt"": 1751, ""trial_type"": ""face-likert-amanda"", ""imgName"": ""/static/images/2kfaces/Google_1_Matthew Vanbuskirk_1_oval.jpg"", ""responses"": ""{\""Q0\"":3}"", ""internal_node_id"": ""0.0-9.0-0.0-1.0"", ""time_elapsed"": 279211, ""questions"": ""[{\""prompt\"":\""<p>How willing or unwilling do you think this person is to take risks? Rate from 1-9</p>\"",\""labels\"":[\""1 <br/>(Completely unwilling to take risks)\"",\""2\"",\""3\"",\""4\"",\""5\"",\""6\"",\""7\"",\""8\"",\""9  <br/>(Very willing to take risks)\""],\""required\"":true}]"", ""trial_index"": 91, ""isRepeat"": 1}"
A6XBXQC3G59N8:3VP0C6EFSI3WXKQRF9ERIP60I906M0,92,1542248781289,"{""rt"": 1325, ""trial_type"": ""face-likert-amanda"", ""imgName"": ""/static/images/2kfaces/Brian_Mach_1_oval.jpg"", ""responses"": ""{\""Q0\"":4}"", ""internal_node_id"": ""0.0-9.0-0.0-2.0"", ""time_elapsed"": 280538, ""questions"": ""[{\""prompt\"":\""<p>How willing or unwilling do you think this person is to take risks? Rate from 1-9</p>\"",\""labels\"":[\""1 <br/>(Completely unwilling to take risks)\"",\""2\"",\""3\"",\""4\"",\""5\"",\""6\"",\""7\"",\""8\"",\""9  <br/>(Very willing to take risks)\""],\""required\"":true}]"", ""trial_index"": 92, ""isRepeat"": 1}"
A6XBXQC3G59N8:3VP0C6EFSI3WXKQRF9ERIP60I906M0,93,1542248782928,"{""rt"": 1637, ""trial_type"": ""face-likert-amanda"", ""imgName"": ""/static/images/2kfaces/Google_1_Samuel Paschal_17_oval.jpg"", ""responses"": ""{\""Q0\"":4}"", ""internal_node_id"": ""0.0-9.0-0.0-3.0"", ""time_elapsed"": 282177, ""questions"": ""[{\""prompt\"":\""<p>How willing or unwilling do you think this person is to take risks? Rate from 1-9</p>\"",\""labels\"":[\""1 <br/>(Completely unwilling to take risks)\"",\""2\"",\""3\"",\""4\"",\""5\"",\""6\"",\""7\"",\""8\"",\""9  <br/>(Very willing to take risks)\""],\""required\"":true}]"", ""trial_index"": 93, ""isRepeat"": 1}"
A6XBXQC3G59N8:3VP0C6EFSI3WXKQRF9ERIP60I906M0,94,1542248784012,"{""rt"": 1082, ""trial_type"": ""face-likert-amanda"", ""imgName"": ""/static/images/2kfaces/Google_1_Ernest Crump_3_oval.jpg"", ""responses"": ""{\""Q0\"":5}"", ""internal_node_id"": ""0.0-9.0-0.0-4.0"", ""time_elapsed"": 283261, ""questions"": ""[{\""prompt\"":\""<p>How willing or unwilling do you think this person is to take risks? Rate from 1-9</p>\"",\""labels\"":[\""1 <br/>(Completely unwilling to take risks)\"",\""2\"",\""3\"",\""4\"",\""5\"",\""6\"",\""7\"",\""8\"",\""9  <br/>(Very willing to take risks)\""],\""required\"":true}]"", ""trial_index"": 94, ""isRepeat"": 1}"
A6XBXQC3G59N8:3VP0C6EFSI3WXKQRF9ERIP60I906M0,95,1542248786237,"{""rt"": 2223, ""trial_type"": ""face-likert-amanda"", ""imgName"": ""/static/images/2kfaces/Google_1_Samuel Goff_1_oval.jpg"", ""responses"": ""{\""Q0\"":5}"", ""internal_node_id"": ""0.0-9.0-0.0-5.0"", ""time_elapsed"": 285486, ""questions"": ""[{\""prompt\"":\""<p>How willing or unwilling do you think this person is to take risks? Rate from 1-9</p>\"",\""labels\"":[\""1 <br/>(Completely unwilling to take risks)\"",\""2\"",\""3\"",\""4\"",\""5\"",\""6\"",\""7\"",\""8\"",\""9  <br/>(Very willing to take risks)\""],\""required\"":true}]"", ""trial_index"": 95, ""isRepeat"": 1}"
A6XBXQC3G59N8:3VP0C6EFSI3WXKQRF9ERIP60I906M0,96,1542248787538,"{""rt"": 1300, ""trial_type"": ""face-likert-amanda"", ""imgName"": ""/static/images/2kfaces/Google_1_Russell Gillam_17_oval.jpg"", ""responses"": ""{\""Q0\"":4}"", ""internal_node_id"": ""0.0-9.0-0.0-6.0"", ""time_elapsed"": 286787, ""questions"": ""[{\""prompt\"":\""<p>How willing or unwilling do you think this person is to take risks? Rate from 1-9</p>\"",\""labels\"":[\""1 <br/>(Completely unwilling to take risks)\"",\""2\"",\""3\"",\""4\"",\""5\"",\""6\"",\""7\"",\""8\"",\""9  <br/>(Very willing to take risks)\""],\""required\"":true}]"", ""trial_index"": 96, ""isRepeat"": 1}"
A6XBXQC3G59N8:3VP0C6EFSI3WXKQRF9ERIP60I906M0,97,1542248788838,"{""rt"": 1298, ""trial_type"": ""face-likert-amanda"", ""imgName"": ""/static/images/2kfaces/Google_1_Eva Kirkman_15_oval.jpg"", ""responses"": ""{\""Q0\"":4}"", ""internal_node_id"": ""0.0-9.0-0.0-7.0"", ""time_elapsed"": 288087, ""questions"": ""[{\""prompt\"":\""<p>How willing or unwilling do you think this person is to take risks? Rate from 1-9</p>\"",\""labels\"":[\""1 <br/>(Completely unwilling to take risks)\"",\""2\"",\""3\"",\""4\"",\""5\"",\""6\"",\""7\"",\""8\"",\""9  <br/>(Very willing to take risks)\""],\""required\"":true}]"", ""trial_index"": 97, ""isRepeat"": 1}"
A6XBXQC3G59N8:3VP0C6EFSI3WXKQRF9ERIP60I906M0,98,1542248791006,"{""rt"": 2167, ""trial_type"": ""face-likert-amanda"", ""imgName"": ""/static/images/2kfaces/Google_1_Carole Bentley_7_oval.jpg"", ""responses"": ""{\""Q0\"":3}"", ""internal_node_id"": ""0.0-9.0-0.0-8.0"", ""time_elapsed"": 290255, ""questions"": ""[{\""prompt\"":\""<p>How willing or unwilling do you think this person is to take risks? Rate from 1-9</p>\"",\""labels\"":[\""1 <br/>(Completely unwilling to take risks)\"",\""2\"",\""3\"",\""4\"",\""5\"",\""6\"",\""7\"",\""8\"",\""9  <br/>(Very willing to take risks)\""],\""required\"":true}]"", ""trial_index"": 98, ""isRepeat"": 1}"
A6XBXQC3G59N8:3VP0C6EFSI3WXKQRF9ERIP60I906M0,99,1542248792662,"{""rt"": 1655, ""trial_type"": ""face-likert-amanda"", ""imgName"": ""/static/images/2kfaces/Google_1_Kenneth Cabral_19_oval.jpg"", ""responses"": ""{\""Q0\"":3}"", ""internal_node_id"": ""0.0-9.0-0.0-9.0"", ""time_elapsed"": 291911, ""questions"": ""[{\""prompt\"":\""<p>How willing or unwilling do you think this person is to take risks? Rate from 1-9</p>\"",\""labels\"":[\""1 <br/>(Completely unwilling to take risks)\"",\""2\"",\""3\"",\""4\"",\""5\"",\""6\"",\""7\"",\""8\"",\""9  <br/>(Very willing to take risks)\""],\""required\"":true}]"", ""trial_index"": 99, ""isRepeat"": 1}"
A6XBXQC3G59N8:3VP0C6EFSI3WXKQRF9ERIP60I906M0,100,1542248794267,"{""rt"": 1603, ""trial_type"": ""face-likert-amanda"", ""imgName"": ""/static/images/2kfaces/Google_1_Frank Luke_9_oval.jpg"", ""responses"": ""{\""Q0\"":3}"", ""internal_node_id"": ""0.0-9.0-0.0-10.0"", ""time_elapsed"": 293516, ""questions"": ""[{\""prompt\"":\""<p>How willing or unwilling do you think this person is to take risks? Rate from 1-9</p>\"",\""labels\"":[\""1 <br/>(Completely unwilling to take risks)\"",\""2\"",\""3\"",\""4\"",\""5\"",\""6\"",\""7\"",\""8\"",\""9  <br/>(Very willing to take risks)\""],\""required\"":true}]"", ""trial_index"": 100, ""isRepeat"": 1}"
A6XBXQC3G59N8:3VP0C6EFSI3WXKQRF9ERIP60I906M0,101,1542248795983,"{""rt"": 1714, ""trial_type"": ""face-likert-amanda"", ""imgName"": ""/static/images/2kfaces/Google_1_Donna Asberry_5_oval.jpg"", ""responses"": ""{\""Q0\"":2}"", ""internal_node_id"": ""0.0-9.0-0.0-11.0"", ""time_elapsed"": 295232, ""questions"": ""[{\""prompt\"":\""<p>How willing or unwilling do you think this person is to take risks? Rate from 1-9</p>\"",\""labels\"":[\""1 <br/>(Completely unwilling to take risks)\"",\""2\"",\""3\"",\""4\"",\""5\"",\""6\"",\""7\"",\""8\"",\""9  <br/>(Very willing to take risks)\""],\""required\"":true}]"", ""trial_index"": 101, ""isRepeat"": 1}"
A6XBXQC3G59N8:3VP0C6EFSI3WXKQRF9ERIP60I906M0,102,1542248797826,"{""rt"": 1842, ""trial_type"": ""face-likert-amanda"", ""imgName"": ""/static/images/2kfaces/Google_1_Paul Reno_1_oval.jpg"", ""responses"": ""{\""Q0\"":4}"", ""internal_node_id"": ""0.0-9.0-0.0-12.0"", ""time_elapsed"": 297075, ""questions"": ""[{\""prompt\"":\""<p>How willing or unwilling do you think this person is to take risks? Rate from 1-9</p>\"",\""labels\"":[\""1 <br/>(Completely unwilling to take risks)\"",\""2\"",\""3\"",\""4\"",\""5\"",\""6\"",\""7\"",\""8\"",\""9  <br/>(Very willing to take risks)\""],\""required\"":true}]"", ""trial_index"": 102, ""isRepeat"": 1}"
A6XBXQC3G59N8:3VP0C6EFSI3WXKQRF9ERIP60I906M0,103,1542248799290,"{""rt"": 1461, ""trial_type"": ""face-likert-amanda"", ""imgName"": ""/static/images/2kfaces/Google_1_Tina Middleton_7_oval.jpg"", ""responses"": ""{\""Q0\"":3}"", ""internal_node_id"": ""0.0-9.0-0.0-13.0"", ""time_elapsed"": 298539, ""questions"": ""[{\""prompt\"":\""<p>How willing or unwilling do you think this person is to take risks? Rate from 1-9</p>\"",\""labels\"":[\""1 <br/>(Completely unwilling to take risks)\"",\""2\"",\""3\"",\""4\"",\""5\"",\""6\"",\""7\"",\""8\"",\""9  <br/>(Very willing to take risks)\""],\""required\"":true}]"", ""trial_index"": 103, ""isRepeat"": 1}"
A6XBXQC3G59N8:3VP0C6EFSI3WXKQRF9ERIP60I906M0,104,1542248803498,"{""rt"": 4207, ""trial_type"": ""face-likert-amanda"", ""imgName"": ""/static/images/2kfaces/Google_1_Andrew Diggs_9_oval.jpg"", ""responses"": ""{\""Q0\"":4}"", ""internal_node_id"": ""0.0-9.0-0.0-14.0"", ""time_elapsed"": 302747, ""questions"": ""[{\""prompt\"":\""<p>How willing or unwilling do you think this person is to take risks? Rate from 1-9</p>\"",\""labels\"":[\""1 <br/>(Completely unwilling to take risks)\"",\""2\"",\""3\"",\""4\"",\""5\"",\""6\"",\""7\"",\""8\"",\""9  <br/>(Very willing to take risks)\""],\""required\"":true}]"", ""trial_index"": 104, ""isRepeat"": 1}"
A6XBXQC3G59N8:3VP0C6EFSI3WXKQRF9ERIP60I906M0,105,1542248805221,"{""rt"": 1721, ""trial_type"": ""face-likert-amanda"", ""imgName"": ""/static/images/2kfaces/Google_1_Wilma Allman_15_oval.jpg"", ""responses"": ""{\""Q0\"":5}"", ""internal_node_id"": ""0.0-9.0-0.0-15.0"", ""time_elapsed"": 304470, ""questions"": ""[{\""prompt\"":\""<p>How willing or unwilling do you think this person is to take risks? Rate from 1-9</p>\"",\""labels\"":[\""1 <br/>(Completely unwilling to take risks)\"",\""2\"",\""3\"",\""4\"",\""5\"",\""6\"",\""7\"",\""8\"",\""9  <br/>(Very willing to take risks)\""],\""required\"":true}]"", ""trial_index"": 105, ""isRepeat"": 1}"
A6XBXQC3G59N8:3VP0C6EFSI3WXKQRF9ERIP60I906M0,106,1542248807707,"{""rt"": 2485, ""trial_type"": ""face-likert-amanda"", ""imgName"": ""/static/images/2kfaces/Google_1_Louis Mceachern_7_oval.jpg"", ""responses"": ""{\""Q0\"":5}"", ""internal_node_id"": ""0.0-9.0-0.0-16.0"", ""time_elapsed"": 306956, ""questions"": ""[{\""prompt\"":\""<p>How willing or unwilling do you think this person is to take risks? Rate from 1-9</p>\"",\""labels\"":[\""1 <br/>(Completely unwilling to take risks)\"",\""2\"",\""3\"",\""4\"",\""5\"",\""6\"",\""7\"",\""8\"",\""9  <br/>(Very willing to take risks)\""],\""required\"":true}]"", ""trial_index"": 106, ""isRepeat"": 1}"
A6XBXQC3G59N8:3VP0C6EFSI3WXKQRF9ERIP60I906M0,107,1542248809717,"{""rt"": 2009, ""trial_type"": ""face-likert-amanda"", ""imgName"": ""/static/images/2kfaces/Bryan_Shanklin_9_oval.jpg"", ""responses"": ""{\""Q0\"":4}"", ""internal_node_id"": ""0.0-9.0-0.0-17.0"", ""time_elapsed"": 308966, ""questions"": ""[{\""prompt\"":\""<p>How willing or unwilling do you think this person is to take risks? Rate from 1-9</p>\"",\""labels\"":[\""1 <br/>(Completely unwilling to take risks)\"",\""2\"",\""3\"",\""4\"",\""5\"",\""6\"",\""7\"",\""8\"",\""9  <br/>(Very willing to take risks)\""],\""required\"":true}]"", ""trial_index"": 107, ""isRepeat"": 1}"
A6XBXQC3G59N8:3VP0C6EFSI3WXKQRF9ERIP60I906M0,108,1542248811658,"{""rt"": 1940, ""trial_type"": ""face-likert-amanda"", ""imgName"": ""/static/images/2kfaces/Google_1_Timothy Galvan_11_oval.jpg"", ""responses"": ""{\""Q0\"":3}"", ""internal_node_id"": ""0.0-9.0-0.0-18.0"", ""time_elapsed"": 310907, ""questions"": ""[{\""prompt\"":\""<p>How willing or unwilling do you think this person is to take risks? Rate from 1-9</p>\"",\""labels\"":[\""1 <br/>(Completely unwilling to take risks)\"",\""2\"",\""3\"",\""4\"",\""5\"",\""6\"",\""7\"",\""8\"",\""9  <br/>(Very willing to take risks)\""],\""required\"":true}]"", ""trial_index"": 108, ""isRepeat"": 1}"
A6XBXQC3G59N8:3VP0C6EFSI3WXKQRF9ERIP60I906M0,109,1542248813605,"{""rt"": 1947, ""trial_type"": ""face-likert-amanda"", ""imgName"": ""/static/images/2kfaces/Google_1_Stephen Conley_1_oval.jpg"", ""responses"": ""{\""Q0\"":5}"", ""internal_node_id"": ""0.0-9.0-0.0-19.0"", ""time_elapsed"": 312854, ""questions"": ""[{\""prompt\"":\""<p>How willing or unwilling do you think this person is to take risks? Rate from 1-9</p>\"",\""labels\"":[\""1 <br/>(Completely unwilling to take risks)\"",\""2\"",\""3\"",\""4\"",\""5\"",\""6\"",\""7\"",\""8\"",\""9  <br/>(Very willing to take risks)\""],\""required\"":true}]"", ""trial_index"": 109, ""isRepeat"": 1}"
A6XBXQC3G59N8:3VP0C6EFSI3WXKQRF9ERIP60I906M0,110,1542248815551,"{""rt"": 1945, ""trial_type"": ""face-likert-amanda"", ""imgName"": ""/static/images/2kfaces/Google_1_Douglas Tanguay_9_oval.jpg"", ""responses"": ""{\""Q0\"":5}"", ""internal_node_id"": ""0.0-9.0-0.0-20.0"", ""time_elapsed"": 314800, ""questions"": ""[{\""prompt\"":\""<p>How willing or unwilling do you think this person is to take risks? Rate from 1-9</p>\"",\""labels\"":[\""1 <br/>(Completely unwilling to take risks)\"",\""2\"",\""3\"",\""4\"",\""5\"",\""6\"",\""7\"",\""8\"",\""9  <br/>(Very willing to take risks)\""],\""required\"":true}]"", ""trial_index"": 110, ""isRepeat"": 1}"
A6XBXQC3G59N8:3VP0C6EFSI3WXKQRF9ERIP60I906M0,111,1542248817415,"{""rt"": 1863, ""trial_type"": ""face-likert-amanda"", ""imgName"": ""/static/images/2kfaces/Google_1_Jonathan Marek_5_oval.jpg"", ""responses"": ""{\""Q0\"":6}"", ""internal_node_id"": ""0.0-9.0-0.0-21.0"", ""time_elapsed"": 316664, ""questions"": ""[{\""prompt\"":\""<p>How willing or unwilling do you think this person is to take risks? Rate from 1-9</p>\"",\""labels\"":[\""1 <br/>(Completely unwilling to take risks)\"",\""2\"",\""3\"",\""4\"",\""5\"",\""6\"",\""7\"",\""8\"",\""9  <br/>(Very willing to take risks)\""],\""required\"":true}]"", ""trial_index"": 111, ""isRepeat"": 1}"
A6XBXQC3G59N8:3VP0C6EFSI3WXKQRF9ERIP60I906M0,112,1542248820699,"{""rt"": 3283, ""trial_type"": ""face-likert-amanda"", ""imgName"": ""/static/images/2kfaces/Google_1_Mark Detwiler_9_oval.jpg"", ""responses"": ""{\""Q0\"":5}"", ""internal_node_id"": ""0.0-9.0-0.0-22.0"", ""time_elapsed"": 319948, ""questions"": ""[{\""prompt\"":\""<p>How willing or unwilling do you think this person is to take risks? Rate from 1-9</p>\"",\""labels\"":[\""1 <br/>(Completely unwilling to take risks)\"",\""2\"",\""3\"",\""4\"",\""5\"",\""6\"",\""7\"",\""8\"",\""9  <br/>(Very willing to take risks)\""],\""required\"":true}]"", ""trial_index"": 112, ""isRepeat"": 1}"
A6XBXQC3G59N8:3VP0C6EFSI3WXKQRF9ERIP60I906M0,113,1542248822509,"{""rt"": 1808, ""trial_type"": ""face-likert-amanda"", ""imgName"": ""/static/images/2kfaces/Google_1_Stanley Kato_17_oval.jpg"", ""responses"": ""{\""Q0\"":5}"", ""internal_node_id"": ""0.0-9.0-0.0-23.0"", ""time_elapsed"": 321758, ""questions"": ""[{\""prompt\"":\""<p>How willing or unwilling do you think this person is to take risks? Rate from 1-9</p>\"",\""labels\"":[\""1 <br/>(Completely unwilling to take risks)\"",\""2\"",\""3\"",\""4\"",\""5\"",\""6\"",\""7\"",\""8\"",\""9  <br/>(Very willing to take risks)\""],\""required\"":true}]"", ""trial_index"": 113, ""isRepeat"": 1}"
A6XBXQC3G59N8:3VP0C6EFSI3WXKQRF9ERIP60I906M0,114,1542248824647,"{""rt"": 2137, ""trial_type"": ""face-likert-amanda"", ""imgName"": ""/static/images/2kfaces/Google_1_Sara Guajardo_1_oval.jpg"", ""responses"": ""{\""Q0\"":3}"", ""internal_node_id"": ""0.0-9.0-0.0-24.0"", ""time_elapsed"": 323896, ""questions"": ""[{\""prompt\"":\""<p>How willing or unwilling do you think this person is to take risks? Rate from 1-9</p>\"",\""labels\"":[\""1 <br/>(Completely unwilling to take risks)\"",\""2\"",\""3\"",\""4\"",\""5\"",\""6\"",\""7\"",\""8\"",\""9  <br/>(Very willing to take risks)\""],\""required\"":true}]"", ""trial_index"": 114, ""isRepeat"": 1}"
A6XBXQC3G59N8:3VP0C6EFSI3WXKQRF9ERIP60I906M0,115,1542248826323,"{""rt"": 1674, ""trial_type"": ""face-likert-amanda"", ""imgName"": ""/static/images/2kfaces/Google_1_Sean Raleigh_7_oval.jpg"", ""responses"": ""{\""Q0\"":4}"", ""internal_node_id"": ""0.0-9.0-0.0-25.0"", ""time_elapsed"": 325572, ""questions"": ""[{\""prompt\"":\""<p>How willing or unwilling do you think this person is to take risks? Rate from 1-9</p>\"",\""labels\"":[\""1 <br/>(Completely unwilling to take risks)\"",\""2\"",\""3\"",\""4\"",\""5\"",\""6\"",\""7\"",\""8\"",\""9  <br/>(Very willing to take risks)\""],\""required\"":true}]"", ""trial_index"": 115, ""isRepeat"": 1}"
A6XBXQC3G59N8:3VP0C6EFSI3WXKQRF9ERIP60I906M0,116,1542248828101,"{""rt"": 1777, ""trial_type"": ""face-likert-amanda"", ""imgName"": ""/static/images/2kfaces/Google_1_Florence Lott_19_oval.jpg"", ""responses"": ""{\""Q0\"":5}"", ""internal_node_id"": ""0.0-9.0-0.0-26.0"", ""time_elapsed"": 327350, ""questions"": ""[{\""prompt\"":\""<p>How willing or unwilling do you think this person is to take risks? Rate from 1-9</p>\"",\""labels\"":[\""1 <br/>(Completely unwilling to take risks)\"",\""2\"",\""3\"",\""4\"",\""5\"",\""6\"",\""7\"",\""8\"",\""9  <br/>(Very willing to take risks)\""],\""required\"":true}]"", ""trial_index"": 116, ""isRepeat"": 1}"
A6XBXQC3G59N8:3VP0C6EFSI3WXKQRF9ERIP60I906M0,117,1542248829639,"{""rt"": 1537, ""trial_type"": ""face-likert-amanda"", ""imgName"": ""/static/images/2kfaces/Google_1_Rose Barlow_1_oval.jpg"", ""responses"": ""{\""Q0\"":6}"", ""internal_node_id"": ""0.0-9.0-0.0-27.0"", ""time_elapsed"": 328887, ""questions"": ""[{\""prompt\"":\""<p>How willing or unwilling do you think this person is to take risks? Rate from 1-9</p>\"",\""labels\"":[\""1 <br/>(Completely unwilling to take risks)\"",\""2\"",\""3\"",\""4\"",\""5\"",\""6\"",\""7\"",\""8\"",\""9  <br/>(Very willing to take risks)\""],\""required\"":true}]"", ""trial_index"": 117, ""isRepeat"": 1}"
A6XBXQC3G59N8:3VP0C6EFSI3WXKQRF9ERIP60I906M0,118,1542248831694,"{""rt"": 2054, ""trial_type"": ""face-likert-amanda"", ""imgName"": ""/static/images/2kfaces/Google_1_Charlotte Dearborn_13_oval.jpg"", ""responses"": ""{\""Q0\"":2}"", ""internal_node_id"": ""0.0-9.0-0.0-28.0"", ""time_elapsed"": 330943, ""questions"": ""[{\""prompt\"":\""<p>How willing or unwilling do you think this person is to take risks? Rate from 1-9</p>\"",\""labels\"":[\""1 <br/>(Completely unwilling to take risks)\"",\""2\"",\""3\"",\""4\"",\""5\"",\""6\"",\""7\"",\""8\"",\""9  <br/>(Very willing to take risks)\""],\""required\"":true}]"", ""trial_index"": 118, ""isRepeat"": 1}"
A6XBXQC3G59N8:3VP0C6EFSI3WXKQRF9ERIP60I906M0,119,1542248833133,"{""rt"": 1436, ""trial_type"": ""face-likert-amanda"", ""imgName"": ""/static/images/2kfaces/Google_1_Valerie Noble_9_oval.jpg"", ""responses"": ""{\""Q0\"":4}"", ""internal_node_id"": ""0.0-9.0-0.0-29.0"", ""time_elapsed"": 332382, ""questions"": ""[{\""prompt\"":\""<p>How willing or unwilling do you think this person is to take risks? Rate from 1-9</p>\"",\""labels\"":[\""1 <br/>(Completely unwilling to take risks)\"",\""2\"",\""3\"",\""4\"",\""5\"",\""6\"",\""7\"",\""8\"",\""9  <br/>(Very willing to take risks)\""],\""required\"":true}]"", ""trial_index"": 119, ""isRepeat"": 1}"
A6XBXQC3G59N8:3VP0C6EFSI3WXKQRF9ERIP60I906M0,120,1542248834659,"{""rt"": 1524, ""trial_type"": ""face-likert-amanda"", ""imgName"": ""/static/images/2kfaces/Google_1_Molly Palm_5_oval.jpg"", ""responses"": ""{\""Q0\"":5}"", ""internal_node_id"": ""0.0-9.0-0.0-30.0"", ""time_elapsed"": 333908, ""questions"": ""[{\""prompt\"":\""<p>How willing or unwilling do you think this person is to take risks? Rate from 1-9</p>\"",\""labels\"":[\""1 <br/>(Completely unwilling to take risks)\"",\""2\"",\""3\"",\""4\"",\""5\"",\""6\"",\""7\"",\""8\"",\""9  <br/>(Very willing to take risks)\""],\""required\"":true}]"", ""trial_index"": 120, ""isRepeat"": 1}"
A6XBXQC3G59N8:3VP0C6EFSI3WXKQRF9ERIP60I906M0,121,1542248836541,"{""rt"": 1881, ""trial_type"": ""face-likert-amanda"", ""imgName"": ""/static/images/2kfaces/Google_1_Kenneth Rigsby_15_oval.jpg"", ""responses"": ""{\""Q0\"":6}"", ""internal_node_id"": ""0.0-9.0-0.0-31.0"", ""time_elapsed"": 335790, ""questions"": ""[{\""prompt\"":\""<p>How willing or unwilling do you think this person is to take risks? Rate from 1-9</p>\"",\""labels\"":[\""1 <br/>(Completely unwilling to take risks)\"",\""2\"",\""3\"",\""4\"",\""5\"",\""6\"",\""7\"",\""8\"",\""9  <br/>(Very willing to take risks)\""],\""required\"":true}]"", ""trial_index"": 121, ""isRepeat"": 1}"
A6XBXQC3G59N8:3VP0C6EFSI3WXKQRF9ERIP60I906M0,122,1542248840323,"{""rt"": 3780, ""trial_type"": ""face-likert-amanda"", ""imgName"": ""/static/images/2kfaces/Google_1_Belinda Dupuis_9_oval.jpg"", ""responses"": ""{\""Q0\"":3}"", ""internal_node_id"": ""0.0-9.0-0.0-32.0"", ""time_elapsed"": 339572, ""questions"": ""[{\""prompt\"":\""<p>How willing or unwilling do you think this person is to take risks? Rate from 1-9</p>\"",\""labels\"":[\""1 <br/>(Completely unwilling to take risks)\"",\""2\"",\""3\"",\""4\"",\""5\"",\""6\"",\""7\"",\""8\"",\""9  <br/>(Very willing to take risks)\""],\""required\"":true}]"", ""trial_index"": 122, ""isRepeat"": 1}"
A6XBXQC3G59N8:3VP0C6EFSI3WXKQRF9ERIP60I906M0,123,1542248841924,"{""rt"": 1599, ""trial_type"": ""face-likert-amanda"", ""imgName"": ""/static/images/2kfaces/Google_1_Steve Stamm_1_oval.jpg"", ""responses"": ""{\""Q0\"":5}"", ""internal_node_id"": ""0.0-9.0-0.0-33.0"", ""time_elapsed"": 341172, ""questions"": ""[{\""prompt\"":\""<p>How willing or unwilling do you think this person is to take risks? Rate from 1-9</p>\"",\""labels\"":[\""1 <br/>(Completely unwilling to take risks)\"",\""2\"",\""3\"",\""4\"",\""5\"",\""6\"",\""7\"",\""8\"",\""9  <br/>(Very willing to take risks)\""],\""required\"":true}]"", ""trial_index"": 123, ""isRepeat"": 1}"
A6XBXQC3G59N8:3VP0C6EFSI3WXKQRF9ERIP60I906M0,124,1542248843453,"{""rt"": 1529, ""trial_type"": ""face-likert-amanda"", ""imgName"": ""/static/images/2kfaces/Google_1_Amelia Lines_11_oval.jpg"", ""responses"": ""{\""Q0\"":6}"", ""internal_node_id"": ""0.0-9.0-0.0-34.0"", ""time_elapsed"": 342702, ""questions"": ""[{\""prompt\"":\""<p>How willing or unwilling do you think this person is to take risks? Rate from 1-9</p>\"",\""labels\"":[\""1 <br/>(Completely unwilling to take risks)\"",\""2\"",\""3\"",\""4\"",\""5\"",\""6\"",\""7\"",\""8\"",\""9  <br/>(Very willing to take risks)\""],\""required\"":true}]"", ""trial_index"": 124, ""isRepeat"": 1}"
A6XBXQC3G59N8:3VP0C6EFSI3WXKQRF9ERIP60I906M0,125,1542248845677,"{""rt"": 2223, ""trial_type"": ""face-likert-amanda"", ""imgName"": ""/static/images/2kfaces/Google_1_Leonard True_5_oval.jpg"", ""responses"": ""{\""Q0\"":4}"", ""internal_node_id"": ""0.0-9.0-0.0-35.0"", ""time_elapsed"": 344926, ""questions"": ""[{\""prompt\"":\""<p>How willing or unwilling do you think this person is to take risks? Rate from 1-9</p>\"",\""labels\"":[\""1 <br/>(Completely unwilling to take risks)\"",\""2\"",\""3\"",\""4\"",\""5\"",\""6\"",\""7\"",\""8\"",\""9  <br/>(Very willing to take risks)\""],\""required\"":true}]"", ""trial_index"": 125, ""isRepeat"": 1}"
A6XBXQC3G59N8:3VP0C6EFSI3WXKQRF9ERIP60I906M0,126,1542248847450,"{""rt"": 1772, ""trial_type"": ""face-likert-amanda"", ""imgName"": ""/static/images/2kfaces/Google_1_Shelia Latham_17_oval.jpg"", ""responses"": ""{\""Q0\"":6}"", ""internal_node_id"": ""0.0-9.0-0.0-36.0"", ""time_elapsed"": 346699, ""questions"": ""[{\""prompt\"":\""<p>How willing or unwilling do you think this person is to take risks? Rate from 1-9</p>\"",\""labels\"":[\""1 <br/>(Completely unwilling to take risks)\"",\""2\"",\""3\"",\""4\"",\""5\"",\""6\"",\""7\"",\""8\"",\""9  <br/>(Very willing to take risks)\""],\""required\"":true}]"", ""trial_index"": 126, ""isRepeat"": 1}"
A6XBXQC3G59N8:3VP0C6EFSI3WXKQRF9ERIP60I906M0,127,1542248849135,"{""rt"": 1683, ""trial_type"": ""face-likert-amanda"", ""imgName"": ""/static/images/2kfaces/Google_1_Sherry Mcmichael_11_oval.jpg"", ""responses"": ""{\""Q0\"":5}"", ""internal_node_id"": ""0.0-9.0-0.0-37.0"", ""time_elapsed"": 348384, ""questions"": ""[{\""prompt\"":\""<p>How willing or unwilling do you think this person is to take risks? Rate from 1-9</p>\"",\""labels\"":[\""1 <br/>(Completely unwilling to take risks)\"",\""2\"",\""3\"",\""4\"",\""5\"",\""6\"",\""7\"",\""8\"",\""9  <br/>(Very willing to take risks)\""],\""required\"":true}]"", ""trial_index"": 127, ""isRepeat"": 1}"
A6XBXQC3G59N8:3VP0C6EFSI3WXKQRF9ERIP60I906M0,128,1542248850637,"{""rt"": 1501, ""trial_type"": ""face-likert-amanda"", ""imgName"": ""/static/images/2kfaces/Google_1_Diana Bateman_7_oval.jpg"", ""responses"": ""{\""Q0\"":6}"", ""internal_node_id"": ""0.0-9.0-0.0-38.0"", ""time_elapsed"": 349886, ""questions"": ""[{\""prompt\"":\""<p>How willing or unwilling do you think this person is to take risks? Rate from 1-9</p>\"",\""labels\"":[\""1 <br/>(Completely unwilling to take risks)\"",\""2\"",\""3\"",\""4\"",\""5\"",\""6\"",\""7\"",\""8\"",\""9  <br/>(Very willing to take risks)\""],\""required\"":true}]"", ""trial_index"": 128, ""isRepeat"": 1}"
A6XBXQC3G59N8:3VP0C6EFSI3WXKQRF9ERIP60I906M0,129,1542248852087,"{""rt"": 1450, ""trial_type"": ""face-likert-amanda"", ""imgName"": ""/static/images/2kfaces/Google_1_Cindy Morehead_5_oval.jpg"", ""responses"": ""{\""Q0\"":6}"", ""internal_node_id"": ""0.0-9.0-0.0-39.0"", ""time_elapsed"": 351336, ""questions"": ""[{\""prompt\"":\""<p>How willing or unwilling do you think this person is to take risks? Rate from 1-9</p>\"",\""labels\"":[\""1 <br/>(Completely unwilling to take risks)\"",\""2\"",\""3\"",\""4\"",\""5\"",\""6\"",\""7\"",\""8\"",\""9  <br/>(Very willing to take risks)\""],\""required\"":true}]"", ""trial_index"": 129, ""isRepeat"": 1}"
A6XBXQC3G59N8:3VP0C6EFSI3WXKQRF9ERIP60I906M0,130,1542248852841,"{""rt"": null, ""trial_type"": ""html-keyboard-response"", ""stimulus"": ""<p>Good job! Let us take a quick break!</p>"", ""internal_node_id"": ""0.0-9.0-1.0"", ""time_elapsed"": 352090, ""key_press"": null, ""trial_index"": 130}"
A6XBXQC3G59N8:3VP0C6EFSI3WXKQRF9ERIP60I906M0,131,1542248854810,"{""rt"": 1968, ""trial_type"": ""face-likert-amanda"", ""imgName"": ""/static/images/2kfaces/Google_1_Gertrude Bayne_11_oval.jpg"", ""responses"": ""{\""Q0\"":4}"", ""internal_node_id"": ""0.0-10.0-0.0-0.0"", ""time_elapsed"": 354059, ""questions"": ""[{\""prompt\"":\""<p>How willing or unwilling do you think this person is to take risks? Rate from 1-9</p>\"",\""labels\"":[\""1 <br/>(Completely unwilling to take risks)\"",\""2\"",\""3\"",\""4\"",\""5\"",\""6\"",\""7\"",\""8\"",\""9  <br/>(Very willing to take risks)\""],\""required\"":true}]"", ""trial_index"": 131, ""isRepeat"": 1}"
A6XBXQC3G59N8:3VP0C6EFSI3WXKQRF9ERIP60I906M0,132,1542248856128,"{""rt"": 1316, ""trial_type"": ""face-likert-amanda"", ""imgName"": ""/static/images/2kfaces/Google_1_Shelley Lund_5_oval.jpg"", ""responses"": ""{\""Q0\"":5}"", ""internal_node_id"": ""0.0-10.0-0.0-1.0"", ""time_elapsed"": 355377, ""questions"": ""[{\""prompt\"":\""<p>How willing or unwilling do you think this person is to take risks? Rate from 1-9</p>\"",\""labels\"":[\""1 <br/>(Completely unwilling to take risks)\"",\""2\"",\""3\"",\""4\"",\""5\"",\""6\"",\""7\"",\""8\"",\""9  <br/>(Very willing to take risks)\""],\""required\"":true}]"", ""trial_index"": 132, ""isRepeat"": 1}"
A6XBXQC3G59N8:3VP0C6EFSI3WXKQRF9ERIP60I906M0,133,1542248857727,"{""rt"": 1597, ""trial_type"": ""face-likert-amanda"", ""imgName"": ""/static/images/2kfaces/Google_1_Rodney Wyant_13_oval.jpg"", ""responses"": ""{\""Q0\"":6}"", ""internal_node_id"": ""0.0-10.0-0.0-2.0"", ""time_elapsed"": 356976, ""questions"": ""[{\""prompt\"":\""<p>How willing or unwilling do you think this person is to take risks? Rate from 1-9</p>\"",\""labels\"":[\""1 <br/>(Completely unwilling to take risks)\"",\""2\"",\""3\"",\""4\"",\""5\"",\""6\"",\""7\"",\""8\"",\""9  <br/>(Very willing to take risks)\""],\""required\"":true}]"", ""trial_index"": 133, ""isRepeat"": 1}"
A6XBXQC3G59N8:3VP0C6EFSI3WXKQRF9ERIP60I906M0,134,1542248859089,"{""rt"": 1361, ""trial_type"": ""face-likert-amanda"", ""imgName"": ""/static/images/2kfaces/Google_1_Antonio Benn_12_oval.jpg"", ""responses"": ""{\""Q0\"":6}"", ""internal_node_id"": ""0.0-10.0-0.0-3.0"", ""time_elapsed"": 358338, ""questions"": ""[{\""prompt\"":\""<p>How willing or unwilling do you think this person is to take risks? Rate from 1-9</p>\"",\""labels\"":[\""1 <br/>(Completely unwilling to take risks)\"",\""2\"",\""3\"",\""4\"",\""5\"",\""6\"",\""7\"",\""8\"",\""9  <br/>(Very willing to take risks)\""],\""required\"":true}]"", ""trial_index"": 134, ""isRepeat"": 1}"
A6XBXQC3G59N8:3VP0C6EFSI3WXKQRF9ERIP60I906M0,135,1542248860519,"{""rt"": 1428, ""trial_type"": ""face-likert-amanda"", ""imgName"": ""/static/images/2kfaces/Google_1_Cheryl Griffin_15_oval.jpg"", ""responses"": ""{\""Q0\"":3}"", ""internal_node_id"": ""0.0-10.0-0.0-4.0"", ""time_elapsed"": 359768, ""questions"": ""[{\""prompt\"":\""<p>How willing or unwilling do you think this person is to take risks? Rate from 1-9</p>\"",\""labels\"":[\""1 <br/>(Completely unwilling to take risks)\"",\""2\"",\""3\"",\""4\"",\""5\"",\""6\"",\""7\"",\""8\"",\""9  <br/>(Very willing to take risks)\""],\""required\"":true}]"", ""trial_index"": 135, ""isRepeat"": 1}"
A6XBXQC3G59N8:3VP0C6EFSI3WXKQRF9ERIP60I906M0,136,1542248864715,"{""rt"": 4194, ""trial_type"": ""face-likert-amanda"", ""imgName"": ""/static/images/2kfaces/Google_1_Kathleen Sartain_1_oval.jpg"", ""responses"": ""{\""Q0\"":4}"", ""internal_node_id"": ""0.0-10.0-0.0-5.0"", ""time_elapsed"": 363964, ""questions"": ""[{\""prompt\"":\""<p>How willing or unwilling do you think this person is to take risks? Rate from 1-9</p>\"",\""labels\"":[\""1 <br/>(Completely unwilling to take risks)\"",\""2\"",\""3\"",\""4\"",\""5\"",\""6\"",\""7\"",\""8\"",\""9  <br/>(Very willing to take risks)\""],\""required\"":true}]"", ""trial_index"": 136, ""isRepeat"": 1}"
A6XBXQC3G59N8:3VP0C6EFSI3WXKQRF9ERIP60I906M0,137,1542248867237,"{""rt"": 2520, ""trial_type"": ""face-likert-amanda"", ""imgName"": ""/static/images/2kfaces/Google_1_Victoria Ambrose_17_oval.jpg"", ""responses"": ""{\""Q0\"":5}"", ""internal_node_id"": ""0.0-10.0-0.0-6.0"", ""time_elapsed"": 366486, ""questions"": ""[{\""prompt\"":\""<p>How willing or unwilling do you think this person is to take risks? Rate from 1-9</p>\"",\""labels\"":[\""1 <br/>(Completely unwilling to take risks)\"",\""2\"",\""3\"",\""4\"",\""5\"",\""6\"",\""7\"",\""8\"",\""9  <br/>(Very willing to take risks)\""],\""required\"":true}]"", ""trial_index"": 137, ""isRepeat"": 1}"
A6XBXQC3G59N8:3VP0C6EFSI3WXKQRF9ERIP60I906M0,138,1542248868703,"{""rt"": 1464, ""trial_type"": ""face-likert-amanda"", ""imgName"": ""/static/images/2kfaces/Google_1_Norman Westfall_5_oval.jpg"", ""responses"": ""{\""Q0\"":6}"", ""internal_node_id"": ""0.0-10.0-0.0-7.0"", ""time_elapsed"": 367952, ""questions"": ""[{\""prompt\"":\""<p>How willing or unwilling do you think this person is to take risks? Rate from 1-9</p>\"",\""labels\"":[\""1 <br/>(Completely unwilling to take risks)\"",\""2\"",\""3\"",\""4\"",\""5\"",\""6\"",\""7\"",\""8\"",\""9  <br/>(Very willing to take risks)\""],\""required\"":true}]"", ""trial_index"": 138, ""isRepeat"": 1}"
A6XBXQC3G59N8:3VP0C6EFSI3WXKQRF9ERIP60I906M0,139,1542248870307,"{""rt"": 1603, ""trial_type"": ""face-likert-amanda"", ""imgName"": ""/static/images/2kfaces/Google_1_Gregory Arriola_3_oval.jpg"", ""responses"": ""{\""Q0\"":7}"", ""internal_node_id"": ""0.0-10.0-0.0-8.0"", ""time_elapsed"": 369556, ""questions"": ""[{\""prompt\"":\""<p>How willing or unwilling do you think this person is to take risks? Rate from 1-9</p>\"",\""labels\"":[\""1 <br/>(Completely unwilling to take risks)\"",\""2\"",\""3\"",\""4\"",\""5\"",\""6\"",\""7\"",\""8\"",\""9  <br/>(Very willing to take risks)\""],\""required\"":true}]"", ""trial_index"": 139, ""isRepeat"": 1}"
A6XBXQC3G59N8:3VP0C6EFSI3WXKQRF9ERIP60I906M0,140,1542248872905,"{""rt"": 2597, ""trial_type"": ""face-likert-amanda"", ""imgName"": ""/static/images/2kfaces/Google_1_Colleen Summer_5_oval.jpg"", ""responses"": ""{\""Q0\"":5}"", ""internal_node_id"": ""0.0-10.0-0.0-9.0"", ""time_elapsed"": 372154, ""questions"": ""[{\""prompt\"":\""<p>How willing or unwilling do you think this person is to take risks? Rate from 1-9</p>\"",\""labels\"":[\""1 <br/>(Completely unwilling to take risks)\"",\""2\"",\""3\"",\""4\"",\""5\"",\""6\"",\""7\"",\""8\"",\""9  <br/>(Very willing to take risks)\""],\""required\"":true}]"", ""trial_index"": 140, ""isRepeat"": 1}"
A6XBXQC3G59N8:3VP0C6EFSI3WXKQRF9ERIP60I906M0,141,1542248874013,"{""rt"": 1107, ""trial_type"": ""face-likert-amanda"", ""imgName"": ""/static/images/2kfaces/Google_1_Donald Shaw_13_oval.jpg"", ""responses"": ""{\""Q0\"":4}"", ""internal_node_id"": ""0.0-10.0-0.0-10.0"", ""time_elapsed"": 373262, ""questions"": ""[{\""prompt\"":\""<p>How willing or unwilling do you think this person is to take risks? Rate from 1-9</p>\"",\""labels\"":[\""1 <br/>(Completely unwilling to take risks)\"",\""2\"",\""3\"",\""4\"",\""5\"",\""6\"",\""7\"",\""8\"",\""9  <br/>(Very willing to take risks)\""],\""required\"":true}]"", ""trial_index"": 141, ""isRepeat"": 1}"
A6XBXQC3G59N8:3VP0C6EFSI3WXKQRF9ERIP60I906M0,142,1542248875391,"{""rt"": 1377, ""trial_type"": ""face-likert-amanda"", ""imgName"": ""/static/images/2kfaces/Google_1_Leonard Overcash_5_oval.jpg"", ""responses"": ""{\""Q0\"":4}"", ""internal_node_id"": ""0.0-10.0-0.0-11.0"", ""time_elapsed"": 374640, ""questions"": ""[{\""prompt\"":\""<p>How willing or unwilling do you think this person is to take risks? Rate from 1-9</p>\"",\""labels\"":[\""1 <br/>(Completely unwilling to take risks)\"",\""2\"",\""3\"",\""4\"",\""5\"",\""6\"",\""7\"",\""8\"",\""9  <br/>(Very willing to take risks)\""],\""required\"":true}]"", ""trial_index"": 142, ""isRepeat"": 1}"
A6XBXQC3G59N8:3VP0C6EFSI3WXKQRF9ERIP60I906M0,143,1542248876661,"{""rt"": 1268, ""trial_type"": ""face-likert-amanda"", ""imgName"": ""/static/images/2kfaces/Google_1_Sarah Woodcock_3_oval.jpg"", ""responses"": ""{\""Q0\"":3}"", ""internal_node_id"": ""0.0-10.0-0.0-12.0"", ""time_elapsed"": 375910, ""questions"": ""[{\""prompt\"":\""<p>How willing or unwilling do you think this person is to take risks? Rate from 1-9</p>\"",\""labels\"":[\""1 <br/>(Completely unwilling to take risks)\"",\""2\"",\""3\"",\""4\"",\""5\"",\""6\"",\""7\"",\""8\"",\""9  <br/>(Very willing to take risks)\""],\""required\"":true}]"", ""trial_index"": 143, ""isRepeat"": 1}"
A6XBXQC3G59N8:3VP0C6EFSI3WXKQRF9ERIP60I906M0,144,1542248877997,"{""rt"": 1335, ""trial_type"": ""face-likert-amanda"", ""imgName"": ""/static/images/2kfaces/Google_1_Erika Fletcher_1_oval.jpg"", ""responses"": ""{\""Q0\"":4}"", ""internal_node_id"": ""0.0-10.0-0.0-13.0"", ""time_elapsed"": 377246, ""questions"": ""[{\""prompt\"":\""<p>How willing or unwilling do you think this person is to take risks? Rate from 1-9</p>\"",\""labels\"":[\""1 <br/>(Completely unwilling to take risks)\"",\""2\"",\""3\"",\""4\"",\""5\"",\""6\"",\""7\"",\""8\"",\""9  <br/>(Very willing to take risks)\""],\""required\"":true}]"", ""trial_index"": 144, ""isRepeat"": 1}"
A6XBXQC3G59N8:3VP0C6EFSI3WXKQRF9ERIP60I906M0,145,1542248879545,"{""rt"": 1546, ""trial_type"": ""face-likert-amanda"", ""imgName"": ""/static/images/2kfaces/Google_1_Joshua Lessard_11_oval.jpg"", ""responses"": ""{\""Q0\"":2}"", ""internal_node_id"": ""0.0-10.0-0.0-14.0"", ""time_elapsed"": 378794, ""questions"": ""[{\""prompt\"":\""<p>How willing or unwilling do you think this person is to take risks? Rate from 1-9</p>\"",\""labels\"":[\""1 <br/>(Completely unwilling to take risks)\"",\""2\"",\""3\"",\""4\"",\""5\"",\""6\"",\""7\"",\""8\"",\""9  <br/>(Very willing to take risks)\""],\""required\"":true}]"", ""trial_index"": 145, ""isRepeat"": 1}"
A6XBXQC3G59N8:3VP0C6EFSI3WXKQRF9ERIP60I906M0,146,1542248881035,"{""rt"": 1488, ""trial_type"": ""face-likert-amanda"", ""imgName"": ""/static/images/2kfaces/Google_1_Stanley Rowden_19_oval.jpg"", ""responses"": ""{\""Q0\"":3}"", ""internal_node_id"": ""0.0-10.0-0.0-15.0"", ""time_elapsed"": 380284, ""questions"": ""[{\""prompt\"":\""<p>How willing or unwilling do you think this person is to take risks? Rate from 1-9</p>\"",\""labels\"":[\""1 <br/>(Completely unwilling to take risks)\"",\""2\"",\""3\"",\""4\"",\""5\"",\""6\"",\""7\"",\""8\"",\""9  <br/>(Very willing to take risks)\""],\""required\"":true}]"", ""trial_index"": 146, ""isRepeat"": 1}"
A6XBXQC3G59N8:3VP0C6EFSI3WXKQRF9ERIP60I906M0,147,1542248882421,"{""rt"": 1384, ""trial_type"": ""face-likert-amanda"", ""imgName"": ""/static/images/2kfaces/Google_1_Marjorie Rule_3_oval.jpg"", ""responses"": ""{\""Q0\"":4}"", ""internal_node_id"": ""0.0-10.0-0.0-16.0"", ""time_elapsed"": 381670, ""questions"": ""[{\""prompt\"":\""<p>How willing or unwilling do you think this person is to take risks? Rate from 1-9</p>\"",\""labels\"":[\""1 <br/>(Completely unwilling to take risks)\"",\""2\"",\""3\"",\""4\"",\""5\"",\""6\"",\""7\"",\""8\"",\""9  <br/>(Very willing to take risks)\""],\""required\"":true}]"", ""trial_index"": 147, ""isRepeat"": 1}"
A6XBXQC3G59N8:3VP0C6EFSI3WXKQRF9ERIP60I906M0,148,1542248883953,"{""rt"": 1531, ""trial_type"": ""face-likert-amanda"", ""imgName"": ""/static/images/2kfaces/Google_1_Gary Nance_3_oval.jpg"", ""responses"": ""{\""Q0\"":5}"", ""internal_node_id"": ""0.0-10.0-0.0-17.0"", ""time_elapsed"": 383202, ""questions"": ""[{\""prompt\"":\""<p>How willing or unwilling do you think this person is to take risks? Rate from 1-9</p>\"",\""labels\"":[\""1 <br/>(Completely unwilling to take risks)\"",\""2\"",\""3\"",\""4\"",\""5\"",\""6\"",\""7\"",\""8\"",\""9  <br/>(Very willing to take risks)\""],\""required\"":true}]"", ""trial_index"": 148, ""isRepeat"": 1}"
A6XBXQC3G59N8:3VP0C6EFSI3WXKQRF9ERIP60I906M0,149,1542248885511,"{""rt"": 1557, ""trial_type"": ""face-likert-amanda"", ""imgName"": ""/static/images/2kfaces/Google_1_Gloria Canada_13_oval.jpg"", ""responses"": ""{\""Q0\"":4}"", ""internal_node_id"": ""0.0-10.0-0.0-18.0"", ""time_elapsed"": 384760, ""questions"": ""[{\""prompt\"":\""<p>How willing or unwilling do you think this person is to take risks? Rate from 1-9</p>\"",\""labels\"":[\""1 <br/>(Completely unwilling to take risks)\"",\""2\"",\""3\"",\""4\"",\""5\"",\""6\"",\""7\"",\""8\"",\""9  <br/>(Very willing to take risks)\""],\""required\"":true}]"", ""trial_index"": 149, ""isRepeat"": 1}"
A6XBXQC3G59N8:3VP0C6EFSI3WXKQRF9ERIP60I906M0,150,1542248888061,"{""rt"": 2548, ""trial_type"": ""face-likert-amanda"", ""imgName"": ""/static/images/2kfaces/Google_1_Ronald Driver_19_oval.jpg"", ""responses"": ""{\""Q0\"":3}"", ""internal_node_id"": ""0.0-10.0-0.0-19.0"", ""time_elapsed"": 387310, ""questions"": ""[{\""prompt\"":\""<p>How willing or unwilling do you think this person is to take risks? Rate from 1-9</p>\"",\""labels\"":[\""1 <br/>(Completely unwilling to take risks)\"",\""2\"",\""3\"",\""4\"",\""5\"",\""6\"",\""7\"",\""8\"",\""9  <br/>(Very willing to take risks)\""],\""required\"":true}]"", ""trial_index"": 150, ""isRepeat"": 1}"
A6XBXQC3G59N8:3VP0C6EFSI3WXKQRF9ERIP60I906M0,151,1542248889605,"{""rt"": 1542, ""trial_type"": ""face-likert-amanda"", ""imgName"": ""/static/images/2kfaces/Google_1_Mark Houser_17_oval.jpg"", ""responses"": ""{\""Q0\"":4}"", ""internal_node_id"": ""0.0-10.0-0.0-20.0"", ""time_elapsed"": 388854, ""questions"": ""[{\""prompt\"":\""<p>How willing or unwilling do you think this person is to take risks? Rate from 1-9</p>\"",\""labels\"":[\""1 <br/>(Completely unwilling to take risks)\"",\""2\"",\""3\"",\""4\"",\""5\"",\""6\"",\""7\"",\""8\"",\""9  <br/>(Very willing to take risks)\""],\""required\"":true}]"", ""trial_index"": 151, ""isRepeat"": 1}"
A6XBXQC3G59N8:3VP0C6EFSI3WXKQRF9ERIP60I906M0,152,1542248890879,"{""rt"": 1272, ""trial_type"": ""face-likert-amanda"", ""imgName"": ""/static/images/2kfaces/Google_1_Kara Mickelson_13_oval.jpg"", ""responses"": ""{\""Q0\"":5}"", ""internal_node_id"": ""0.0-10.0-0.0-21.0"", ""time_elapsed"": 390128, ""questions"": ""[{\""prompt\"":\""<p>How willing or unwilling do you think this person is to take risks? Rate from 1-9</p>\"",\""labels\"":[\""1 <br/>(Completely unwilling to take risks)\"",\""2\"",\""3\"",\""4\"",\""5\"",\""6\"",\""7\"",\""8\"",\""9  <br/>(Very willing to take risks)\""],\""required\"":true}]"", ""trial_index"": 152, ""isRepeat"": 1}"
A6XBXQC3G59N8:3VP0C6EFSI3WXKQRF9ERIP60I906M0,153,1542248892381,"{""rt"": 1499, ""trial_type"": ""face-likert-amanda"", ""imgName"": ""/static/images/2kfaces/Google_1_Jose Monaghan_9_oval.jpg"", ""responses"": ""{\""Q0\"":5}"", ""internal_node_id"": ""0.0-10.0-0.0-22.0"", ""time_elapsed"": 391630, ""questions"": ""[{\""prompt\"":\""<p>How willing or unwilling do you think this person is to take risks? Rate from 1-9</p>\"",\""labels\"":[\""1 <br/>(Completely unwilling to take risks)\"",\""2\"",\""3\"",\""4\"",\""5\"",\""6\"",\""7\"",\""8\"",\""9  <br/>(Very willing to take risks)\""],\""required\"":true}]"", ""trial_index"": 153, ""isRepeat"": 1}"
