A2C7TMRC2QHTIW:3X87C8JFV8IS5XMGEFOAM8O6PHZSQT,0,1547861704129,"{""rt"": 6985, ""trial_type"": ""instructions"", ""view_history"": ""[{\""page_index\"":0,\""viewing_time\"":2136},{\""page_index\"":1,\""viewing_time\"":2491},{\""page_index\"":2,\""viewing_time\"":2358}]"", ""task_type"": ""instruction"", ""task_payment"": 0.5, ""task_version"": 1, ""internal_node_id"": ""0.0-0.0"", ""time_elapsed"": 7004, ""debug_mode"": ""live"", ""task_name"": ""aggressive-gt"", ""task_unique_trial"": 100, ""trial_index"": 0}"
A2C7TMRC2QHTIW:3X87C8JFV8IS5XMGEFOAM8O6PHZSQT,1,1547861712140,"{""rt"": 7999, ""trial_type"": ""survey-multi-choice"", ""task_type"": ""demographic-multichoice"", ""responses"": ""{\""Q0\"":\""26-35\"",\""Q1\"":\""Male\"",\""Q2\"":\""No\"",\""Q3\"":\""3\"",\""Q4\"":\""White\"",\""Q5\"":\""Bachelor&#8217;s degree (e.g. BA, BS) or above\"",\""Q6\"":\""$75,000 and above\""}"", ""task_payment"": 0.5, ""task_version"": 1, ""time_elapsed"": 15016, ""sanity_check_1_continue"": true, ""random_num"": 3, ""debug_mode"": ""live"", ""questions"": ""[{\""prompt\"":\""What is your age?\"",\""options\"":[\""Under 18\"",\""18-25\"",\""26-35\"",\""36-45\"",\""46-55\"",\""56+\""],\""required\"":true},{\""prompt\"":\""What is your gender?\"",\""options\"":[\""Male\"",\""Female\"",\""Other/Prefer not to say\""],\""required\"":true},{\""prompt\"":\""Are you of Hispanic, Latino, or Spanish origin?\"",\""options\"":[\""Yes\"",\""No\""],\""required\"":true},{\""prompt\"":\""Please choose the option that match the number here: 3\"",\""options\"":[\""1\"",\""2\"",\""3\"",\""4\""],\""required\"":true},{\""prompt\"":\""How would you describe yourself?\"",\""options\"":[\""American Indian or Alaskan Native\"",\""Asian\"",\""Black or African-American\"",\""Native Hawaiian or Other Pacific Islander\"",\""White\""],\""required\"":true},{\""prompt\"":\""What is the highest degree or level of school you have completed? (If you&#8217;re currently enrolled in school, please indicate the highest degree you have received)\"",\""options\"":[\""Less than a high school diploma\"",\""High school degree or equivalent (e.g. GED)\"",\""Some college, no degree\"",\""Associate degree (e.g. AA, AS)\"",\""Bachelor&#8217;s degree (e.g. BA, BS) or above\""],\""required\"":true},{\""prompt\"":\""What is the total income of all members of your household?\"",\""options\"":[\""Less than $20,000\"",\""$20,000  - $49,999\"",\""$50,000 - $74,999\"",\""$75,000 and above\""],\""required\"":true}]"", ""internal_node_id"": ""0.0-1.0-0.0"", ""task_unique_trial"": 100, ""task_name"": ""aggressive-gt"", ""trial_index"": 1}"
A2C7TMRC2QHTIW:3X87C8JFV8IS5XMGEFOAM8O6PHZSQT,2,1547861714776,"{""rt"": 2630, ""trial_type"": ""face-likert-amanda"", ""debug_mode"": ""live"", ""task_type"": ""face trials"", ""responses"": ""{\""Q0\"":4}"", ""task_payment"": 0.5, ""task_version"": 1, ""internal_node_id"": ""0.0-2.0-0.0-0.0"", ""time_elapsed"": 17651, ""imgName"": ""/static/images/celeba_gt_crop/aggressive/071197.jpg"", ""questions"": ""[{\""prompt\"":\""<p>How <b>aggressive</b> does this person look? Rate from 1-9</p>\"",\""labels\"":[\""1 <br/>Not aggressive at all\"",\""2\"",\""3\"",\""4\"",\""5\"",\""6\"",\""7\"",\""8\"",\""9  <br/>Extremely aggressive\""],\""required\"":true}]"", ""task_unique_trial"": 100, ""task_name"": ""aggressive-gt"", ""trial_index"": 2, ""isRepeat"": 0}"
A2C7TMRC2QHTIW:3X87C8JFV8IS5XMGEFOAM8O6PHZSQT,3,1547861716678,"{""rt"": 1899, ""trial_type"": ""face-likert-amanda"", ""debug_mode"": ""live"", ""task_type"": ""face trials"", ""responses"": ""{\""Q0\"":1}"", ""task_payment"": 0.5, ""task_version"": 1, ""internal_node_id"": ""0.0-2.0-0.0-1.0"", ""time_elapsed"": 19554, ""imgName"": ""/static/images/celeba_gt_crop/aggressive/043872.jpg"", ""questions"": ""[{\""prompt\"":\""<p>How <b>aggressive</b> does this person look? Rate from 1-9</p>\"",\""labels\"":[\""1 <br/>Not aggressive at all\"",\""2\"",\""3\"",\""4\"",\""5\"",\""6\"",\""7\"",\""8\"",\""9  <br/>Extremely aggressive\""],\""required\"":true}]"", ""task_unique_trial"": 100, ""task_name"": ""aggressive-gt"", ""trial_index"": 3, ""isRepeat"": 0}"
A2C7TMRC2QHTIW:3X87C8JFV8IS5XMGEFOAM8O6PHZSQT,4,1547861718071,"{""rt"": 1389, ""trial_type"": ""face-likert-amanda"", ""debug_mode"": ""live"", ""task_type"": ""face trials"", ""responses"": ""{\""Q0\"":1}"", ""task_payment"": 0.5, ""task_version"": 1, ""internal_node_id"": ""0.0-2.0-0.0-2.0"", ""time_elapsed"": 20947, ""imgName"": ""/static/images/celeba_gt_crop/aggressive/151719.jpg"", ""questions"": ""[{\""prompt\"":\""<p>How <b>aggressive</b> does this person look? Rate from 1-9</p>\"",\""labels\"":[\""1 <br/>Not aggressive at all\"",\""2\"",\""3\"",\""4\"",\""5\"",\""6\"",\""7\"",\""8\"",\""9  <br/>Extremely aggressive\""],\""required\"":true}]"", ""task_unique_trial"": 100, ""task_name"": ""aggressive-gt"", ""trial_index"": 4, ""isRepeat"": 0}"
A2C7TMRC2QHTIW:3X87C8JFV8IS5XMGEFOAM8O6PHZSQT,5,1547861719358,"{""rt"": 1283, ""trial_type"": ""face-likert-amanda"", ""debug_mode"": ""live"", ""task_type"": ""face trials"", ""responses"": ""{\""Q0\"":0}"", ""task_payment"": 0.5, ""task_version"": 1, ""internal_node_id"": ""0.0-2.0-0.0-3.0"", ""time_elapsed"": 22234, ""imgName"": ""/static/images/celeba_gt_crop/aggressive/032084.jpg"", ""questions"": ""[{\""prompt\"":\""<p>How <b>aggressive</b> does this person look? Rate from 1-9</p>\"",\""labels\"":[\""1 <br/>Not aggressive at all\"",\""2\"",\""3\"",\""4\"",\""5\"",\""6\"",\""7\"",\""8\"",\""9  <br/>Extremely aggressive\""],\""required\"":true}]"", ""task_unique_trial"": 100, ""task_name"": ""aggressive-gt"", ""trial_index"": 5, ""isRepeat"": 0}"
A2C7TMRC2QHTIW:3X87C8JFV8IS5XMGEFOAM8O6PHZSQT,6,1547861721118,"{""rt"": 1756, ""trial_type"": ""face-likert-amanda"", ""debug_mode"": ""live"", ""task_type"": ""face trials"", ""responses"": ""{\""Q0\"":7}"", ""task_payment"": 0.5, ""task_version"": 1, ""internal_node_id"": ""0.0-2.0-0.0-4.0"", ""time_elapsed"": 23994, ""imgName"": ""/static/images/celeba_gt_crop/aggressive/110369.jpg"", ""questions"": ""[{\""prompt\"":\""<p>How <b>aggressive</b> does this person look? Rate from 1-9</p>\"",\""labels\"":[\""1 <br/>Not aggressive at all\"",\""2\"",\""3\"",\""4\"",\""5\"",\""6\"",\""7\"",\""8\"",\""9  <br/>Extremely aggressive\""],\""required\"":true}]"", ""task_unique_trial"": 100, ""task_name"": ""aggressive-gt"", ""trial_index"": 6, ""isRepeat"": 0}"
A2C7TMRC2QHTIW:3X87C8JFV8IS5XMGEFOAM8O6PHZSQT,7,1547861722762,"{""rt"": 1638, ""trial_type"": ""face-likert-amanda"", ""debug_mode"": ""live"", ""task_type"": ""face trials"", ""responses"": ""{\""Q0\"":0}"", ""task_payment"": 0.5, ""task_version"": 1, ""internal_node_id"": ""0.0-2.0-0.0-5.0"", ""time_elapsed"": 25638, ""imgName"": ""/static/images/celeba_gt_crop/aggressive/031763.jpg"", ""questions"": ""[{\""prompt\"":\""<p>How <b>aggressive</b> does this person look? Rate from 1-9</p>\"",\""labels\"":[\""1 <br/>Not aggressive at all\"",\""2\"",\""3\"",\""4\"",\""5\"",\""6\"",\""7\"",\""8\"",\""9  <br/>Extremely aggressive\""],\""required\"":true}]"", ""task_unique_trial"": 100, ""task_name"": ""aggressive-gt"", ""trial_index"": 7, ""isRepeat"": 0}"
A2C7TMRC2QHTIW:3X87C8JFV8IS5XMGEFOAM8O6PHZSQT,8,1547861724615,"{""rt"": 1849, ""trial_type"": ""face-likert-amanda"", ""debug_mode"": ""live"", ""task_type"": ""face trials"", ""responses"": ""{\""Q0\"":5}"", ""task_payment"": 0.5, ""task_version"": 1, ""internal_node_id"": ""0.0-2.0-0.0-6.0"", ""time_elapsed"": 27490, ""imgName"": ""/static/images/celeba_gt_crop/aggressive/117797.jpg"", ""questions"": ""[{\""prompt\"":\""<p>How <b>aggressive</b> does this person look? Rate from 1-9</p>\"",\""labels\"":[\""1 <br/>Not aggressive at all\"",\""2\"",\""3\"",\""4\"",\""5\"",\""6\"",\""7\"",\""8\"",\""9  <br/>Extremely aggressive\""],\""required\"":true}]"", ""task_unique_trial"": 100, ""task_name"": ""aggressive-gt"", ""trial_index"": 8, ""isRepeat"": 0}"
A2C7TMRC2QHTIW:3X87C8JFV8IS5XMGEFOAM8O6PHZSQT,9,1547861726151,"{""rt"": 1532, ""trial_type"": ""face-likert-amanda"", ""debug_mode"": ""live"", ""task_type"": ""face trials"", ""responses"": ""{\""Q0\"":0}"", ""task_payment"": 0.5, ""task_version"": 1, ""internal_node_id"": ""0.0-2.0-0.0-7.0"", ""time_elapsed"": 29027, ""imgName"": ""/static/images/celeba_gt_crop/aggressive/083782.jpg"", ""questions"": ""[{\""prompt\"":\""<p>How <b>aggressive</b> does this person look? Rate from 1-9</p>\"",\""labels\"":[\""1 <br/>Not aggressive at all\"",\""2\"",\""3\"",\""4\"",\""5\"",\""6\"",\""7\"",\""8\"",\""9  <br/>Extremely aggressive\""],\""required\"":true}]"", ""task_unique_trial"": 100, ""task_name"": ""aggressive-gt"", ""trial_index"": 9, ""isRepeat"": 0}"
A2C7TMRC2QHTIW:3X87C8JFV8IS5XMGEFOAM8O6PHZSQT,10,1547861728704,"{""rt"": 2547, ""trial_type"": ""face-likert-amanda"", ""debug_mode"": ""live"", ""task_type"": ""face trials"", ""responses"": ""{\""Q0\"":8}"", ""task_payment"": 0.5, ""task_version"": 1, ""internal_node_id"": ""0.0-2.0-0.0-8.0"", ""time_elapsed"": 31580, ""imgName"": ""/static/images/celeba_gt_crop/aggressive/174354.jpg"", ""questions"": ""[{\""prompt\"":\""<p>How <b>aggressive</b> does this person look? Rate from 1-9</p>\"",\""labels\"":[\""1 <br/>Not aggressive at all\"",\""2\"",\""3\"",\""4\"",\""5\"",\""6\"",\""7\"",\""8\"",\""9  <br/>Extremely aggressive\""],\""required\"":true}]"", ""task_unique_trial"": 100, ""task_name"": ""aggressive-gt"", ""trial_index"": 10, ""isRepeat"": 0}"
A2C7TMRC2QHTIW:3X87C8JFV8IS5XMGEFOAM8O6PHZSQT,11,1547861730559,"{""rt"": 1851, ""trial_type"": ""face-likert-amanda"", ""debug_mode"": ""live"", ""task_type"": ""face trials"", ""responses"": ""{\""Q0\"":6}"", ""task_payment"": 0.5, ""task_version"": 1, ""internal_node_id"": ""0.0-2.0-0.0-9.0"", ""time_elapsed"": 33435, ""imgName"": ""/static/images/celeba_gt_crop/aggressive/176723.jpg"", ""questions"": ""[{\""prompt\"":\""<p>How <b>aggressive</b> does this person look? Rate from 1-9</p>\"",\""labels\"":[\""1 <br/>Not aggressive at all\"",\""2\"",\""3\"",\""4\"",\""5\"",\""6\"",\""7\"",\""8\"",\""9  <br/>Extremely aggressive\""],\""required\"":true}]"", ""task_unique_trial"": 100, ""task_name"": ""aggressive-gt"", ""trial_index"": 11, ""isRepeat"": 0}"
A2C7TMRC2QHTIW:3X87C8JFV8IS5XMGEFOAM8O6PHZSQT,12,1547861732068,"{""rt"": null, ""trial_type"": ""html-keyboard-response"", ""task_unique_trial"": 100, ""stimulus"": ""<p>Good job!</p>"", ""task_version"": 1, ""internal_node_id"": ""0.0-2.0-1.0"", ""task_payment"": 0.5, ""time_elapsed"": 34944, ""debug_mode"": ""live"", ""key_press"": null, ""task_name"": ""aggressive-gt"", ""trial_index"": 12}"
A2C7TMRC2QHTIW:3X87C8JFV8IS5XMGEFOAM8O6PHZSQT,13,1547861733927,"{""rt"": 1858, ""trial_type"": ""face-likert-amanda"", ""debug_mode"": ""live"", ""task_type"": ""face trials"", ""responses"": ""{\""Q0\"":1}"", ""task_payment"": 0.5, ""task_version"": 1, ""internal_node_id"": ""0.0-3.0-0.0-0.0"", ""time_elapsed"": 36803, ""imgName"": ""/static/images/celeba_gt_crop/aggressive/024060.jpg"", ""questions"": ""[{\""prompt\"":\""<p>How <b>aggressive</b> does this person look? Rate from 1-9</p>\"",\""labels\"":[\""1 <br/>Not aggressive at all\"",\""2\"",\""3\"",\""4\"",\""5\"",\""6\"",\""7\"",\""8\"",\""9  <br/>Extremely aggressive\""],\""required\"":true}]"", ""task_unique_trial"": 100, ""task_name"": ""aggressive-gt"", ""trial_index"": 13, ""isRepeat"": 0}"
A2C7TMRC2QHTIW:3X87C8JFV8IS5XMGEFOAM8O6PHZSQT,14,1547861735711,"{""rt"": 1776, ""trial_type"": ""face-likert-amanda"", ""debug_mode"": ""live"", ""task_type"": ""face trials"", ""responses"": ""{\""Q0\"":0}"", ""task_payment"": 0.5, ""task_version"": 1, ""internal_node_id"": ""0.0-3.0-0.0-1.0"", ""time_elapsed"": 38587, ""imgName"": ""/static/images/celeba_gt_crop/aggressive/129756.jpg"", ""questions"": ""[{\""prompt\"":\""<p>How <b>aggressive</b> does this person look? Rate from 1-9</p>\"",\""labels\"":[\""1 <br/>Not aggressive at all\"",\""2\"",\""3\"",\""4\"",\""5\"",\""6\"",\""7\"",\""8\"",\""9  <br/>Extremely aggressive\""],\""required\"":true}]"", ""task_unique_trial"": 100, ""task_name"": ""aggressive-gt"", ""trial_index"": 14, ""isRepeat"": 0}"
A2C7TMRC2QHTIW:3X87C8JFV8IS5XMGEFOAM8O6PHZSQT,15,1547861737263,"{""rt"": 1543, ""trial_type"": ""face-likert-amanda"", ""debug_mode"": ""live"", ""task_type"": ""face trials"", ""responses"": ""{\""Q0\"":4}"", ""task_payment"": 0.5, ""task_version"": 1, ""internal_node_id"": ""0.0-3.0-0.0-2.0"", ""time_elapsed"": 40139, ""imgName"": ""/static/images/celeba_gt_crop/aggressive/025788.jpg"", ""questions"": ""[{\""prompt\"":\""<p>How <b>aggressive</b> does this person look? Rate from 1-9</p>\"",\""labels\"":[\""1 <br/>Not aggressive at all\"",\""2\"",\""3\"",\""4\"",\""5\"",\""6\"",\""7\"",\""8\"",\""9  <br/>Extremely aggressive\""],\""required\"":true}]"", ""task_unique_trial"": 100, ""task_name"": ""aggressive-gt"", ""trial_index"": 15, ""isRepeat"": 0}"
A2C7TMRC2QHTIW:3X87C8JFV8IS5XMGEFOAM8O6PHZSQT,16,1547861738823,"{""rt"": 1555, ""trial_type"": ""face-likert-amanda"", ""debug_mode"": ""live"", ""task_type"": ""face trials"", ""responses"": ""{\""Q0\"":0}"", ""task_payment"": 0.5, ""task_version"": 1, ""internal_node_id"": ""0.0-3.0-0.0-3.0"", ""time_elapsed"": 41699, ""imgName"": ""/static/images/celeba_gt_crop/aggressive/100006.jpg"", ""questions"": ""[{\""prompt\"":\""<p>How <b>aggressive</b> does this person look? Rate from 1-9</p>\"",\""labels\"":[\""1 <br/>Not aggressive at all\"",\""2\"",\""3\"",\""4\"",\""5\"",\""6\"",\""7\"",\""8\"",\""9  <br/>Extremely aggressive\""],\""required\"":true}]"", ""task_unique_trial"": 100, ""task_name"": ""aggressive-gt"", ""trial_index"": 16, ""isRepeat"": 0}"
A2C7TMRC2QHTIW:3X87C8JFV8IS5XMGEFOAM8O6PHZSQT,17,1547861740542,"{""rt"": 1715, ""trial_type"": ""face-likert-amanda"", ""debug_mode"": ""live"", ""task_type"": ""face trials"", ""responses"": ""{\""Q0\"":0}"", ""task_payment"": 0.5, ""task_version"": 1, ""internal_node_id"": ""0.0-3.0-0.0-4.0"", ""time_elapsed"": 43418, ""imgName"": ""/static/images/celeba_gt_crop/aggressive/053041.jpg"", ""questions"": ""[{\""prompt\"":\""<p>How <b>aggressive</b> does this person look? Rate from 1-9</p>\"",\""labels\"":[\""1 <br/>Not aggressive at all\"",\""2\"",\""3\"",\""4\"",\""5\"",\""6\"",\""7\"",\""8\"",\""9  <br/>Extremely aggressive\""],\""required\"":true}]"", ""task_unique_trial"": 100, ""task_name"": ""aggressive-gt"", ""trial_index"": 17, ""isRepeat"": 0}"
A2C7TMRC2QHTIW:3X87C8JFV8IS5XMGEFOAM8O6PHZSQT,18,1547861742551,"{""rt"": 2005, ""trial_type"": ""face-likert-amanda"", ""debug_mode"": ""live"", ""task_type"": ""face trials"", ""responses"": ""{\""Q0\"":0}"", ""task_payment"": 0.5, ""task_version"": 1, ""internal_node_id"": ""0.0-3.0-0.0-5.0"", ""time_elapsed"": 45427, ""imgName"": ""/static/images/celeba_gt_crop/aggressive/015405.jpg"", ""questions"": ""[{\""prompt\"":\""<p>How <b>aggressive</b> does this person look? Rate from 1-9</p>\"",\""labels\"":[\""1 <br/>Not aggressive at all\"",\""2\"",\""3\"",\""4\"",\""5\"",\""6\"",\""7\"",\""8\"",\""9  <br/>Extremely aggressive\""],\""required\"":true}]"", ""task_unique_trial"": 100, ""task_name"": ""aggressive-gt"", ""trial_index"": 18, ""isRepeat"": 0}"
A2C7TMRC2QHTIW:3X87C8JFV8IS5XMGEFOAM8O6PHZSQT,19,1547861743815,"{""rt"": 1260, ""trial_type"": ""face-likert-amanda"", ""debug_mode"": ""live"", ""task_type"": ""face trials"", ""responses"": ""{\""Q0\"":0}"", ""task_payment"": 0.5, ""task_version"": 1, ""internal_node_id"": ""0.0-3.0-0.0-6.0"", ""time_elapsed"": 46691, ""imgName"": ""/static/images/celeba_gt_crop/aggressive/052537.jpg"", ""questions"": ""[{\""prompt\"":\""<p>How <b>aggressive</b> does this person look? Rate from 1-9</p>\"",\""labels\"":[\""1 <br/>Not aggressive at all\"",\""2\"",\""3\"",\""4\"",\""5\"",\""6\"",\""7\"",\""8\"",\""9  <br/>Extremely aggressive\""],\""required\"":true}]"", ""task_unique_trial"": 100, ""task_name"": ""aggressive-gt"", ""trial_index"": 19, ""isRepeat"": 0}"
A2C7TMRC2QHTIW:3X87C8JFV8IS5XMGEFOAM8O6PHZSQT,20,1547861747174,"{""rt"": 3354, ""trial_type"": ""face-likert-amanda"", ""debug_mode"": ""live"", ""task_type"": ""face trials"", ""responses"": ""{\""Q0\"":5}"", ""task_payment"": 0.5, ""task_version"": 1, ""internal_node_id"": ""0.0-3.0-0.0-7.0"", ""time_elapsed"": 50050, ""imgName"": ""/static/images/celeba_gt_crop/aggressive/093378.jpg"", ""questions"": ""[{\""prompt\"":\""<p>How <b>aggressive</b> does this person look? Rate from 1-9</p>\"",\""labels\"":[\""1 <br/>Not aggressive at all\"",\""2\"",\""3\"",\""4\"",\""5\"",\""6\"",\""7\"",\""8\"",\""9  <br/>Extremely aggressive\""],\""required\"":true}]"", ""task_unique_trial"": 100, ""task_name"": ""aggressive-gt"", ""trial_index"": 20, ""isRepeat"": 0}"
A2C7TMRC2QHTIW:3X87C8JFV8IS5XMGEFOAM8O6PHZSQT,21,1547861749175,"{""rt"": 1996, ""trial_type"": ""face-likert-amanda"", ""debug_mode"": ""live"", ""task_type"": ""face trials"", ""responses"": ""{\""Q0\"":5}"", ""task_payment"": 0.5, ""task_version"": 1, ""internal_node_id"": ""0.0-3.0-0.0-8.0"", ""time_elapsed"": 52051, ""imgName"": ""/static/images/celeba_gt_crop/aggressive/093378.jpg"", ""questions"": ""[{\""prompt\"":\""<p>How <b>aggressive</b> does this person look? Rate from 1-9</p>\"",\""labels\"":[\""1 <br/>Not aggressive at all\"",\""2\"",\""3\"",\""4\"",\""5\"",\""6\"",\""7\"",\""8\"",\""9  <br/>Extremely aggressive\""],\""required\"":true}]"", ""task_unique_trial"": 100, ""task_name"": ""aggressive-gt"", ""trial_index"": 21, ""isRepeat"": 0}"
A2C7TMRC2QHTIW:3X87C8JFV8IS5XMGEFOAM8O6PHZSQT,22,1547861751222,"{""rt"": 2043, ""trial_type"": ""face-likert-amanda"", ""debug_mode"": ""live"", ""task_type"": ""face trials"", ""responses"": ""{\""Q0\"":0}"", ""task_payment"": 0.5, ""task_version"": 1, ""internal_node_id"": ""0.0-3.0-0.0-9.0"", ""time_elapsed"": 54098, ""imgName"": ""/static/images/celeba_gt_crop/aggressive/077010.jpg"", ""questions"": ""[{\""prompt\"":\""<p>How <b>aggressive</b> does this person look? Rate from 1-9</p>\"",\""labels\"":[\""1 <br/>Not aggressive at all\"",\""2\"",\""3\"",\""4\"",\""5\"",\""6\"",\""7\"",\""8\"",\""9  <br/>Extremely aggressive\""],\""required\"":true}]"", ""task_unique_trial"": 100, ""task_name"": ""aggressive-gt"", ""trial_index"": 22, ""isRepeat"": 0}"
A2C7TMRC2QHTIW:3X87C8JFV8IS5XMGEFOAM8O6PHZSQT,23,1547861752231,"{""rt"": null, ""trial_type"": ""html-keyboard-response"", ""task_unique_trial"": 100, ""stimulus"": ""<p>Good job!</p>"", ""task_version"": 1, ""internal_node_id"": ""0.0-3.0-1.0"", ""task_payment"": 0.5, ""time_elapsed"": 55107, ""debug_mode"": ""live"", ""key_press"": null, ""task_name"": ""aggressive-gt"", ""trial_index"": 23}"
A2C7TMRC2QHTIW:3X87C8JFV8IS5XMGEFOAM8O6PHZSQT,24,1547861753935,"{""rt"": 1702, ""trial_type"": ""face-likert-amanda"", ""debug_mode"": ""live"", ""task_type"": ""face trials"", ""responses"": ""{\""Q0\"":0}"", ""task_payment"": 0.5, ""task_version"": 1, ""internal_node_id"": ""0.0-4.0-0.0-0.0"", ""time_elapsed"": 56811, ""imgName"": ""/static/images/celeba_gt_crop/aggressive/042306.jpg"", ""questions"": ""[{\""prompt\"":\""<p>How <b>aggressive</b> does this person look? Rate from 1-9</p>\"",\""labels\"":[\""1 <br/>Not aggressive at all\"",\""2\"",\""3\"",\""4\"",\""5\"",\""6\"",\""7\"",\""8\"",\""9  <br/>Extremely aggressive\""],\""required\"":true}]"", ""task_unique_trial"": 100, ""task_name"": ""aggressive-gt"", ""trial_index"": 24, ""isRepeat"": 0}"
A2C7TMRC2QHTIW:3X87C8JFV8IS5XMGEFOAM8O6PHZSQT,25,1547861756742,"{""rt"": 2803, ""trial_type"": ""face-likert-amanda"", ""debug_mode"": ""live"", ""task_type"": ""face trials"", ""responses"": ""{\""Q0\"":7}"", ""task_payment"": 0.5, ""task_version"": 1, ""internal_node_id"": ""0.0-4.0-0.0-1.0"", ""time_elapsed"": 59618, ""imgName"": ""/static/images/celeba_gt_crop/aggressive/076493.jpg"", ""questions"": ""[{\""prompt\"":\""<p>How <b>aggressive</b> does this person look? Rate from 1-9</p>\"",\""labels\"":[\""1 <br/>Not aggressive at all\"",\""2\"",\""3\"",\""4\"",\""5\"",\""6\"",\""7\"",\""8\"",\""9  <br/>Extremely aggressive\""],\""required\"":true}]"", ""task_unique_trial"": 100, ""task_name"": ""aggressive-gt"", ""trial_index"": 25, ""isRepeat"": 0}"
A2C7TMRC2QHTIW:3X87C8JFV8IS5XMGEFOAM8O6PHZSQT,26,1547861758319,"{""rt"": 1570, ""trial_type"": ""face-likert-amanda"", ""debug_mode"": ""live"", ""task_type"": ""face trials"", ""responses"": ""{\""Q0\"":6}"", ""task_payment"": 0.5, ""task_version"": 1, ""internal_node_id"": ""0.0-4.0-0.0-2.0"", ""time_elapsed"": 61194, ""imgName"": ""/static/images/celeba_gt_crop/aggressive/100978.jpg"", ""questions"": ""[{\""prompt\"":\""<p>How <b>aggressive</b> does this person look? Rate from 1-9</p>\"",\""labels\"":[\""1 <br/>Not aggressive at all\"",\""2\"",\""3\"",\""4\"",\""5\"",\""6\"",\""7\"",\""8\"",\""9  <br/>Extremely aggressive\""],\""required\"":true}]"", ""task_unique_trial"": 100, ""task_name"": ""aggressive-gt"", ""trial_index"": 26, ""isRepeat"": 0}"
A2C7TMRC2QHTIW:3X87C8JFV8IS5XMGEFOAM8O6PHZSQT,27,1547861760639,"{""rt"": 2315, ""trial_type"": ""face-likert-amanda"", ""debug_mode"": ""live"", ""task_type"": ""face trials"", ""responses"": ""{\""Q0\"":3}"", ""task_payment"": 0.5, ""task_version"": 1, ""internal_node_id"": ""0.0-4.0-0.0-3.0"", ""time_elapsed"": 63515, ""imgName"": ""/static/images/celeba_gt_crop/aggressive/016460.jpg"", ""questions"": ""[{\""prompt\"":\""<p>How <b>aggressive</b> does this person look? Rate from 1-9</p>\"",\""labels\"":[\""1 <br/>Not aggressive at all\"",\""2\"",\""3\"",\""4\"",\""5\"",\""6\"",\""7\"",\""8\"",\""9  <br/>Extremely aggressive\""],\""required\"":true}]"", ""task_unique_trial"": 100, ""task_name"": ""aggressive-gt"", ""trial_index"": 27, ""isRepeat"": 0}"
A2C7TMRC2QHTIW:3X87C8JFV8IS5XMGEFOAM8O6PHZSQT,28,1547861762542,"{""rt"": 1899, ""trial_type"": ""face-likert-amanda"", ""debug_mode"": ""live"", ""task_type"": ""face trials"", ""responses"": ""{\""Q0\"":7}"", ""task_payment"": 0.5, ""task_version"": 1, ""internal_node_id"": ""0.0-4.0-0.0-4.0"", ""time_elapsed"": 65418, ""imgName"": ""/static/images/celeba_gt_crop/aggressive/065232.jpg"", ""questions"": ""[{\""prompt\"":\""<p>How <b>aggressive</b> does this person look? Rate from 1-9</p>\"",\""labels\"":[\""1 <br/>Not aggressive at all\"",\""2\"",\""3\"",\""4\"",\""5\"",\""6\"",\""7\"",\""8\"",\""9  <br/>Extremely aggressive\""],\""required\"":true}]"", ""task_unique_trial"": 100, ""task_name"": ""aggressive-gt"", ""trial_index"": 28, ""isRepeat"": 0}"
A2C7TMRC2QHTIW:3X87C8JFV8IS5XMGEFOAM8O6PHZSQT,29,1547861764607,"{""rt"": 2060, ""trial_type"": ""face-likert-amanda"", ""debug_mode"": ""live"", ""task_type"": ""face trials"", ""responses"": ""{\""Q0\"":4}"", ""task_payment"": 0.5, ""task_version"": 1, ""internal_node_id"": ""0.0-4.0-0.0-5.0"", ""time_elapsed"": 67483, ""imgName"": ""/static/images/celeba_gt_crop/aggressive/124569.jpg"", ""questions"": ""[{\""prompt\"":\""<p>How <b>aggressive</b> does this person look? Rate from 1-9</p>\"",\""labels\"":[\""1 <br/>Not aggressive at all\"",\""2\"",\""3\"",\""4\"",\""5\"",\""6\"",\""7\"",\""8\"",\""9  <br/>Extremely aggressive\""],\""required\"":true}]"", ""task_unique_trial"": 100, ""task_name"": ""aggressive-gt"", ""trial_index"": 29, ""isRepeat"": 0}"
A2C7TMRC2QHTIW:3X87C8JFV8IS5XMGEFOAM8O6PHZSQT,30,1547861766702,"{""rt"": 2091, ""trial_type"": ""face-likert-amanda"", ""debug_mode"": ""live"", ""task_type"": ""face trials"", ""responses"": ""{\""Q0\"":5}"", ""task_payment"": 0.5, ""task_version"": 1, ""internal_node_id"": ""0.0-4.0-0.0-6.0"", ""time_elapsed"": 69578, ""imgName"": ""/static/images/celeba_gt_crop/aggressive/077169.jpg"", ""questions"": ""[{\""prompt\"":\""<p>How <b>aggressive</b> does this person look? Rate from 1-9</p>\"",\""labels\"":[\""1 <br/>Not aggressive at all\"",\""2\"",\""3\"",\""4\"",\""5\"",\""6\"",\""7\"",\""8\"",\""9  <br/>Extremely aggressive\""],\""required\"":true}]"", ""task_unique_trial"": 100, ""task_name"": ""aggressive-gt"", ""trial_index"": 30, ""isRepeat"": 0}"
A2C7TMRC2QHTIW:3X87C8JFV8IS5XMGEFOAM8O6PHZSQT,31,1547861768671,"{""rt"": 1965, ""trial_type"": ""face-likert-amanda"", ""debug_mode"": ""live"", ""task_type"": ""face trials"", ""responses"": ""{\""Q0\"":4}"", ""task_payment"": 0.5, ""task_version"": 1, ""internal_node_id"": ""0.0-4.0-0.0-7.0"", ""time_elapsed"": 71547, ""imgName"": ""/static/images/celeba_gt_crop/aggressive/098615.jpg"", ""questions"": ""[{\""prompt\"":\""<p>How <b>aggressive</b> does this person look? Rate from 1-9</p>\"",\""labels\"":[\""1 <br/>Not aggressive at all\"",\""2\"",\""3\"",\""4\"",\""5\"",\""6\"",\""7\"",\""8\"",\""9  <br/>Extremely aggressive\""],\""required\"":true}]"", ""task_unique_trial"": 100, ""task_name"": ""aggressive-gt"", ""trial_index"": 31, ""isRepeat"": 0}"
A2C7TMRC2QHTIW:3X87C8JFV8IS5XMGEFOAM8O6PHZSQT,32,1547861770854,"{""rt"": 2179, ""trial_type"": ""face-likert-amanda"", ""debug_mode"": ""live"", ""task_type"": ""face trials"", ""responses"": ""{\""Q0\"":4}"", ""task_payment"": 0.5, ""task_version"": 1, ""internal_node_id"": ""0.0-4.0-0.0-8.0"", ""time_elapsed"": 73730, ""imgName"": ""/static/images/celeba_gt_crop/aggressive/054938.jpg"", ""questions"": ""[{\""prompt\"":\""<p>How <b>aggressive</b> does this person look? Rate from 1-9</p>\"",\""labels\"":[\""1 <br/>Not aggressive at all\"",\""2\"",\""3\"",\""4\"",\""5\"",\""6\"",\""7\"",\""8\"",\""9  <br/>Extremely aggressive\""],\""required\"":true}]"", ""task_unique_trial"": 100, ""task_name"": ""aggressive-gt"", ""trial_index"": 32, ""isRepeat"": 0}"
A2C7TMRC2QHTIW:3X87C8JFV8IS5XMGEFOAM8O6PHZSQT,33,1547861772463,"{""rt"": 1603, ""trial_type"": ""face-likert-amanda"", ""debug_mode"": ""live"", ""task_type"": ""face trials"", ""responses"": ""{\""Q0\"":3}"", ""task_payment"": 0.5, ""task_version"": 1, ""internal_node_id"": ""0.0-4.0-0.0-9.0"", ""time_elapsed"": 75339, ""imgName"": ""/static/images/celeba_gt_crop/aggressive/150552.jpg"", ""questions"": ""[{\""prompt\"":\""<p>How <b>aggressive</b> does this person look? Rate from 1-9</p>\"",\""labels\"":[\""1 <br/>Not aggressive at all\"",\""2\"",\""3\"",\""4\"",\""5\"",\""6\"",\""7\"",\""8\"",\""9  <br/>Extremely aggressive\""],\""required\"":true}]"", ""task_unique_trial"": 100, ""task_name"": ""aggressive-gt"", ""trial_index"": 33, ""isRepeat"": 0}"
A2C7TMRC2QHTIW:3X87C8JFV8IS5XMGEFOAM8O6PHZSQT,34,1547861774471,"{""rt"": null, ""trial_type"": ""html-keyboard-response"", ""task_unique_trial"": 100, ""stimulus"": ""<p>Good job!</p>"", ""task_version"": 1, ""internal_node_id"": ""0.0-4.0-1.0"", ""task_payment"": 0.5, ""time_elapsed"": 77347, ""debug_mode"": ""live"", ""key_press"": null, ""task_name"": ""aggressive-gt"", ""trial_index"": 34}"
A2C7TMRC2QHTIW:3X87C8JFV8IS5XMGEFOAM8O6PHZSQT,35,1547861776216,"{""rt"": 1742, ""trial_type"": ""face-likert-amanda"", ""debug_mode"": ""live"", ""task_type"": ""face trials"", ""responses"": ""{\""Q0\"":5}"", ""task_payment"": 0.5, ""task_version"": 1, ""internal_node_id"": ""0.0-5.0-0.0-0.0"", ""time_elapsed"": 79092, ""imgName"": ""/static/images/celeba_gt_crop/aggressive/056648.jpg"", ""questions"": ""[{\""prompt\"":\""<p>How <b>aggressive</b> does this person look? Rate from 1-9</p>\"",\""labels\"":[\""1 <br/>Not aggressive at all\"",\""2\"",\""3\"",\""4\"",\""5\"",\""6\"",\""7\"",\""8\"",\""9  <br/>Extremely aggressive\""],\""required\"":true}]"", ""task_unique_trial"": 100, ""task_name"": ""aggressive-gt"", ""trial_index"": 35, ""isRepeat"": 0}"
A2C7TMRC2QHTIW:3X87C8JFV8IS5XMGEFOAM8O6PHZSQT,36,1547861778183,"{""rt"": 1962, ""trial_type"": ""face-likert-amanda"", ""debug_mode"": ""live"", ""task_type"": ""face trials"", ""responses"": ""{\""Q0\"":1}"", ""task_payment"": 0.5, ""task_version"": 1, ""internal_node_id"": ""0.0-5.0-0.0-1.0"", ""time_elapsed"": 81059, ""imgName"": ""/static/images/celeba_gt_crop/aggressive/202552.jpg"", ""questions"": ""[{\""prompt\"":\""<p>How <b>aggressive</b> does this person look? Rate from 1-9</p>\"",\""labels\"":[\""1 <br/>Not aggressive at all\"",\""2\"",\""3\"",\""4\"",\""5\"",\""6\"",\""7\"",\""8\"",\""9  <br/>Extremely aggressive\""],\""required\"":true}]"", ""task_unique_trial"": 100, ""task_name"": ""aggressive-gt"", ""trial_index"": 36, ""isRepeat"": 0}"
A2C7TMRC2QHTIW:3X87C8JFV8IS5XMGEFOAM8O6PHZSQT,37,1547861780375,"{""rt"": 2187, ""trial_type"": ""face-likert-amanda"", ""debug_mode"": ""live"", ""task_type"": ""face trials"", ""responses"": ""{\""Q0\"":7}"", ""task_payment"": 0.5, ""task_version"": 1, ""internal_node_id"": ""0.0-5.0-0.0-2.0"", ""time_elapsed"": 83251, ""imgName"": ""/static/images/celeba_gt_crop/aggressive/088398.jpg"", ""questions"": ""[{\""prompt\"":\""<p>How <b>aggressive</b> does this person look? Rate from 1-9</p>\"",\""labels\"":[\""1 <br/>Not aggressive at all\"",\""2\"",\""3\"",\""4\"",\""5\"",\""6\"",\""7\"",\""8\"",\""9  <br/>Extremely aggressive\""],\""required\"":true}]"", ""task_unique_trial"": 100, ""task_name"": ""aggressive-gt"", ""trial_index"": 37, ""isRepeat"": 0}"
A2C7TMRC2QHTIW:3X87C8JFV8IS5XMGEFOAM8O6PHZSQT,38,1547861782487,"{""rt"": 2108, ""trial_type"": ""face-likert-amanda"", ""debug_mode"": ""live"", ""task_type"": ""face trials"", ""responses"": ""{\""Q0\"":0}"", ""task_payment"": 0.5, ""task_version"": 1, ""internal_node_id"": ""0.0-5.0-0.0-3.0"", ""time_elapsed"": 85363, ""imgName"": ""/static/images/celeba_gt_crop/aggressive/081054.jpg"", ""questions"": ""[{\""prompt\"":\""<p>How <b>aggressive</b> does this person look? Rate from 1-9</p>\"",\""labels\"":[\""1 <br/>Not aggressive at all\"",\""2\"",\""3\"",\""4\"",\""5\"",\""6\"",\""7\"",\""8\"",\""9  <br/>Extremely aggressive\""],\""required\"":true}]"", ""task_unique_trial"": 100, ""task_name"": ""aggressive-gt"", ""trial_index"": 38, ""isRepeat"": 0}"
A2C7TMRC2QHTIW:3X87C8JFV8IS5XMGEFOAM8O6PHZSQT,39,1547861784239,"{""rt"": 1747, ""trial_type"": ""face-likert-amanda"", ""debug_mode"": ""live"", ""task_type"": ""face trials"", ""responses"": ""{\""Q0\"":5}"", ""task_payment"": 0.5, ""task_version"": 1, ""internal_node_id"": ""0.0-5.0-0.0-4.0"", ""time_elapsed"": 87115, ""imgName"": ""/static/images/celeba_gt_crop/aggressive/032472.jpg"", ""questions"": ""[{\""prompt\"":\""<p>How <b>aggressive</b> does this person look? Rate from 1-9</p>\"",\""labels\"":[\""1 <br/>Not aggressive at all\"",\""2\"",\""3\"",\""4\"",\""5\"",\""6\"",\""7\"",\""8\"",\""9  <br/>Extremely aggressive\""],\""required\"":true}]"", ""task_unique_trial"": 100, ""task_name"": ""aggressive-gt"", ""trial_index"": 39, ""isRepeat"": 0}"
A2C7TMRC2QHTIW:3X87C8JFV8IS5XMGEFOAM8O6PHZSQT,40,1547861785655,"{""rt"": 1411, ""trial_type"": ""face-likert-amanda"", ""debug_mode"": ""live"", ""task_type"": ""face trials"", ""responses"": ""{\""Q0\"":5}"", ""task_payment"": 0.5, ""task_version"": 1, ""internal_node_id"": ""0.0-5.0-0.0-5.0"", ""time_elapsed"": 88531, ""imgName"": ""/static/images/celeba_gt_crop/aggressive/038546.jpg"", ""questions"": ""[{\""prompt\"":\""<p>How <b>aggressive</b> does this person look? Rate from 1-9</p>\"",\""labels\"":[\""1 <br/>Not aggressive at all\"",\""2\"",\""3\"",\""4\"",\""5\"",\""6\"",\""7\"",\""8\"",\""9  <br/>Extremely aggressive\""],\""required\"":true}]"", ""task_unique_trial"": 100, ""task_name"": ""aggressive-gt"", ""trial_index"": 40, ""isRepeat"": 0}"
A2C7TMRC2QHTIW:3X87C8JFV8IS5XMGEFOAM8O6PHZSQT,41,1547861787127,"{""rt"": 1467, ""trial_type"": ""face-likert-amanda"", ""debug_mode"": ""live"", ""task_type"": ""face trials"", ""responses"": ""{\""Q0\"":0}"", ""task_payment"": 0.5, ""task_version"": 1, ""internal_node_id"": ""0.0-5.0-0.0-6.0"", ""time_elapsed"": 90003, ""imgName"": ""/static/images/celeba_gt_crop/aggressive/086810.jpg"", ""questions"": ""[{\""prompt\"":\""<p>How <b>aggressive</b> does this person look? Rate from 1-9</p>\"",\""labels\"":[\""1 <br/>Not aggressive at all\"",\""2\"",\""3\"",\""4\"",\""5\"",\""6\"",\""7\"",\""8\"",\""9  <br/>Extremely aggressive\""],\""required\"":true}]"", ""task_unique_trial"": 100, ""task_name"": ""aggressive-gt"", ""trial_index"": 41, ""isRepeat"": 0}"
A2C7TMRC2QHTIW:3X87C8JFV8IS5XMGEFOAM8O6PHZSQT,42,1547861788807,"{""rt"": 1675, ""trial_type"": ""face-likert-amanda"", ""debug_mode"": ""live"", ""task_type"": ""face trials"", ""responses"": ""{\""Q0\"":6}"", ""task_payment"": 0.5, ""task_version"": 1, ""internal_node_id"": ""0.0-5.0-0.0-7.0"", ""time_elapsed"": 91683, ""imgName"": ""/static/images/celeba_gt_crop/aggressive/113079.jpg"", ""questions"": ""[{\""prompt\"":\""<p>How <b>aggressive</b> does this person look? Rate from 1-9</p>\"",\""labels\"":[\""1 <br/>Not aggressive at all\"",\""2\"",\""3\"",\""4\"",\""5\"",\""6\"",\""7\"",\""8\"",\""9  <br/>Extremely aggressive\""],\""required\"":true}]"", ""task_unique_trial"": 100, ""task_name"": ""aggressive-gt"", ""trial_index"": 42, ""isRepeat"": 0}"
A2C7TMRC2QHTIW:3X87C8JFV8IS5XMGEFOAM8O6PHZSQT,43,1547861790990,"{""rt"": 2180, ""trial_type"": ""face-likert-amanda"", ""debug_mode"": ""live"", ""task_type"": ""face trials"", ""responses"": ""{\""Q0\"":5}"", ""task_payment"": 0.5, ""task_version"": 1, ""internal_node_id"": ""0.0-5.0-0.0-8.0"", ""time_elapsed"": 93866, ""imgName"": ""/static/images/celeba_gt_crop/aggressive/078190.jpg"", ""questions"": ""[{\""prompt\"":\""<p>How <b>aggressive</b> does this person look? Rate from 1-9</p>\"",\""labels\"":[\""1 <br/>Not aggressive at all\"",\""2\"",\""3\"",\""4\"",\""5\"",\""6\"",\""7\"",\""8\"",\""9  <br/>Extremely aggressive\""],\""required\"":true}]"", ""task_unique_trial"": 100, ""task_name"": ""aggressive-gt"", ""trial_index"": 43, ""isRepeat"": 0}"
A2C7TMRC2QHTIW:3X87C8JFV8IS5XMGEFOAM8O6PHZSQT,44,1547861792775,"{""rt"": 1779, ""trial_type"": ""face-likert-amanda"", ""debug_mode"": ""live"", ""task_type"": ""face trials"", ""responses"": ""{\""Q0\"":0}"", ""task_payment"": 0.5, ""task_version"": 1, ""internal_node_id"": ""0.0-5.0-0.0-9.0"", ""time_elapsed"": 95651, ""imgName"": ""/static/images/celeba_gt_crop/aggressive/049463.jpg"", ""questions"": ""[{\""prompt\"":\""<p>How <b>aggressive</b> does this person look? Rate from 1-9</p>\"",\""labels\"":[\""1 <br/>Not aggressive at all\"",\""2\"",\""3\"",\""4\"",\""5\"",\""6\"",\""7\"",\""8\"",\""9  <br/>Extremely aggressive\""],\""required\"":true}]"", ""task_unique_trial"": 100, ""task_name"": ""aggressive-gt"", ""trial_index"": 44, ""isRepeat"": 0}"
A2C7TMRC2QHTIW:3X87C8JFV8IS5XMGEFOAM8O6PHZSQT,45,1547861794783,"{""rt"": null, ""trial_type"": ""html-keyboard-response"", ""task_unique_trial"": 100, ""stimulus"": ""<p>Good job!</p>"", ""task_version"": 1, ""internal_node_id"": ""0.0-5.0-1.0"", ""task_payment"": 0.5, ""time_elapsed"": 97659, ""debug_mode"": ""live"", ""key_press"": null, ""task_name"": ""aggressive-gt"", ""trial_index"": 45}"
A2C7TMRC2QHTIW:3X87C8JFV8IS5XMGEFOAM8O6PHZSQT,46,1547861796455,"{""rt"": 1671, ""trial_type"": ""face-likert-amanda"", ""debug_mode"": ""live"", ""task_type"": ""face trials"", ""responses"": ""{\""Q0\"":0}"", ""task_payment"": 0.5, ""task_version"": 1, ""internal_node_id"": ""0.0-6.0-0.0-0.0"", ""time_elapsed"": 99330, ""imgName"": ""/static/images/celeba_gt_crop/aggressive/143051.jpg"", ""questions"": ""[{\""prompt\"":\""<p>How <b>aggressive</b> does this person look? Rate from 1-9</p>\"",\""labels\"":[\""1 <br/>Not aggressive at all\"",\""2\"",\""3\"",\""4\"",\""5\"",\""6\"",\""7\"",\""8\"",\""9  <br/>Extremely aggressive\""],\""required\"":true}]"", ""task_unique_trial"": 100, ""task_name"": ""aggressive-gt"", ""trial_index"": 46, ""isRepeat"": 0}"
A2C7TMRC2QHTIW:3X87C8JFV8IS5XMGEFOAM8O6PHZSQT,47,1547861799755,"{""rt"": 3296, ""trial_type"": ""face-likert-amanda"", ""debug_mode"": ""live"", ""task_type"": ""face trials"", ""responses"": ""{\""Q0\"":0}"", ""task_payment"": 0.5, ""task_version"": 1, ""internal_node_id"": ""0.0-6.0-0.0-1.0"", ""time_elapsed"": 102631, ""imgName"": ""/static/images/celeba_gt_crop/aggressive/143767.jpg"", ""questions"": ""[{\""prompt\"":\""<p>How <b>aggressive</b> does this person look? Rate from 1-9</p>\"",\""labels\"":[\""1 <br/>Not aggressive at all\"",\""2\"",\""3\"",\""4\"",\""5\"",\""6\"",\""7\"",\""8\"",\""9  <br/>Extremely aggressive\""],\""required\"":true}]"", ""task_unique_trial"": 100, ""task_name"": ""aggressive-gt"", ""trial_index"": 47, ""isRepeat"": 0}"
A2C7TMRC2QHTIW:3X87C8JFV8IS5XMGEFOAM8O6PHZSQT,48,1547861801511,"{""rt"": 1747, ""trial_type"": ""face-likert-amanda"", ""debug_mode"": ""live"", ""task_type"": ""face trials"", ""responses"": ""{\""Q0\"":6}"", ""task_payment"": 0.5, ""task_version"": 1, ""internal_node_id"": ""0.0-6.0-0.0-2.0"", ""time_elapsed"": 104387, ""imgName"": ""/static/images/celeba_gt_crop/aggressive/054459.jpg"", ""questions"": ""[{\""prompt\"":\""<p>How <b>aggressive</b> does this person look? Rate from 1-9</p>\"",\""labels\"":[\""1 <br/>Not aggressive at all\"",\""2\"",\""3\"",\""4\"",\""5\"",\""6\"",\""7\"",\""8\"",\""9  <br/>Extremely aggressive\""],\""required\"":true}]"", ""task_unique_trial"": 100, ""task_name"": ""aggressive-gt"", ""trial_index"": 48, ""isRepeat"": 0}"
A2C7TMRC2QHTIW:3X87C8JFV8IS5XMGEFOAM8O6PHZSQT,49,1547861803334,"{""rt"": 1820, ""trial_type"": ""face-likert-amanda"", ""debug_mode"": ""live"", ""task_type"": ""face trials"", ""responses"": ""{\""Q0\"":2}"", ""task_payment"": 0.5, ""task_version"": 1, ""internal_node_id"": ""0.0-6.0-0.0-3.0"", ""time_elapsed"": 106210, ""imgName"": ""/static/images/celeba_gt_crop/aggressive/140421.jpg"", ""questions"": ""[{\""prompt\"":\""<p>How <b>aggressive</b> does this person look? Rate from 1-9</p>\"",\""labels\"":[\""1 <br/>Not aggressive at all\"",\""2\"",\""3\"",\""4\"",\""5\"",\""6\"",\""7\"",\""8\"",\""9  <br/>Extremely aggressive\""],\""required\"":true}]"", ""task_unique_trial"": 100, ""task_name"": ""aggressive-gt"", ""trial_index"": 49, ""isRepeat"": 0}"
A2C7TMRC2QHTIW:3X87C8JFV8IS5XMGEFOAM8O6PHZSQT,50,1547861804775,"{""rt"": 1436, ""trial_type"": ""face-likert-amanda"", ""debug_mode"": ""live"", ""task_type"": ""face trials"", ""responses"": ""{\""Q0\"":0}"", ""task_payment"": 0.5, ""task_version"": 1, ""internal_node_id"": ""0.0-6.0-0.0-4.0"", ""time_elapsed"": 107651, ""imgName"": ""/static/images/celeba_gt_crop/aggressive/066051.jpg"", ""questions"": ""[{\""prompt\"":\""<p>How <b>aggressive</b> does this person look? Rate from 1-9</p>\"",\""labels\"":[\""1 <br/>Not aggressive at all\"",\""2\"",\""3\"",\""4\"",\""5\"",\""6\"",\""7\"",\""8\"",\""9  <br/>Extremely aggressive\""],\""required\"":true}]"", ""task_unique_trial"": 100, ""task_name"": ""aggressive-gt"", ""trial_index"": 50, ""isRepeat"": 0}"
A2C7TMRC2QHTIW:3X87C8JFV8IS5XMGEFOAM8O6PHZSQT,51,1547861805927,"{""rt"": 1147, ""trial_type"": ""face-likert-amanda"", ""debug_mode"": ""live"", ""task_type"": ""face trials"", ""responses"": ""{\""Q0\"":0}"", ""task_payment"": 0.5, ""task_version"": 1, ""internal_node_id"": ""0.0-6.0-0.0-5.0"", ""time_elapsed"": 108803, ""imgName"": ""/static/images/celeba_gt_crop/aggressive/142657.jpg"", ""questions"": ""[{\""prompt\"":\""<p>How <b>aggressive</b> does this person look? Rate from 1-9</p>\"",\""labels\"":[\""1 <br/>Not aggressive at all\"",\""2\"",\""3\"",\""4\"",\""5\"",\""6\"",\""7\"",\""8\"",\""9  <br/>Extremely aggressive\""],\""required\"":true}]"", ""task_unique_trial"": 100, ""task_name"": ""aggressive-gt"", ""trial_index"": 51, ""isRepeat"": 0}"
A2C7TMRC2QHTIW:3X87C8JFV8IS5XMGEFOAM8O6PHZSQT,52,1547861807119,"{""rt"": 1185, ""trial_type"": ""face-likert-amanda"", ""debug_mode"": ""live"", ""task_type"": ""face trials"", ""responses"": ""{\""Q0\"":0}"", ""task_payment"": 0.5, ""task_version"": 1, ""internal_node_id"": ""0.0-6.0-0.0-6.0"", ""time_elapsed"": 109995, ""imgName"": ""/static/images/celeba_gt_crop/aggressive/076409.jpg"", ""questions"": ""[{\""prompt\"":\""<p>How <b>aggressive</b> does this person look? Rate from 1-9</p>\"",\""labels\"":[\""1 <br/>Not aggressive at all\"",\""2\"",\""3\"",\""4\"",\""5\"",\""6\"",\""7\"",\""8\"",\""9  <br/>Extremely aggressive\""],\""required\"":true}]"", ""task_unique_trial"": 100, ""task_name"": ""aggressive-gt"", ""trial_index"": 52, ""isRepeat"": 0}"
A2C7TMRC2QHTIW:3X87C8JFV8IS5XMGEFOAM8O6PHZSQT,53,1547861808295,"{""rt"": 1173, ""trial_type"": ""face-likert-amanda"", ""debug_mode"": ""live"", ""task_type"": ""face trials"", ""responses"": ""{\""Q0\"":0}"", ""task_payment"": 0.5, ""task_version"": 1, ""internal_node_id"": ""0.0-6.0-0.0-7.0"", ""time_elapsed"": 111171, ""imgName"": ""/static/images/celeba_gt_crop/aggressive/015405.jpg"", ""questions"": ""[{\""prompt\"":\""<p>How <b>aggressive</b> does this person look? Rate from 1-9</p>\"",\""labels\"":[\""1 <br/>Not aggressive at all\"",\""2\"",\""3\"",\""4\"",\""5\"",\""6\"",\""7\"",\""8\"",\""9  <br/>Extremely aggressive\""],\""required\"":true}]"", ""task_unique_trial"": 100, ""task_name"": ""aggressive-gt"", ""trial_index"": 53, ""isRepeat"": 0}"
A2C7TMRC2QHTIW:3X87C8JFV8IS5XMGEFOAM8O6PHZSQT,54,1547861810399,"{""rt"": 2099, ""trial_type"": ""face-likert-amanda"", ""debug_mode"": ""live"", ""task_type"": ""face trials"", ""responses"": ""{\""Q0\"":2}"", ""task_payment"": 0.5, ""task_version"": 1, ""internal_node_id"": ""0.0-6.0-0.0-8.0"", ""time_elapsed"": 113275, ""imgName"": ""/static/images/celeba_gt_crop/aggressive/124569.jpg"", ""questions"": ""[{\""prompt\"":\""<p>How <b>aggressive</b> does this person look? Rate from 1-9</p>\"",\""labels\"":[\""1 <br/>Not aggressive at all\"",\""2\"",\""3\"",\""4\"",\""5\"",\""6\"",\""7\"",\""8\"",\""9  <br/>Extremely aggressive\""],\""required\"":true}]"", ""task_unique_trial"": 100, ""task_name"": ""aggressive-gt"", ""trial_index"": 54, ""isRepeat"": 0}"
A2C7TMRC2QHTIW:3X87C8JFV8IS5XMGEFOAM8O6PHZSQT,55,1547861812007,"{""rt"": 1603, ""trial_type"": ""face-likert-amanda"", ""debug_mode"": ""live"", ""task_type"": ""face trials"", ""responses"": ""{\""Q0\"":4}"", ""task_payment"": 0.5, ""task_version"": 1, ""internal_node_id"": ""0.0-6.0-0.0-9.0"", ""time_elapsed"": 114883, ""imgName"": ""/static/images/celeba_gt_crop/aggressive/078190.jpg"", ""questions"": ""[{\""prompt\"":\""<p>How <b>aggressive</b> does this person look? Rate from 1-9</p>\"",\""labels\"":[\""1 <br/>Not aggressive at all\"",\""2\"",\""3\"",\""4\"",\""5\"",\""6\"",\""7\"",\""8\"",\""9  <br/>Extremely aggressive\""],\""required\"":true}]"", ""task_unique_trial"": 100, ""task_name"": ""aggressive-gt"", ""trial_index"": 55, ""isRepeat"": 0}"
A2C7TMRC2QHTIW:3X87C8JFV8IS5XMGEFOAM8O6PHZSQT,56,1547861814015,"{""rt"": null, ""trial_type"": ""html-keyboard-response"", ""task_unique_trial"": 100, ""stimulus"": ""<p>Good job!</p>"", ""task_version"": 1, ""internal_node_id"": ""0.0-6.0-1.0"", ""task_payment"": 0.5, ""time_elapsed"": 116891, ""debug_mode"": ""live"", ""key_press"": null, ""task_name"": ""aggressive-gt"", ""trial_index"": 56}"
A2C7TMRC2QHTIW:3X87C8JFV8IS5XMGEFOAM8O6PHZSQT,57,1547861815631,"{""rt"": 1615, ""trial_type"": ""face-likert-amanda"", ""debug_mode"": ""live"", ""task_type"": ""face trials"", ""responses"": ""{\""Q0\"":6}"", ""task_payment"": 0.5, ""task_version"": 1, ""internal_node_id"": ""0.0-7.0-0.0-0.0"", ""time_elapsed"": 118507, ""imgName"": ""/static/images/celeba_gt_crop/aggressive/020087.jpg"", ""questions"": ""[{\""prompt\"":\""<p>How <b>aggressive</b> does this person look? Rate from 1-9</p>\"",\""labels\"":[\""1 <br/>Not aggressive at all\"",\""2\"",\""3\"",\""4\"",\""5\"",\""6\"",\""7\"",\""8\"",\""9  <br/>Extremely aggressive\""],\""required\"":true}]"", ""task_unique_trial"": 100, ""task_name"": ""aggressive-gt"", ""trial_index"": 57, ""isRepeat"": 0}"
A2C7TMRC2QHTIW:3X87C8JFV8IS5XMGEFOAM8O6PHZSQT,58,1547861817775,"{""rt"": 2139, ""trial_type"": ""face-likert-amanda"", ""debug_mode"": ""live"", ""task_type"": ""face trials"", ""responses"": ""{\""Q0\"":5}"", ""task_payment"": 0.5, ""task_version"": 1, ""internal_node_id"": ""0.0-7.0-0.0-1.0"", ""time_elapsed"": 120650, ""imgName"": ""/static/images/celeba_gt_crop/aggressive/144125.jpg"", ""questions"": ""[{\""prompt\"":\""<p>How <b>aggressive</b> does this person look? Rate from 1-9</p>\"",\""labels\"":[\""1 <br/>Not aggressive at all\"",\""2\"",\""3\"",\""4\"",\""5\"",\""6\"",\""7\"",\""8\"",\""9  <br/>Extremely aggressive\""],\""required\"":true}]"", ""task_unique_trial"": 100, ""task_name"": ""aggressive-gt"", ""trial_index"": 58, ""isRepeat"": 0}"
A2C7TMRC2QHTIW:3X87C8JFV8IS5XMGEFOAM8O6PHZSQT,59,1547861819775,"{""rt"": 1995, ""trial_type"": ""face-likert-amanda"", ""debug_mode"": ""live"", ""task_type"": ""face trials"", ""responses"": ""{\""Q0\"":2}"", ""task_payment"": 0.5, ""task_version"": 1, ""internal_node_id"": ""0.0-7.0-0.0-2.0"", ""time_elapsed"": 122651, ""imgName"": ""/static/images/celeba_gt_crop/aggressive/084323.jpg"", ""questions"": ""[{\""prompt\"":\""<p>How <b>aggressive</b> does this person look? Rate from 1-9</p>\"",\""labels\"":[\""1 <br/>Not aggressive at all\"",\""2\"",\""3\"",\""4\"",\""5\"",\""6\"",\""7\"",\""8\"",\""9  <br/>Extremely aggressive\""],\""required\"":true}]"", ""task_unique_trial"": 100, ""task_name"": ""aggressive-gt"", ""trial_index"": 59, ""isRepeat"": 0}"
A2C7TMRC2QHTIW:3X87C8JFV8IS5XMGEFOAM8O6PHZSQT,60,1547861821262,"{""rt"": 1483, ""trial_type"": ""face-likert-amanda"", ""debug_mode"": ""live"", ""task_type"": ""face trials"", ""responses"": ""{\""Q0\"":0}"", ""task_payment"": 0.5, ""task_version"": 1, ""internal_node_id"": ""0.0-7.0-0.0-3.0"", ""time_elapsed"": 124138, ""imgName"": ""/static/images/celeba_gt_crop/aggressive/068350.jpg"", ""questions"": ""[{\""prompt\"":\""<p>How <b>aggressive</b> does this person look? Rate from 1-9</p>\"",\""labels\"":[\""1 <br/>Not aggressive at all\"",\""2\"",\""3\"",\""4\"",\""5\"",\""6\"",\""7\"",\""8\"",\""9  <br/>Extremely aggressive\""],\""required\"":true}]"", ""task_unique_trial"": 100, ""task_name"": ""aggressive-gt"", ""trial_index"": 60, ""isRepeat"": 0}"
A2C7TMRC2QHTIW:3X87C8JFV8IS5XMGEFOAM8O6PHZSQT,61,1547861822423,"{""rt"": 1155, ""trial_type"": ""face-likert-amanda"", ""debug_mode"": ""live"", ""task_type"": ""face trials"", ""responses"": ""{\""Q0\"":0}"", ""task_payment"": 0.5, ""task_version"": 1, ""internal_node_id"": ""0.0-7.0-0.0-4.0"", ""time_elapsed"": 125299, ""imgName"": ""/static/images/celeba_gt_crop/aggressive/088677.jpg"", ""questions"": ""[{\""prompt\"":\""<p>How <b>aggressive</b> does this person look? Rate from 1-9</p>\"",\""labels\"":[\""1 <br/>Not aggressive at all\"",\""2\"",\""3\"",\""4\"",\""5\"",\""6\"",\""7\"",\""8\"",\""9  <br/>Extremely aggressive\""],\""required\"":true}]"", ""task_unique_trial"": 100, ""task_name"": ""aggressive-gt"", ""trial_index"": 61, ""isRepeat"": 0}"
A2C7TMRC2QHTIW:3X87C8JFV8IS5XMGEFOAM8O6PHZSQT,62,1547861823487,"{""rt"": 1059, ""trial_type"": ""face-likert-amanda"", ""debug_mode"": ""live"", ""task_type"": ""face trials"", ""responses"": ""{\""Q0\"":0}"", ""task_payment"": 0.5, ""task_version"": 1, ""internal_node_id"": ""0.0-7.0-0.0-5.0"", ""time_elapsed"": 126363, ""imgName"": ""/static/images/celeba_gt_crop/aggressive/091837.jpg"", ""questions"": ""[{\""prompt\"":\""<p>How <b>aggressive</b> does this person look? Rate from 1-9</p>\"",\""labels\"":[\""1 <br/>Not aggressive at all\"",\""2\"",\""3\"",\""4\"",\""5\"",\""6\"",\""7\"",\""8\"",\""9  <br/>Extremely aggressive\""],\""required\"":true}]"", ""task_unique_trial"": 100, ""task_name"": ""aggressive-gt"", ""trial_index"": 62, ""isRepeat"": 0}"
A2C7TMRC2QHTIW:3X87C8JFV8IS5XMGEFOAM8O6PHZSQT,63,1547861825159,"{""rt"": 1668, ""trial_type"": ""face-likert-amanda"", ""debug_mode"": ""live"", ""task_type"": ""face trials"", ""responses"": ""{\""Q0\"":7}"", ""task_payment"": 0.5, ""task_version"": 1, ""internal_node_id"": ""0.0-7.0-0.0-6.0"", ""time_elapsed"": 128035, ""imgName"": ""/static/images/celeba_gt_crop/aggressive/142336.jpg"", ""questions"": ""[{\""prompt\"":\""<p>How <b>aggressive</b> does this person look? Rate from 1-9</p>\"",\""labels\"":[\""1 <br/>Not aggressive at all\"",\""2\"",\""3\"",\""4\"",\""5\"",\""6\"",\""7\"",\""8\"",\""9  <br/>Extremely aggressive\""],\""required\"":true}]"", ""task_unique_trial"": 100, ""task_name"": ""aggressive-gt"", ""trial_index"": 63, ""isRepeat"": 0}"
A2C7TMRC2QHTIW:3X87C8JFV8IS5XMGEFOAM8O6PHZSQT,64,1547861826775,"{""rt"": 1611, ""trial_type"": ""face-likert-amanda"", ""debug_mode"": ""live"", ""task_type"": ""face trials"", ""responses"": ""{\""Q0\"":0}"", ""task_payment"": 0.5, ""task_version"": 1, ""internal_node_id"": ""0.0-7.0-0.0-7.0"", ""time_elapsed"": 129651, ""imgName"": ""/static/images/celeba_gt_crop/aggressive/087519.jpg"", ""questions"": ""[{\""prompt\"":\""<p>How <b>aggressive</b> does this person look? Rate from 1-9</p>\"",\""labels\"":[\""1 <br/>Not aggressive at all\"",\""2\"",\""3\"",\""4\"",\""5\"",\""6\"",\""7\"",\""8\"",\""9  <br/>Extremely aggressive\""],\""required\"":true}]"", ""task_unique_trial"": 100, ""task_name"": ""aggressive-gt"", ""trial_index"": 64, ""isRepeat"": 0}"
A2C7TMRC2QHTIW:3X87C8JFV8IS5XMGEFOAM8O6PHZSQT,65,1547861828327,"{""rt"": 1548, ""trial_type"": ""face-likert-amanda"", ""debug_mode"": ""live"", ""task_type"": ""face trials"", ""responses"": ""{\""Q0\"":7}"", ""task_payment"": 0.5, ""task_version"": 1, ""internal_node_id"": ""0.0-7.0-0.0-8.0"", ""time_elapsed"": 131203, ""imgName"": ""/static/images/celeba_gt_crop/aggressive/142336.jpg"", ""questions"": ""[{\""prompt\"":\""<p>How <b>aggressive</b> does this person look? Rate from 1-9</p>\"",\""labels\"":[\""1 <br/>Not aggressive at all\"",\""2\"",\""3\"",\""4\"",\""5\"",\""6\"",\""7\"",\""8\"",\""9  <br/>Extremely aggressive\""],\""required\"":true}]"", ""task_unique_trial"": 100, ""task_name"": ""aggressive-gt"", ""trial_index"": 65, ""isRepeat"": 0}"
A2C7TMRC2QHTIW:3X87C8JFV8IS5XMGEFOAM8O6PHZSQT,66,1547861830135,"{""rt"": 1804, ""trial_type"": ""face-likert-amanda"", ""debug_mode"": ""live"", ""task_type"": ""face trials"", ""responses"": ""{\""Q0\"":6}"", ""task_payment"": 0.5, ""task_version"": 1, ""internal_node_id"": ""0.0-7.0-0.0-9.0"", ""time_elapsed"": 133011, ""imgName"": ""/static/images/celeba_gt_crop/aggressive/054459.jpg"", ""questions"": ""[{\""prompt\"":\""<p>How <b>aggressive</b> does this person look? Rate from 1-9</p>\"",\""labels\"":[\""1 <br/>Not aggressive at all\"",\""2\"",\""3\"",\""4\"",\""5\"",\""6\"",\""7\"",\""8\"",\""9  <br/>Extremely aggressive\""],\""required\"":true}]"", ""task_unique_trial"": 100, ""task_name"": ""aggressive-gt"", ""trial_index"": 66, ""isRepeat"": 0}"
A2C7TMRC2QHTIW:3X87C8JFV8IS5XMGEFOAM8O6PHZSQT,67,1547861831640,"{""rt"": null, ""trial_type"": ""html-keyboard-response"", ""task_unique_trial"": 100, ""stimulus"": ""<p>Good job!</p>"", ""task_version"": 1, ""internal_node_id"": ""0.0-7.0-1.0"", ""task_payment"": 0.5, ""time_elapsed"": 134516, ""debug_mode"": ""live"", ""key_press"": null, ""task_name"": ""aggressive-gt"", ""trial_index"": 67}"
A2C7TMRC2QHTIW:3X87C8JFV8IS5XMGEFOAM8O6PHZSQT,68,1547861833599,"{""rt"": 1957, ""trial_type"": ""face-likert-amanda"", ""debug_mode"": ""live"", ""task_type"": ""face trials"", ""responses"": ""{\""Q0\"":6}"", ""task_payment"": 0.5, ""task_version"": 1, ""internal_node_id"": ""0.0-8.0-0.0-0.0"", ""time_elapsed"": 136475, ""imgName"": ""/static/images/celeba_gt_crop/aggressive/053394.jpg"", ""questions"": ""[{\""prompt\"":\""<p>How <b>aggressive</b> does this person look? Rate from 1-9</p>\"",\""labels\"":[\""1 <br/>Not aggressive at all\"",\""2\"",\""3\"",\""4\"",\""5\"",\""6\"",\""7\"",\""8\"",\""9  <br/>Extremely aggressive\""],\""required\"":true}]"", ""task_unique_trial"": 100, ""task_name"": ""aggressive-gt"", ""trial_index"": 68, ""isRepeat"": 0}"
A2C7TMRC2QHTIW:3X87C8JFV8IS5XMGEFOAM8O6PHZSQT,69,1547861835535,"{""rt"": 1931, ""trial_type"": ""face-likert-amanda"", ""debug_mode"": ""live"", ""task_type"": ""face trials"", ""responses"": ""{\""Q0\"":2}"", ""task_payment"": 0.5, ""task_version"": 1, ""internal_node_id"": ""0.0-8.0-0.0-1.0"", ""time_elapsed"": 138410, ""imgName"": ""/static/images/celeba_gt_crop/aggressive/127601.jpg"", ""questions"": ""[{\""prompt\"":\""<p>How <b>aggressive</b> does this person look? Rate from 1-9</p>\"",\""labels\"":[\""1 <br/>Not aggressive at all\"",\""2\"",\""3\"",\""4\"",\""5\"",\""6\"",\""7\"",\""8\"",\""9  <br/>Extremely aggressive\""],\""required\"":true}]"", ""task_unique_trial"": 100, ""task_name"": ""aggressive-gt"", ""trial_index"": 69, ""isRepeat"": 0}"
A2C7TMRC2QHTIW:3X87C8JFV8IS5XMGEFOAM8O6PHZSQT,70,1547861836983,"{""rt"": 1444, ""trial_type"": ""face-likert-amanda"", ""debug_mode"": ""live"", ""task_type"": ""face trials"", ""responses"": ""{\""Q0\"":4}"", ""task_payment"": 0.5, ""task_version"": 1, ""internal_node_id"": ""0.0-8.0-0.0-2.0"", ""time_elapsed"": 139859, ""imgName"": ""/static/images/celeba_gt_crop/aggressive/185343.jpg"", ""questions"": ""[{\""prompt\"":\""<p>How <b>aggressive</b> does this person look? Rate from 1-9</p>\"",\""labels\"":[\""1 <br/>Not aggressive at all\"",\""2\"",\""3\"",\""4\"",\""5\"",\""6\"",\""7\"",\""8\"",\""9  <br/>Extremely aggressive\""],\""required\"":true}]"", ""task_unique_trial"": 100, ""task_name"": ""aggressive-gt"", ""trial_index"": 70, ""isRepeat"": 0}"
A2C7TMRC2QHTIW:3X87C8JFV8IS5XMGEFOAM8O6PHZSQT,71,1547861838535,"{""rt"": 1547, ""trial_type"": ""face-likert-amanda"", ""debug_mode"": ""live"", ""task_type"": ""face trials"", ""responses"": ""{\""Q0\"":0}"", ""task_payment"": 0.5, ""task_version"": 1, ""internal_node_id"": ""0.0-8.0-0.0-3.0"", ""time_elapsed"": 141411, ""imgName"": ""/static/images/celeba_gt_crop/aggressive/106414.jpg"", ""questions"": ""[{\""prompt\"":\""<p>How <b>aggressive</b> does this person look? Rate from 1-9</p>\"",\""labels\"":[\""1 <br/>Not aggressive at all\"",\""2\"",\""3\"",\""4\"",\""5\"",\""6\"",\""7\"",\""8\"",\""9  <br/>Extremely aggressive\""],\""required\"":true}]"", ""task_unique_trial"": 100, ""task_name"": ""aggressive-gt"", ""trial_index"": 71, ""isRepeat"": 0}"
A2C7TMRC2QHTIW:3X87C8JFV8IS5XMGEFOAM8O6PHZSQT,72,1547861840526,"{""rt"": 1987, ""trial_type"": ""face-likert-amanda"", ""debug_mode"": ""live"", ""task_type"": ""face trials"", ""responses"": ""{\""Q0\"":0}"", ""task_payment"": 0.5, ""task_version"": 1, ""internal_node_id"": ""0.0-8.0-0.0-4.0"", ""time_elapsed"": 143402, ""imgName"": ""/static/images/celeba_gt_crop/aggressive/042306.jpg"", ""questions"": ""[{\""prompt\"":\""<p>How <b>aggressive</b> does this person look? Rate from 1-9</p>\"",\""labels\"":[\""1 <br/>Not aggressive at all\"",\""2\"",\""3\"",\""4\"",\""5\"",\""6\"",\""7\"",\""8\"",\""9  <br/>Extremely aggressive\""],\""required\"":true}]"", ""task_unique_trial"": 100, ""task_name"": ""aggressive-gt"", ""trial_index"": 72, ""isRepeat"": 0}"
A2C7TMRC2QHTIW:3X87C8JFV8IS5XMGEFOAM8O6PHZSQT,73,1547861842423,"{""rt"": 1891, ""trial_type"": ""face-likert-amanda"", ""debug_mode"": ""live"", ""task_type"": ""face trials"", ""responses"": ""{\""Q0\"":2}"", ""task_payment"": 0.5, ""task_version"": 1, ""internal_node_id"": ""0.0-8.0-0.0-5.0"", ""time_elapsed"": 145299, ""imgName"": ""/static/images/celeba_gt_crop/aggressive/100684.jpg"", ""questions"": ""[{\""prompt\"":\""<p>How <b>aggressive</b> does this person look? Rate from 1-9</p>\"",\""labels\"":[\""1 <br/>Not aggressive at all\"",\""2\"",\""3\"",\""4\"",\""5\"",\""6\"",\""7\"",\""8\"",\""9  <br/>Extremely aggressive\""],\""required\"":true}]"", ""task_unique_trial"": 100, ""task_name"": ""aggressive-gt"", ""trial_index"": 73, ""isRepeat"": 0}"
A2C7TMRC2QHTIW:3X87C8JFV8IS5XMGEFOAM8O6PHZSQT,74,1547861843854,"{""rt"": 1427, ""trial_type"": ""face-likert-amanda"", ""debug_mode"": ""live"", ""task_type"": ""face trials"", ""responses"": ""{\""Q0\"":0}"", ""task_payment"": 0.5, ""task_version"": 1, ""internal_node_id"": ""0.0-8.0-0.0-6.0"", ""time_elapsed"": 146730, ""imgName"": ""/static/images/celeba_gt_crop/aggressive/086142.jpg"", ""questions"": ""[{\""prompt\"":\""<p>How <b>aggressive</b> does this person look? Rate from 1-9</p>\"",\""labels\"":[\""1 <br/>Not aggressive at all\"",\""2\"",\""3\"",\""4\"",\""5\"",\""6\"",\""7\"",\""8\"",\""9  <br/>Extremely aggressive\""],\""required\"":true}]"", ""task_unique_trial"": 100, ""task_name"": ""aggressive-gt"", ""trial_index"": 74, ""isRepeat"": 0}"
A2C7TMRC2QHTIW:3X87C8JFV8IS5XMGEFOAM8O6PHZSQT,75,1547861845239,"{""rt"": 1379, ""trial_type"": ""face-likert-amanda"", ""debug_mode"": ""live"", ""task_type"": ""face trials"", ""responses"": ""{\""Q0\"":0}"", ""task_payment"": 0.5, ""task_version"": 1, ""internal_node_id"": ""0.0-8.0-0.0-7.0"", ""time_elapsed"": 148115, ""imgName"": ""/static/images/celeba_gt_crop/aggressive/087519.jpg"", ""questions"": ""[{\""prompt\"":\""<p>How <b>aggressive</b> does this person look? Rate from 1-9</p>\"",\""labels\"":[\""1 <br/>Not aggressive at all\"",\""2\"",\""3\"",\""4\"",\""5\"",\""6\"",\""7\"",\""8\"",\""9  <br/>Extremely aggressive\""],\""required\"":true}]"", ""task_unique_trial"": 100, ""task_name"": ""aggressive-gt"", ""trial_index"": 75, ""isRepeat"": 0}"
A2C7TMRC2QHTIW:3X87C8JFV8IS5XMGEFOAM8O6PHZSQT,76,1547861846716,"{""rt"": 1472, ""trial_type"": ""face-likert-amanda"", ""debug_mode"": ""live"", ""task_type"": ""face trials"", ""responses"": ""{\""Q0\"":0}"", ""task_payment"": 0.5, ""task_version"": 1, ""internal_node_id"": ""0.0-8.0-0.0-8.0"", ""time_elapsed"": 149592, ""imgName"": ""/static/images/celeba_gt_crop/aggressive/077010.jpg"", ""questions"": ""[{\""prompt\"":\""<p>How <b>aggressive</b> does this person look? Rate from 1-9</p>\"",\""labels\"":[\""1 <br/>Not aggressive at all\"",\""2\"",\""3\"",\""4\"",\""5\"",\""6\"",\""7\"",\""8\"",\""9  <br/>Extremely aggressive\""],\""required\"":true}]"", ""task_unique_trial"": 100, ""task_name"": ""aggressive-gt"", ""trial_index"": 76, ""isRepeat"": 0}"
A2C7TMRC2QHTIW:3X87C8JFV8IS5XMGEFOAM8O6PHZSQT,77,1547861849427,"{""rt"": 2706, ""trial_type"": ""face-likert-amanda"", ""debug_mode"": ""live"", ""task_type"": ""face trials"", ""responses"": ""{\""Q0\"":0}"", ""task_payment"": 0.5, ""task_version"": 1, ""internal_node_id"": ""0.0-8.0-0.0-9.0"", ""time_elapsed"": 152303, ""imgName"": ""/static/images/celeba_gt_crop/aggressive/101907.jpg"", ""questions"": ""[{\""prompt\"":\""<p>How <b>aggressive</b> does this person look? Rate from 1-9</p>\"",\""labels\"":[\""1 <br/>Not aggressive at all\"",\""2\"",\""3\"",\""4\"",\""5\"",\""6\"",\""7\"",\""8\"",\""9  <br/>Extremely aggressive\""],\""required\"":true}]"", ""task_unique_trial"": 100, ""task_name"": ""aggressive-gt"", ""trial_index"": 77, ""isRepeat"": 0}"
A2C7TMRC2QHTIW:3X87C8JFV8IS5XMGEFOAM8O6PHZSQT,78,1547861850935,"{""rt"": null, ""trial_type"": ""html-keyboard-response"", ""task_unique_trial"": 100, ""stimulus"": ""<p>Good job!</p>"", ""task_version"": 1, ""internal_node_id"": ""0.0-8.0-1.0"", ""task_payment"": 0.5, ""time_elapsed"": 153808, ""debug_mode"": ""live"", ""key_press"": null, ""task_name"": ""aggressive-gt"", ""trial_index"": 78}"
A2C7TMRC2QHTIW:3X87C8JFV8IS5XMGEFOAM8O6PHZSQT,79,1547861853247,"{""rt"": 2311, ""trial_type"": ""face-likert-amanda"", ""debug_mode"": ""live"", ""task_type"": ""face trials"", ""responses"": ""{\""Q0\"":2}"", ""task_payment"": 0.5, ""task_version"": 1, ""internal_node_id"": ""0.0-9.0-0.0-0.0"", ""time_elapsed"": 156123, ""imgName"": ""/static/images/celeba_gt_crop/aggressive/154870.jpg"", ""questions"": ""[{\""prompt\"":\""<p>How <b>aggressive</b> does this person look? Rate from 1-9</p>\"",\""labels\"":[\""1 <br/>Not aggressive at all\"",\""2\"",\""3\"",\""4\"",\""5\"",\""6\"",\""7\"",\""8\"",\""9  <br/>Extremely aggressive\""],\""required\"":true}]"", ""task_unique_trial"": 100, ""task_name"": ""aggressive-gt"", ""trial_index"": 79, ""isRepeat"": 0}"
A2C7TMRC2QHTIW:3X87C8JFV8IS5XMGEFOAM8O6PHZSQT,80,1547861854591,"{""rt"": 1339, ""trial_type"": ""face-likert-amanda"", ""debug_mode"": ""live"", ""task_type"": ""face trials"", ""responses"": ""{\""Q0\"":0}"", ""task_payment"": 0.5, ""task_version"": 1, ""internal_node_id"": ""0.0-9.0-0.0-1.0"", ""time_elapsed"": 157467, ""imgName"": ""/static/images/celeba_gt_crop/aggressive/052537.jpg"", ""questions"": ""[{\""prompt\"":\""<p>How <b>aggressive</b> does this person look? Rate from 1-9</p>\"",\""labels\"":[\""1 <br/>Not aggressive at all\"",\""2\"",\""3\"",\""4\"",\""5\"",\""6\"",\""7\"",\""8\"",\""9  <br/>Extremely aggressive\""],\""required\"":true}]"", ""task_unique_trial"": 100, ""task_name"": ""aggressive-gt"", ""trial_index"": 80, ""isRepeat"": 0}"
A2C7TMRC2QHTIW:3X87C8JFV8IS5XMGEFOAM8O6PHZSQT,81,1547861856967,"{""rt"": 2371, ""trial_type"": ""face-likert-amanda"", ""debug_mode"": ""live"", ""task_type"": ""face trials"", ""responses"": ""{\""Q0\"":6}"", ""task_payment"": 0.5, ""task_version"": 1, ""internal_node_id"": ""0.0-9.0-0.0-2.0"", ""time_elapsed"": 159843, ""imgName"": ""/static/images/celeba_gt_crop/aggressive/124843.jpg"", ""questions"": ""[{\""prompt\"":\""<p>How <b>aggressive</b> does this person look? Rate from 1-9</p>\"",\""labels\"":[\""1 <br/>Not aggressive at all\"",\""2\"",\""3\"",\""4\"",\""5\"",\""6\"",\""7\"",\""8\"",\""9  <br/>Extremely aggressive\""],\""required\"":true}]"", ""task_unique_trial"": 100, ""task_name"": ""aggressive-gt"", ""trial_index"": 81, ""isRepeat"": 0}"
A2C7TMRC2QHTIW:3X87C8JFV8IS5XMGEFOAM8O6PHZSQT,82,1547861858535,"{""rt"": 1562, ""trial_type"": ""face-likert-amanda"", ""debug_mode"": ""live"", ""task_type"": ""face trials"", ""responses"": ""{\""Q0\"":0}"", ""task_payment"": 0.5, ""task_version"": 1, ""internal_node_id"": ""0.0-9.0-0.0-3.0"", ""time_elapsed"": 161410, ""imgName"": ""/static/images/celeba_gt_crop/aggressive/049463.jpg"", ""questions"": ""[{\""prompt\"":\""<p>How <b>aggressive</b> does this person look? Rate from 1-9</p>\"",\""labels\"":[\""1 <br/>Not aggressive at all\"",\""2\"",\""3\"",\""4\"",\""5\"",\""6\"",\""7\"",\""8\"",\""9  <br/>Extremely aggressive\""],\""required\"":true}]"", ""task_unique_trial"": 100, ""task_name"": ""aggressive-gt"", ""trial_index"": 82, ""isRepeat"": 0}"
A2C7TMRC2QHTIW:3X87C8JFV8IS5XMGEFOAM8O6PHZSQT,83,1547861860063,"{""rt"": 1523, ""trial_type"": ""face-likert-amanda"", ""debug_mode"": ""live"", ""task_type"": ""face trials"", ""responses"": ""{\""Q0\"":4}"", ""task_payment"": 0.5, ""task_version"": 1, ""internal_node_id"": ""0.0-9.0-0.0-4.0"", ""time_elapsed"": 162939, ""imgName"": ""/static/images/celeba_gt_crop/aggressive/165401.jpg"", ""questions"": ""[{\""prompt\"":\""<p>How <b>aggressive</b> does this person look? Rate from 1-9</p>\"",\""labels\"":[\""1 <br/>Not aggressive at all\"",\""2\"",\""3\"",\""4\"",\""5\"",\""6\"",\""7\"",\""8\"",\""9  <br/>Extremely aggressive\""],\""required\"":true}]"", ""task_unique_trial"": 100, ""task_name"": ""aggressive-gt"", ""trial_index"": 83, ""isRepeat"": 0}"
A2C7TMRC2QHTIW:3X87C8JFV8IS5XMGEFOAM8O6PHZSQT,84,1547861861575,"{""rt"": 1507, ""trial_type"": ""face-likert-amanda"", ""debug_mode"": ""live"", ""task_type"": ""face trials"", ""responses"": ""{\""Q0\"":0}"", ""task_payment"": 0.5, ""task_version"": 1, ""internal_node_id"": ""0.0-9.0-0.0-5.0"", ""time_elapsed"": 164451, ""imgName"": ""/static/images/celeba_gt_crop/aggressive/143051.jpg"", ""questions"": ""[{\""prompt\"":\""<p>How <b>aggressive</b> does this person look? Rate from 1-9</p>\"",\""labels\"":[\""1 <br/>Not aggressive at all\"",\""2\"",\""3\"",\""4\"",\""5\"",\""6\"",\""7\"",\""8\"",\""9  <br/>Extremely aggressive\""],\""required\"":true}]"", ""task_unique_trial"": 100, ""task_name"": ""aggressive-gt"", ""trial_index"": 84, ""isRepeat"": 0}"
A2C7TMRC2QHTIW:3X87C8JFV8IS5XMGEFOAM8O6PHZSQT,85,1547861863375,"{""rt"": 1795, ""trial_type"": ""face-likert-amanda"", ""debug_mode"": ""live"", ""task_type"": ""face trials"", ""responses"": ""{\""Q0\"":4}"", ""task_payment"": 0.5, ""task_version"": 1, ""internal_node_id"": ""0.0-9.0-0.0-6.0"", ""time_elapsed"": 166251, ""imgName"": ""/static/images/celeba_gt_crop/aggressive/024231.jpg"", ""questions"": ""[{\""prompt\"":\""<p>How <b>aggressive</b> does this person look? Rate from 1-9</p>\"",\""labels\"":[\""1 <br/>Not aggressive at all\"",\""2\"",\""3\"",\""4\"",\""5\"",\""6\"",\""7\"",\""8\"",\""9  <br/>Extremely aggressive\""],\""required\"":true}]"", ""task_unique_trial"": 100, ""task_name"": ""aggressive-gt"", ""trial_index"": 85, ""isRepeat"": 0}"
A2C7TMRC2QHTIW:3X87C8JFV8IS5XMGEFOAM8O6PHZSQT,86,1547861867815,"{""rt"": 4435, ""trial_type"": ""face-likert-amanda"", ""debug_mode"": ""live"", ""task_type"": ""face trials"", ""responses"": ""{\""Q0\"":6}"", ""task_payment"": 0.5, ""task_version"": 1, ""internal_node_id"": ""0.0-9.0-0.0-7.0"", ""time_elapsed"": 170691, ""imgName"": ""/static/images/celeba_gt_crop/aggressive/077518.jpg"", ""questions"": ""[{\""prompt\"":\""<p>How <b>aggressive</b> does this person look? Rate from 1-9</p>\"",\""labels\"":[\""1 <br/>Not aggressive at all\"",\""2\"",\""3\"",\""4\"",\""5\"",\""6\"",\""7\"",\""8\"",\""9  <br/>Extremely aggressive\""],\""required\"":true}]"", ""task_unique_trial"": 100, ""task_name"": ""aggressive-gt"", ""trial_index"": 86, ""isRepeat"": 0}"
A2C7TMRC2QHTIW:3X87C8JFV8IS5XMGEFOAM8O6PHZSQT,87,1547861869351,"{""rt"": 1531, ""trial_type"": ""face-likert-amanda"", ""debug_mode"": ""live"", ""task_type"": ""face trials"", ""responses"": ""{\""Q0\"":4}"", ""task_payment"": 0.5, ""task_version"": 1, ""internal_node_id"": ""0.0-9.0-0.0-8.0"", ""time_elapsed"": 172227, ""imgName"": ""/static/images/celeba_gt_crop/aggressive/127601.jpg"", ""questions"": ""[{\""prompt\"":\""<p>How <b>aggressive</b> does this person look? Rate from 1-9</p>\"",\""labels\"":[\""1 <br/>Not aggressive at all\"",\""2\"",\""3\"",\""4\"",\""5\"",\""6\"",\""7\"",\""8\"",\""9  <br/>Extremely aggressive\""],\""required\"":true}]"", ""task_unique_trial"": 100, ""task_name"": ""aggressive-gt"", ""trial_index"": 87, ""isRepeat"": 0}"
A2C7TMRC2QHTIW:3X87C8JFV8IS5XMGEFOAM8O6PHZSQT,88,1547861870840,"{""rt"": 1483, ""trial_type"": ""face-likert-amanda"", ""debug_mode"": ""live"", ""task_type"": ""face trials"", ""responses"": ""{\""Q0\"":2}"", ""task_payment"": 0.5, ""task_version"": 1, ""internal_node_id"": ""0.0-9.0-0.0-9.0"", ""time_elapsed"": 173716, ""imgName"": ""/static/images/celeba_gt_crop/aggressive/034432.jpg"", ""questions"": ""[{\""prompt\"":\""<p>How <b>aggressive</b> does this person look? Rate from 1-9</p>\"",\""labels\"":[\""1 <br/>Not aggressive at all\"",\""2\"",\""3\"",\""4\"",\""5\"",\""6\"",\""7\"",\""8\"",\""9  <br/>Extremely aggressive\""],\""required\"":true}]"", ""task_unique_trial"": 100, ""task_name"": ""aggressive-gt"", ""trial_index"": 88, ""isRepeat"": 0}"
A2C7TMRC2QHTIW:3X87C8JFV8IS5XMGEFOAM8O6PHZSQT,89,1547861872344,"{""rt"": null, ""trial_type"": ""html-keyboard-response"", ""task_unique_trial"": 100, ""stimulus"": ""<p>Good job!</p>"", ""task_version"": 1, ""internal_node_id"": ""0.0-9.0-1.0"", ""task_payment"": 0.5, ""time_elapsed"": 175220, ""debug_mode"": ""live"", ""key_press"": null, ""task_name"": ""aggressive-gt"", ""trial_index"": 89}"
A2C7TMRC2QHTIW:3X87C8JFV8IS5XMGEFOAM8O6PHZSQT,90,1547861874679,"{""rt"": 2332, ""trial_type"": ""face-likert-amanda"", ""debug_mode"": ""live"", ""task_type"": ""face trials"", ""responses"": ""{\""Q0\"":6}"", ""task_payment"": 0.5, ""task_version"": 1, ""internal_node_id"": ""0.0-10.0-0.0-0.0"", ""time_elapsed"": 177555, ""imgName"": ""/static/images/celeba_gt_crop/aggressive/124843.jpg"", ""questions"": ""[{\""prompt\"":\""<p>How <b>aggressive</b> does this person look? Rate from 1-9</p>\"",\""labels\"":[\""1 <br/>Not aggressive at all\"",\""2\"",\""3\"",\""4\"",\""5\"",\""6\"",\""7\"",\""8\"",\""9  <br/>Extremely aggressive\""],\""required\"":true}]"", ""task_unique_trial"": 100, ""task_name"": ""aggressive-gt"", ""trial_index"": 90, ""isRepeat"": 0}"
A2C7TMRC2QHTIW:3X87C8JFV8IS5XMGEFOAM8O6PHZSQT,91,1547861876359,"{""rt"": 1675, ""trial_type"": ""face-likert-amanda"", ""debug_mode"": ""live"", ""task_type"": ""face trials"", ""responses"": ""{\""Q0\"":7}"", ""task_payment"": 0.5, ""task_version"": 1, ""internal_node_id"": ""0.0-10.0-0.0-1.0"", ""time_elapsed"": 179235, ""imgName"": ""/static/images/celeba_gt_crop/aggressive/012584.jpg"", ""questions"": ""[{\""prompt\"":\""<p>How <b>aggressive</b> does this person look? Rate from 1-9</p>\"",\""labels\"":[\""1 <br/>Not aggressive at all\"",\""2\"",\""3\"",\""4\"",\""5\"",\""6\"",\""7\"",\""8\"",\""9  <br/>Extremely aggressive\""],\""required\"":true}]"", ""task_unique_trial"": 100, ""task_name"": ""aggressive-gt"", ""trial_index"": 91, ""isRepeat"": 0}"
A2C7TMRC2QHTIW:3X87C8JFV8IS5XMGEFOAM8O6PHZSQT,92,1547861878079,"{""rt"": 1715, ""trial_type"": ""face-likert-amanda"", ""debug_mode"": ""live"", ""task_type"": ""face trials"", ""responses"": ""{\""Q0\"":8}"", ""task_payment"": 0.5, ""task_version"": 1, ""internal_node_id"": ""0.0-10.0-0.0-2.0"", ""time_elapsed"": 180955, ""imgName"": ""/static/images/celeba_gt_crop/aggressive/056106.jpg"", ""questions"": ""[{\""prompt\"":\""<p>How <b>aggressive</b> does this person look? Rate from 1-9</p>\"",\""labels\"":[\""1 <br/>Not aggressive at all\"",\""2\"",\""3\"",\""4\"",\""5\"",\""6\"",\""7\"",\""8\"",\""9  <br/>Extremely aggressive\""],\""required\"":true}]"", ""task_unique_trial"": 100, ""task_name"": ""aggressive-gt"", ""trial_index"": 92, ""isRepeat"": 0}"
A2C7TMRC2QHTIW:3X87C8JFV8IS5XMGEFOAM8O6PHZSQT,93,1547861880095,"{""rt"": 2011, ""trial_type"": ""face-likert-amanda"", ""debug_mode"": ""live"", ""task_type"": ""face trials"", ""responses"": ""{\""Q0\"":4}"", ""task_payment"": 0.5, ""task_version"": 1, ""internal_node_id"": ""0.0-10.0-0.0-3.0"", ""time_elapsed"": 182971, ""imgName"": ""/static/images/celeba_gt_crop/aggressive/144125.jpg"", ""questions"": ""[{\""prompt\"":\""<p>How <b>aggressive</b> does this person look? Rate from 1-9</p>\"",\""labels\"":[\""1 <br/>Not aggressive at all\"",\""2\"",\""3\"",\""4\"",\""5\"",\""6\"",\""7\"",\""8\"",\""9  <br/>Extremely aggressive\""],\""required\"":true}]"", ""task_unique_trial"": 100, ""task_name"": ""aggressive-gt"", ""trial_index"": 93, ""isRepeat"": 0}"
A2C7TMRC2QHTIW:3X87C8JFV8IS5XMGEFOAM8O6PHZSQT,94,1547861881712,"{""rt"": 1612, ""trial_type"": ""face-likert-amanda"", ""debug_mode"": ""live"", ""task_type"": ""face trials"", ""responses"": ""{\""Q0\"":0}"", ""task_payment"": 0.5, ""task_version"": 1, ""internal_node_id"": ""0.0-10.0-0.0-4.0"", ""time_elapsed"": 184588, ""imgName"": ""/static/images/celeba_gt_crop/aggressive/129756.jpg"", ""questions"": ""[{\""prompt\"":\""<p>How <b>aggressive</b> does this person look? Rate from 1-9</p>\"",\""labels\"":[\""1 <br/>Not aggressive at all\"",\""2\"",\""3\"",\""4\"",\""5\"",\""6\"",\""7\"",\""8\"",\""9  <br/>Extremely aggressive\""],\""required\"":true}]"", ""task_unique_trial"": 100, ""task_name"": ""aggressive-gt"", ""trial_index"": 94, ""isRepeat"": 0}"
A2C7TMRC2QHTIW:3X87C8JFV8IS5XMGEFOAM8O6PHZSQT,95,1547861882887,"{""rt"": 1170, ""trial_type"": ""face-likert-amanda"", ""debug_mode"": ""live"", ""task_type"": ""face trials"", ""responses"": ""{\""Q0\"":0}"", ""task_payment"": 0.5, ""task_version"": 1, ""internal_node_id"": ""0.0-10.0-0.0-5.0"", ""time_elapsed"": 185763, ""imgName"": ""/static/images/celeba_gt_crop/aggressive/173118.jpg"", ""questions"": ""[{\""prompt\"":\""<p>How <b>aggressive</b> does this person look? Rate from 1-9</p>\"",\""labels\"":[\""1 <br/>Not aggressive at all\"",\""2\"",\""3\"",\""4\"",\""5\"",\""6\"",\""7\"",\""8\"",\""9  <br/>Extremely aggressive\""],\""required\"":true}]"", ""task_unique_trial"": 100, ""task_name"": ""aggressive-gt"", ""trial_index"": 95, ""isRepeat"": 0}"
A2C7TMRC2QHTIW:3X87C8JFV8IS5XMGEFOAM8O6PHZSQT,96,1547861883918,"{""rt"": 1027, ""trial_type"": ""face-likert-amanda"", ""debug_mode"": ""live"", ""task_type"": ""face trials"", ""responses"": ""{\""Q0\"":0}"", ""task_payment"": 0.5, ""task_version"": 1, ""internal_node_id"": ""0.0-10.0-0.0-6.0"", ""time_elapsed"": 186794, ""imgName"": ""/static/images/celeba_gt_crop/aggressive/077071.jpg"", ""questions"": ""[{\""prompt\"":\""<p>How <b>aggressive</b> does this person look? Rate from 1-9</p>\"",\""labels\"":[\""1 <br/>Not aggressive at all\"",\""2\"",\""3\"",\""4\"",\""5\"",\""6\"",\""7\"",\""8\"",\""9  <br/>Extremely aggressive\""],\""required\"":true}]"", ""task_unique_trial"": 100, ""task_name"": ""aggressive-gt"", ""trial_index"": 96, ""isRepeat"": 0}"
A2C7TMRC2QHTIW:3X87C8JFV8IS5XMGEFOAM8O6PHZSQT,97,1547861885407,"{""rt"": 1483, ""trial_type"": ""face-likert-amanda"", ""debug_mode"": ""live"", ""task_type"": ""face trials"", ""responses"": ""{\""Q0\"":5}"", ""task_payment"": 0.5, ""task_version"": 1, ""internal_node_id"": ""0.0-10.0-0.0-7.0"", ""time_elapsed"": 188283, ""imgName"": ""/static/images/celeba_gt_crop/aggressive/176723.jpg"", ""questions"": ""[{\""prompt\"":\""<p>How <b>aggressive</b> does this person look? Rate from 1-9</p>\"",\""labels\"":[\""1 <br/>Not aggressive at all\"",\""2\"",\""3\"",\""4\"",\""5\"",\""6\"",\""7\"",\""8\"",\""9  <br/>Extremely aggressive\""],\""required\"":true}]"", ""task_unique_trial"": 100, ""task_name"": ""aggressive-gt"", ""trial_index"": 97, ""isRepeat"": 0}"
A2C7TMRC2QHTIW:3X87C8JFV8IS5XMGEFOAM8O6PHZSQT,98,1547861887383,"{""rt"": 1972, ""trial_type"": ""face-likert-amanda"", ""debug_mode"": ""live"", ""task_type"": ""face trials"", ""responses"": ""{\""Q0\"":3}"", ""task_payment"": 0.5, ""task_version"": 1, ""internal_node_id"": ""0.0-10.0-0.0-8.0"", ""time_elapsed"": 190259, ""imgName"": ""/static/images/celeba_gt_crop/aggressive/028197.jpg"", ""questions"": ""[{\""prompt\"":\""<p>How <b>aggressive</b> does this person look? Rate from 1-9</p>\"",\""labels\"":[\""1 <br/>Not aggressive at all\"",\""2\"",\""3\"",\""4\"",\""5\"",\""6\"",\""7\"",\""8\"",\""9  <br/>Extremely aggressive\""],\""required\"":true}]"", ""task_unique_trial"": 100, ""task_name"": ""aggressive-gt"", ""trial_index"": 98, ""isRepeat"": 0}"
A2C7TMRC2QHTIW:3X87C8JFV8IS5XMGEFOAM8O6PHZSQT,99,1547861888895,"{""rt"": 1507, ""trial_type"": ""face-likert-amanda"", ""debug_mode"": ""live"", ""task_type"": ""face trials"", ""responses"": ""{\""Q0\"":0}"", ""task_payment"": 0.5, ""task_version"": 1, ""internal_node_id"": ""0.0-10.0-0.0-9.0"", ""time_elapsed"": 191771, ""imgName"": ""/static/images/celeba_gt_crop/aggressive/186059.jpg"", ""questions"": ""[{\""prompt\"":\""<p>How <b>aggressive</b> does this person look? Rate from 1-9</p>\"",\""labels\"":[\""1 <br/>Not aggressive at all\"",\""2\"",\""3\"",\""4\"",\""5\"",\""6\"",\""7\"",\""8\"",\""9  <br/>Extremely aggressive\""],\""required\"":true}]"", ""task_unique_trial"": 100, ""task_name"": ""aggressive-gt"", ""trial_index"": 99, ""isRepeat"": 0}"
A2C7TMRC2QHTIW:3X87C8JFV8IS5XMGEFOAM8O6PHZSQT,100,1547861890900,"{""rt"": null, ""trial_type"": ""html-keyboard-response"", ""task_unique_trial"": 100, ""stimulus"": ""<p>Good job!</p>"", ""task_version"": 1, ""internal_node_id"": ""0.0-10.0-1.0"", ""task_payment"": 0.5, ""time_elapsed"": 193776, ""debug_mode"": ""live"", ""key_press"": null, ""task_name"": ""aggressive-gt"", ""trial_index"": 100}"
A2C7TMRC2QHTIW:3X87C8JFV8IS5XMGEFOAM8O6PHZSQT,101,1547861892631,"{""rt"": 1729, ""trial_type"": ""face-likert-amanda"", ""debug_mode"": ""live"", ""task_type"": ""face trials"", ""responses"": ""{\""Q0\"":0}"", ""task_payment"": 0.5, ""task_version"": 1, ""internal_node_id"": ""0.0-11.0-0.0-0.0"", ""time_elapsed"": 195507, ""imgName"": ""/static/images/celeba_gt_crop/aggressive/035472.jpg"", ""questions"": ""[{\""prompt\"":\""<p>How <b>aggressive</b> does this person look? Rate from 1-9</p>\"",\""labels\"":[\""1 <br/>Not aggressive at all\"",\""2\"",\""3\"",\""4\"",\""5\"",\""6\"",\""7\"",\""8\"",\""9  <br/>Extremely aggressive\""],\""required\"":true}]"", ""task_unique_trial"": 100, ""task_name"": ""aggressive-gt"", ""trial_index"": 101, ""isRepeat"": 0}"
A2C7TMRC2QHTIW:3X87C8JFV8IS5XMGEFOAM8O6PHZSQT,102,1547861894343,"{""rt"": 1707, ""trial_type"": ""face-likert-amanda"", ""debug_mode"": ""live"", ""task_type"": ""face trials"", ""responses"": ""{\""Q0\"":4}"", ""task_payment"": 0.5, ""task_version"": 1, ""internal_node_id"": ""0.0-11.0-0.0-1.0"", ""time_elapsed"": 197219, ""imgName"": ""/static/images/celeba_gt_crop/aggressive/077518.jpg"", ""questions"": ""[{\""prompt\"":\""<p>How <b>aggressive</b> does this person look? Rate from 1-9</p>\"",\""labels\"":[\""1 <br/>Not aggressive at all\"",\""2\"",\""3\"",\""4\"",\""5\"",\""6\"",\""7\"",\""8\"",\""9  <br/>Extremely aggressive\""],\""required\"":true}]"", ""task_unique_trial"": 100, ""task_name"": ""aggressive-gt"", ""trial_index"": 102, ""isRepeat"": 0}"
A2C7TMRC2QHTIW:3X87C8JFV8IS5XMGEFOAM8O6PHZSQT,103,1547861896399,"{""rt"": 2051, ""trial_type"": ""face-likert-amanda"", ""debug_mode"": ""live"", ""task_type"": ""face trials"", ""responses"": ""{\""Q0\"":3}"", ""task_payment"": 0.5, ""task_version"": 1, ""internal_node_id"": ""0.0-11.0-0.0-2.0"", ""time_elapsed"": 199275, ""imgName"": ""/static/images/celeba_gt_crop/aggressive/050845.jpg"", ""questions"": ""[{\""prompt\"":\""<p>How <b>aggressive</b> does this person look? Rate from 1-9</p>\"",\""labels\"":[\""1 <br/>Not aggressive at all\"",\""2\"",\""3\"",\""4\"",\""5\"",\""6\"",\""7\"",\""8\"",\""9  <br/>Extremely aggressive\""],\""required\"":true}]"", ""task_unique_trial"": 100, ""task_name"": ""aggressive-gt"", ""trial_index"": 103, ""isRepeat"": 0}"
A2C7TMRC2QHTIW:3X87C8JFV8IS5XMGEFOAM8O6PHZSQT,104,1547861897831,"{""rt"": 1427, ""trial_type"": ""face-likert-amanda"", ""debug_mode"": ""live"", ""task_type"": ""face trials"", ""responses"": ""{\""Q0\"":0}"", ""task_payment"": 0.5, ""task_version"": 1, ""internal_node_id"": ""0.0-11.0-0.0-3.0"", ""time_elapsed"": 200707, ""imgName"": ""/static/images/celeba_gt_crop/aggressive/113016.jpg"", ""questions"": ""[{\""prompt\"":\""<p>How <b>aggressive</b> does this person look? Rate from 1-9</p>\"",\""labels\"":[\""1 <br/>Not aggressive at all\"",\""2\"",\""3\"",\""4\"",\""5\"",\""6\"",\""7\"",\""8\"",\""9  <br/>Extremely aggressive\""],\""required\"":true}]"", ""task_unique_trial"": 100, ""task_name"": ""aggressive-gt"", ""trial_index"": 104, ""isRepeat"": 0}"
A2C7TMRC2QHTIW:3X87C8JFV8IS5XMGEFOAM8O6PHZSQT,105,1547861899281,"{""rt"": 1443, ""trial_type"": ""face-likert-amanda"", ""debug_mode"": ""live"", ""task_type"": ""face trials"", ""responses"": ""{\""Q0\"":0}"", ""task_payment"": 0.5, ""task_version"": 1, ""internal_node_id"": ""0.0-11.0-0.0-4.0"", ""time_elapsed"": 202155, ""imgName"": ""/static/images/celeba_gt_crop/aggressive/091837.jpg"", ""questions"": ""[{\""prompt\"":\""<p>How <b>aggressive</b> does this person look? Rate from 1-9</p>\"",\""labels\"":[\""1 <br/>Not aggressive at all\"",\""2\"",\""3\"",\""4\"",\""5\"",\""6\"",\""7\"",\""8\"",\""9  <br/>Extremely aggressive\""],\""required\"":true}]"", ""task_unique_trial"": 100, ""task_name"": ""aggressive-gt"", ""trial_index"": 105, ""isRepeat"": 0}"
A2C7TMRC2QHTIW:3X87C8JFV8IS5XMGEFOAM8O6PHZSQT,106,1547861900918,"{""rt"": 1634, ""trial_type"": ""face-likert-amanda"", ""debug_mode"": ""live"", ""task_type"": ""face trials"", ""responses"": ""{\""Q0\"":6}"", ""task_payment"": 0.5, ""task_version"": 1, ""internal_node_id"": ""0.0-11.0-0.0-5.0"", ""time_elapsed"": 203794, ""imgName"": ""/static/images/celeba_gt_crop/aggressive/106149.jpg"", ""questions"": ""[{\""prompt\"":\""<p>How <b>aggressive</b> does this person look? Rate from 1-9</p>\"",\""labels\"":[\""1 <br/>Not aggressive at all\"",\""2\"",\""3\"",\""4\"",\""5\"",\""6\"",\""7\"",\""8\"",\""9  <br/>Extremely aggressive\""],\""required\"":true}]"", ""task_unique_trial"": 100, ""task_name"": ""aggressive-gt"", ""trial_index"": 106, ""isRepeat"": 0}"
A2C7TMRC2QHTIW:3X87C8JFV8IS5XMGEFOAM8O6PHZSQT,107,1547861902671,"{""rt"": 1748, ""trial_type"": ""face-likert-amanda"", ""debug_mode"": ""live"", ""task_type"": ""face trials"", ""responses"": ""{\""Q0\"":5}"", ""task_payment"": 0.5, ""task_version"": 1, ""internal_node_id"": ""0.0-11.0-0.0-6.0"", ""time_elapsed"": 205547, ""imgName"": ""/static/images/celeba_gt_crop/aggressive/023266.jpg"", ""questions"": ""[{\""prompt\"":\""<p>How <b>aggressive</b> does this person look? Rate from 1-9</p>\"",\""labels\"":[\""1 <br/>Not aggressive at all\"",\""2\"",\""3\"",\""4\"",\""5\"",\""6\"",\""7\"",\""8\"",\""9  <br/>Extremely aggressive\""],\""required\"":true}]"", ""task_unique_trial"": 100, ""task_name"": ""aggressive-gt"", ""trial_index"": 107, ""isRepeat"": 0}"
A2C7TMRC2QHTIW:3X87C8JFV8IS5XMGEFOAM8O6PHZSQT,108,1547861904359,"{""rt"": 1683, ""trial_type"": ""face-likert-amanda"", ""debug_mode"": ""live"", ""task_type"": ""face trials"", ""responses"": ""{\""Q0\"":7}"", ""task_payment"": 0.5, ""task_version"": 1, ""internal_node_id"": ""0.0-11.0-0.0-7.0"", ""time_elapsed"": 207235, ""imgName"": ""/static/images/celeba_gt_crop/aggressive/064273.jpg"", ""questions"": ""[{\""prompt\"":\""<p>How <b>aggressive</b> does this person look? Rate from 1-9</p>\"",\""labels\"":[\""1 <br/>Not aggressive at all\"",\""2\"",\""3\"",\""4\"",\""5\"",\""6\"",\""7\"",\""8\"",\""9  <br/>Extremely aggressive\""],\""required\"":true}]"", ""task_unique_trial"": 100, ""task_name"": ""aggressive-gt"", ""trial_index"": 108, ""isRepeat"": 0}"
A2C7TMRC2QHTIW:3X87C8JFV8IS5XMGEFOAM8O6PHZSQT,109,1547861906478,"{""rt"": 2115, ""trial_type"": ""face-likert-amanda"", ""debug_mode"": ""live"", ""task_type"": ""face trials"", ""responses"": ""{\""Q0\"":6}"", ""task_payment"": 0.5, ""task_version"": 1, ""internal_node_id"": ""0.0-11.0-0.0-8.0"", ""time_elapsed"": 209354, ""imgName"": ""/static/images/celeba_gt_crop/aggressive/153051.jpg"", ""questions"": ""[{\""prompt\"":\""<p>How <b>aggressive</b> does this person look? Rate from 1-9</p>\"",\""labels\"":[\""1 <br/>Not aggressive at all\"",\""2\"",\""3\"",\""4\"",\""5\"",\""6\"",\""7\"",\""8\"",\""9  <br/>Extremely aggressive\""],\""required\"":true}]"", ""task_unique_trial"": 100, ""task_name"": ""aggressive-gt"", ""trial_index"": 109, ""isRepeat"": 0}"
A2C7TMRC2QHTIW:3X87C8JFV8IS5XMGEFOAM8O6PHZSQT,110,1547861908487,"{""rt"": 2005, ""trial_type"": ""face-likert-amanda"", ""debug_mode"": ""live"", ""task_type"": ""face trials"", ""responses"": ""{\""Q0\"":7}"", ""task_payment"": 0.5, ""task_version"": 1, ""internal_node_id"": ""0.0-11.0-0.0-9.0"", ""time_elapsed"": 211363, ""imgName"": ""/static/images/celeba_gt_crop/aggressive/038546.jpg"", ""questions"": ""[{\""prompt\"":\""<p>How <b>aggressive</b> does this person look? Rate from 1-9</p>\"",\""labels\"":[\""1 <br/>Not aggressive at all\"",\""2\"",\""3\"",\""4\"",\""5\"",\""6\"",\""7\"",\""8\"",\""9  <br/>Extremely aggressive\""],\""required\"":true}]"", ""task_unique_trial"": 100, ""task_name"": ""aggressive-gt"", ""trial_index"": 110, ""isRepeat"": 0}"
A2C7TMRC2QHTIW:3X87C8JFV8IS5XMGEFOAM8O6PHZSQT,111,1547861909496,"{""rt"": null, ""trial_type"": ""html-keyboard-response"", ""task_unique_trial"": 100, ""stimulus"": ""<p>Good job!</p>"", ""task_version"": 1, ""internal_node_id"": ""0.0-11.0-1.0"", ""task_payment"": 0.5, ""time_elapsed"": 212372, ""debug_mode"": ""live"", ""key_press"": null, ""task_name"": ""aggressive-gt"", ""trial_index"": 111}"
A2C7TMRC2QHTIW:3X87C8JFV8IS5XMGEFOAM8O6PHZSQT,112,1547861915440,"{""rt"": 5939, ""trial_type"": ""survey-text-req"", ""task_type"": ""demographics_location"", ""responses"": ""{\""Q0\"":\""CA\"",\""Q1\"":\""riverside\"",\""Q2\"":\""92507\""}"", ""task_payment"": 0.5, ""task_version"": 1, ""internal_node_id"": ""0.0-12.0"", ""time_elapsed"": 218316, ""debug_mode"": ""live"", ""task_name"": ""aggressive-gt"", ""task_unique_trial"": 100, ""trial_index"": 112}"
A3KC385CZNYEG5:3A4TN5196MPZLNYHY3BGYPSNCRIHCT,0,1547862894941,"{""rt"": 1081229, ""trial_type"": ""instructions"", ""view_history"": ""[{\""page_index\"":0,\""viewing_time\"":5085},{\""page_index\"":1,\""viewing_time\"":1071743},{\""page_index\"":2,\""viewing_time\"":4400}]"", ""task_type"": ""instruction"", ""task_payment"": 0.5, ""task_version"": 1, ""internal_node_id"": ""0.0-0.0"", ""time_elapsed"": 1081298, ""debug_mode"": ""live"", ""task_name"": ""aggressive-gt"", ""task_unique_trial"": 100, ""trial_index"": 0}"
A3KC385CZNYEG5:3A4TN5196MPZLNYHY3BGYPSNCRIHCT,1,1547862908486,"{""rt"": 13530, ""trial_type"": ""survey-multi-choice"", ""task_type"": ""demographic-multichoice"", ""responses"": ""{\""Q0\"":\""36-45\"",\""Q1\"":\""Other/Prefer not to say\"",\""Q2\"":\""No\"",\""Q3\"":\""3\"",\""Q4\"":\""White\"",\""Q5\"":\""Bachelor&#8217;s degree (e.g. BA, BS) or above\"",\""Q6\"":\""Less than $20,000\""}"", ""task_payment"": 0.5, ""task_version"": 1, ""time_elapsed"": 1094844, ""sanity_check_1_continue"": true, ""random_num"": 3, ""debug_mode"": ""live"", ""questions"": ""[{\""prompt\"":\""What is your age?\"",\""options\"":[\""Under 18\"",\""18-25\"",\""26-35\"",\""36-45\"",\""46-55\"",\""56+\""],\""required\"":true},{\""prompt\"":\""What is your gender?\"",\""options\"":[\""Male\"",\""Female\"",\""Other/Prefer not to say\""],\""required\"":true},{\""prompt\"":\""Are you of Hispanic, Latino, or Spanish origin?\"",\""options\"":[\""Yes\"",\""No\""],\""required\"":true},{\""prompt\"":\""Please choose the option that match the number here: 3\"",\""options\"":[\""1\"",\""2\"",\""3\"",\""4\""],\""required\"":true},{\""prompt\"":\""How would you describe yourself?\"",\""options\"":[\""American Indian or Alaskan Native\"",\""Asian\"",\""Black or African-American\"",\""Native Hawaiian or Other Pacific Islander\"",\""White\""],\""required\"":true},{\""prompt\"":\""What is the highest degree or level of school you have completed? (If you&#8217;re currently enrolled in school, please indicate the highest degree you have received)\"",\""options\"":[\""Less than a high school diploma\"",\""High school degree or equivalent (e.g. GED)\"",\""Some college, no degree\"",\""Associate degree (e.g. AA, AS)\"",\""Bachelor&#8217;s degree (e.g. BA, BS) or above\""],\""required\"":true},{\""prompt\"":\""What is the total income of all members of your household?\"",\""options\"":[\""Less than $20,000\"",\""$20,000  - $49,999\"",\""$50,000 - $74,999\"",\""$75,000 and above\""],\""required\"":true}]"", ""internal_node_id"": ""0.0-1.0-0.0"", ""task_unique_trial"": 100, ""task_name"": ""aggressive-gt"", ""trial_index"": 1}"
A3KC385CZNYEG5:3A4TN5196MPZLNYHY3BGYPSNCRIHCT,2,1547862916029,"{""rt"": 7533, ""trial_type"": ""face-likert-amanda"", ""debug_mode"": ""live"", ""task_type"": ""face trials"", ""responses"": ""{\""Q0\"":1}"", ""task_payment"": 0.5, ""task_version"": 1, ""internal_node_id"": ""0.0-2.0-0.0-0.0"", ""time_elapsed"": 1102387, ""imgName"": ""/static/images/celeba_gt_crop/aggressive/127601.jpg"", ""questions"": ""[{\""prompt\"":\""<p>How <b>aggressive</b> does this person look? Rate from 1-9</p>\"",\""labels\"":[\""1 <br/>Not aggressive at all\"",\""2\"",\""3\"",\""4\"",\""5\"",\""6\"",\""7\"",\""8\"",\""9  <br/>Extremely aggressive\""],\""required\"":true}]"", ""task_unique_trial"": 100, ""task_name"": ""aggressive-gt"", ""trial_index"": 2, ""isRepeat"": 0}"
A3KC385CZNYEG5:3A4TN5196MPZLNYHY3BGYPSNCRIHCT,3,1547862920268,"{""rt"": 4231, ""trial_type"": ""face-likert-amanda"", ""debug_mode"": ""live"", ""task_type"": ""face trials"", ""responses"": ""{\""Q0\"":4}"", ""task_payment"": 0.5, ""task_version"": 1, ""internal_node_id"": ""0.0-2.0-0.0-1.0"", ""time_elapsed"": 1106626, ""imgName"": ""/static/images/celeba_gt_crop/aggressive/110369.jpg"", ""questions"": ""[{\""prompt\"":\""<p>How <b>aggressive</b> does this person look? Rate from 1-9</p>\"",\""labels\"":[\""1 <br/>Not aggressive at all\"",\""2\"",\""3\"",\""4\"",\""5\"",\""6\"",\""7\"",\""8\"",\""9  <br/>Extremely aggressive\""],\""required\"":true}]"", ""task_unique_trial"": 100, ""task_name"": ""aggressive-gt"", ""trial_index"": 3, ""isRepeat"": 0}"
A3KC385CZNYEG5:3A4TN5196MPZLNYHY3BGYPSNCRIHCT,4,1547862923668,"{""rt"": 3392, ""trial_type"": ""face-likert-amanda"", ""debug_mode"": ""live"", ""task_type"": ""face trials"", ""responses"": ""{\""Q0\"":5}"", ""task_payment"": 0.5, ""task_version"": 1, ""internal_node_id"": ""0.0-2.0-0.0-2.0"", ""time_elapsed"": 1110026, ""imgName"": ""/static/images/celeba_gt_crop/aggressive/124843.jpg"", ""questions"": ""[{\""prompt\"":\""<p>How <b>aggressive</b> does this person look? Rate from 1-9</p>\"",\""labels\"":[\""1 <br/>Not aggressive at all\"",\""2\"",\""3\"",\""4\"",\""5\"",\""6\"",\""7\"",\""8\"",\""9  <br/>Extremely aggressive\""],\""required\"":true}]"", ""task_unique_trial"": 100, ""task_name"": ""aggressive-gt"", ""trial_index"": 4, ""isRepeat"": 0}"
A3KC385CZNYEG5:3A4TN5196MPZLNYHY3BGYPSNCRIHCT,5,1547862929044,"{""rt"": 5367, ""trial_type"": ""face-likert-amanda"", ""debug_mode"": ""live"", ""task_type"": ""face trials"", ""responses"": ""{\""Q0\"":4}"", ""task_payment"": 0.5, ""task_version"": 1, ""internal_node_id"": ""0.0-2.0-0.0-3.0"", ""time_elapsed"": 1115402, ""imgName"": ""/static/images/celeba_gt_crop/aggressive/173118.jpg"", ""questions"": ""[{\""prompt\"":\""<p>How <b>aggressive</b> does this person look? Rate from 1-9</p>\"",\""labels\"":[\""1 <br/>Not aggressive at all\"",\""2\"",\""3\"",\""4\"",\""5\"",\""6\"",\""7\"",\""8\"",\""9  <br/>Extremely aggressive\""],\""required\"":true}]"", ""task_unique_trial"": 100, ""task_name"": ""aggressive-gt"", ""trial_index"": 5, ""isRepeat"": 0}"
A3KC385CZNYEG5:3A4TN5196MPZLNYHY3BGYPSNCRIHCT,6,1547862939284,"{""rt"": 10231, ""trial_type"": ""face-likert-amanda"", ""debug_mode"": ""live"", ""task_type"": ""face trials"", ""responses"": ""{\""Q0\"":4}"", ""task_payment"": 0.5, ""task_version"": 1, ""internal_node_id"": ""0.0-2.0-0.0-4.0"", ""time_elapsed"": 1125642, ""imgName"": ""/static/images/celeba_gt_crop/aggressive/015405.jpg"", ""questions"": ""[{\""prompt\"":\""<p>How <b>aggressive</b> does this person look? Rate from 1-9</p>\"",\""labels\"":[\""1 <br/>Not aggressive at all\"",\""2\"",\""3\"",\""4\"",\""5\"",\""6\"",\""7\"",\""8\"",\""9  <br/>Extremely aggressive\""],\""required\"":true}]"", ""task_unique_trial"": 100, ""task_name"": ""aggressive-gt"", ""trial_index"": 6, ""isRepeat"": 0}"
A3KC385CZNYEG5:3A4TN5196MPZLNYHY3BGYPSNCRIHCT,7,1547862951860,"{""rt"": 12567, ""trial_type"": ""face-likert-amanda"", ""debug_mode"": ""live"", ""task_type"": ""face trials"", ""responses"": ""{\""Q0\"":2}"", ""task_payment"": 0.5, ""task_version"": 1, ""internal_node_id"": ""0.0-2.0-0.0-5.0"", ""time_elapsed"": 1138218, ""imgName"": ""/static/images/celeba_gt_crop/aggressive/113016.jpg"", ""questions"": ""[{\""prompt\"":\""<p>How <b>aggressive</b> does this person look? Rate from 1-9</p>\"",\""labels\"":[\""1 <br/>Not aggressive at all\"",\""2\"",\""3\"",\""4\"",\""5\"",\""6\"",\""7\"",\""8\"",\""9  <br/>Extremely aggressive\""],\""required\"":true}]"", ""task_unique_trial"": 100, ""task_name"": ""aggressive-gt"", ""trial_index"": 7, ""isRepeat"": 0}"
A3KC385CZNYEG5:3A4TN5196MPZLNYHY3BGYPSNCRIHCT,8,1547862955589,"{""rt"": 3719, ""trial_type"": ""face-likert-amanda"", ""debug_mode"": ""live"", ""task_type"": ""face trials"", ""responses"": ""{\""Q0\"":7}"", ""task_payment"": 0.5, ""task_version"": 1, ""internal_node_id"": ""0.0-2.0-0.0-6.0"", ""time_elapsed"": 1141947, ""imgName"": ""/static/images/celeba_gt_crop/aggressive/056106.jpg"", ""questions"": ""[{\""prompt\"":\""<p>How <b>aggressive</b> does this person look? Rate from 1-9</p>\"",\""labels\"":[\""1 <br/>Not aggressive at all\"",\""2\"",\""3\"",\""4\"",\""5\"",\""6\"",\""7\"",\""8\"",\""9  <br/>Extremely aggressive\""],\""required\"":true}]"", ""task_unique_trial"": 100, ""task_name"": ""aggressive-gt"", ""trial_index"": 8, ""isRepeat"": 0}"
A3KC385CZNYEG5:3A4TN5196MPZLNYHY3BGYPSNCRIHCT,9,1547862959572,"{""rt"": 3973, ""trial_type"": ""face-likert-amanda"", ""debug_mode"": ""live"", ""task_type"": ""face trials"", ""responses"": ""{\""Q0\"":5}"", ""task_payment"": 0.5, ""task_version"": 1, ""internal_node_id"": ""0.0-2.0-0.0-7.0"", ""time_elapsed"": 1145930, ""imgName"": ""/static/images/celeba_gt_crop/aggressive/124843.jpg"", ""questions"": ""[{\""prompt\"":\""<p>How <b>aggressive</b> does this person look? Rate from 1-9</p>\"",\""labels\"":[\""1 <br/>Not aggressive at all\"",\""2\"",\""3\"",\""4\"",\""5\"",\""6\"",\""7\"",\""8\"",\""9  <br/>Extremely aggressive\""],\""required\"":true}]"", ""task_unique_trial"": 100, ""task_name"": ""aggressive-gt"", ""trial_index"": 9, ""isRepeat"": 0}"
A3KC385CZNYEG5:3A4TN5196MPZLNYHY3BGYPSNCRIHCT,10,1547862963709,"{""rt"": 4127, ""trial_type"": ""face-likert-amanda"", ""debug_mode"": ""live"", ""task_type"": ""face trials"", ""responses"": ""{\""Q0\"":2}"", ""task_payment"": 0.5, ""task_version"": 1, ""internal_node_id"": ""0.0-2.0-0.0-8.0"", ""time_elapsed"": 1150067, ""imgName"": ""/static/images/celeba_gt_crop/aggressive/083782.jpg"", ""questions"": ""[{\""prompt\"":\""<p>How <b>aggressive</b> does this person look? Rate from 1-9</p>\"",\""labels\"":[\""1 <br/>Not aggressive at all\"",\""2\"",\""3\"",\""4\"",\""5\"",\""6\"",\""7\"",\""8\"",\""9  <br/>Extremely aggressive\""],\""required\"":true}]"", ""task_unique_trial"": 100, ""task_name"": ""aggressive-gt"", ""trial_index"": 10, ""isRepeat"": 0}"
A3KC385CZNYEG5:3A4TN5196MPZLNYHY3BGYPSNCRIHCT,11,1547862967341,"{""rt"": 3623, ""trial_type"": ""face-likert-amanda"", ""debug_mode"": ""live"", ""task_type"": ""face trials"", ""responses"": ""{\""Q0\"":2}"", ""task_payment"": 0.5, ""task_version"": 1, ""internal_node_id"": ""0.0-2.0-0.0-9.0"", ""time_elapsed"": 1153698, ""imgName"": ""/static/images/celeba_gt_crop/aggressive/053041.jpg"", ""questions"": ""[{\""prompt\"":\""<p>How <b>aggressive</b> does this person look? Rate from 1-9</p>\"",\""labels\"":[\""1 <br/>Not aggressive at all\"",\""2\"",\""3\"",\""4\"",\""5\"",\""6\"",\""7\"",\""8\"",\""9  <br/>Extremely aggressive\""],\""required\"":true}]"", ""task_unique_trial"": 100, ""task_name"": ""aggressive-gt"", ""trial_index"": 11, ""isRepeat"": 0}"
A3KC385CZNYEG5:3A4TN5196MPZLNYHY3BGYPSNCRIHCT,12,1547862969352,"{""rt"": null, ""trial_type"": ""html-keyboard-response"", ""task_unique_trial"": 100, ""stimulus"": ""<p>Good job!</p>"", ""task_version"": 1, ""internal_node_id"": ""0.0-2.0-1.0"", ""task_payment"": 0.5, ""time_elapsed"": 1155709, ""debug_mode"": ""live"", ""key_press"": null, ""task_name"": ""aggressive-gt"", ""trial_index"": 12}"
A3KC385CZNYEG5:3A4TN5196MPZLNYHY3BGYPSNCRIHCT,13,1547862980668,"{""rt"": 11314, ""trial_type"": ""face-likert-amanda"", ""debug_mode"": ""live"", ""task_type"": ""face trials"", ""responses"": ""{\""Q0\"":3}"", ""task_payment"": 0.5, ""task_version"": 1, ""internal_node_id"": ""0.0-3.0-0.0-0.0"", ""time_elapsed"": 1167025, ""imgName"": ""/static/images/celeba_gt_crop/aggressive/081054.jpg"", ""questions"": ""[{\""prompt\"":\""<p>How <b>aggressive</b> does this person look? Rate from 1-9</p>\"",\""labels\"":[\""1 <br/>Not aggressive at all\"",\""2\"",\""3\"",\""4\"",\""5\"",\""6\"",\""7\"",\""8\"",\""9  <br/>Extremely aggressive\""],\""required\"":true}]"", ""task_unique_trial"": 100, ""task_name"": ""aggressive-gt"", ""trial_index"": 13, ""isRepeat"": 0}"
A3KC385CZNYEG5:3A4TN5196MPZLNYHY3BGYPSNCRIHCT,14,1547862984740,"{""rt"": 4062, ""trial_type"": ""face-likert-amanda"", ""debug_mode"": ""live"", ""task_type"": ""face trials"", ""responses"": ""{\""Q0\"":4}"", ""task_payment"": 0.5, ""task_version"": 1, ""internal_node_id"": ""0.0-3.0-0.0-1.0"", ""time_elapsed"": 1171098, ""imgName"": ""/static/images/celeba_gt_crop/aggressive/077518.jpg"", ""questions"": ""[{\""prompt\"":\""<p>How <b>aggressive</b> does this person look? Rate from 1-9</p>\"",\""labels\"":[\""1 <br/>Not aggressive at all\"",\""2\"",\""3\"",\""4\"",\""5\"",\""6\"",\""7\"",\""8\"",\""9  <br/>Extremely aggressive\""],\""required\"":true}]"", ""task_unique_trial"": 100, ""task_name"": ""aggressive-gt"", ""trial_index"": 14, ""isRepeat"": 0}"
A3KC385CZNYEG5:3A4TN5196MPZLNYHY3BGYPSNCRIHCT,15,1547862988259,"{""rt"": 3510, ""trial_type"": ""face-likert-amanda"", ""debug_mode"": ""live"", ""task_type"": ""face trials"", ""responses"": ""{\""Q0\"":5}"", ""task_payment"": 0.5, ""task_version"": 1, ""internal_node_id"": ""0.0-3.0-0.0-2.0"", ""time_elapsed"": 1174617, ""imgName"": ""/static/images/celeba_gt_crop/aggressive/100006.jpg"", ""questions"": ""[{\""prompt\"":\""<p>How <b>aggressive</b> does this person look? Rate from 1-9</p>\"",\""labels\"":[\""1 <br/>Not aggressive at all\"",\""2\"",\""3\"",\""4\"",\""5\"",\""6\"",\""7\"",\""8\"",\""9  <br/>Extremely aggressive\""],\""required\"":true}]"", ""task_unique_trial"": 100, ""task_name"": ""aggressive-gt"", ""trial_index"": 15, ""isRepeat"": 0}"
A3KC385CZNYEG5:3A4TN5196MPZLNYHY3BGYPSNCRIHCT,16,1547862990916,"{""rt"": 2647, ""trial_type"": ""face-likert-amanda"", ""debug_mode"": ""live"", ""task_type"": ""face trials"", ""responses"": ""{\""Q0\"":4}"", ""task_payment"": 0.5, ""task_version"": 1, ""internal_node_id"": ""0.0-3.0-0.0-3.0"", ""time_elapsed"": 1177274, ""imgName"": ""/static/images/celeba_gt_crop/aggressive/024060.jpg"", ""questions"": ""[{\""prompt\"":\""<p>How <b>aggressive</b> does this person look? Rate from 1-9</p>\"",\""labels\"":[\""1 <br/>Not aggressive at all\"",\""2\"",\""3\"",\""4\"",\""5\"",\""6\"",\""7\"",\""8\"",\""9  <br/>Extremely aggressive\""],\""required\"":true}]"", ""task_unique_trial"": 100, ""task_name"": ""aggressive-gt"", ""trial_index"": 16, ""isRepeat"": 0}"
A3KC385CZNYEG5:3A4TN5196MPZLNYHY3BGYPSNCRIHCT,17,1547862994092,"{""rt"": 3167, ""trial_type"": ""face-likert-amanda"", ""debug_mode"": ""live"", ""task_type"": ""face trials"", ""responses"": ""{\""Q0\"":5}"", ""task_payment"": 0.5, ""task_version"": 1, ""internal_node_id"": ""0.0-3.0-0.0-4.0"", ""time_elapsed"": 1180450, ""imgName"": ""/static/images/celeba_gt_crop/aggressive/142336.jpg"", ""questions"": ""[{\""prompt\"":\""<p>How <b>aggressive</b> does this person look? Rate from 1-9</p>\"",\""labels\"":[\""1 <br/>Not aggressive at all\"",\""2\"",\""3\"",\""4\"",\""5\"",\""6\"",\""7\"",\""8\"",\""9  <br/>Extremely aggressive\""],\""required\"":true}]"", ""task_unique_trial"": 100, ""task_name"": ""aggressive-gt"", ""trial_index"": 17, ""isRepeat"": 0}"
A3KC385CZNYEG5:3A4TN5196MPZLNYHY3BGYPSNCRIHCT,18,1547862997972,"{""rt"": 3872, ""trial_type"": ""face-likert-amanda"", ""debug_mode"": ""live"", ""task_type"": ""face trials"", ""responses"": ""{\""Q0\"":2}"", ""task_payment"": 0.5, ""task_version"": 1, ""internal_node_id"": ""0.0-3.0-0.0-5.0"", ""time_elapsed"": 1184330, ""imgName"": ""/static/images/celeba_gt_crop/aggressive/124569.jpg"", ""questions"": ""[{\""prompt\"":\""<p>How <b>aggressive</b> does this person look? Rate from 1-9</p>\"",\""labels\"":[\""1 <br/>Not aggressive at all\"",\""2\"",\""3\"",\""4\"",\""5\"",\""6\"",\""7\"",\""8\"",\""9  <br/>Extremely aggressive\""],\""required\"":true}]"", ""task_unique_trial"": 100, ""task_name"": ""aggressive-gt"", ""trial_index"": 18, ""isRepeat"": 0}"
A3KC385CZNYEG5:3A4TN5196MPZLNYHY3BGYPSNCRIHCT,19,1547863004156,"{""rt"": 6175, ""trial_type"": ""face-likert-amanda"", ""debug_mode"": ""live"", ""task_type"": ""face trials"", ""responses"": ""{\""Q0\"":3}"", ""task_payment"": 0.5, ""task_version"": 1, ""internal_node_id"": ""0.0-3.0-0.0-6.0"", ""time_elapsed"": 1190514, ""imgName"": ""/static/images/celeba_gt_crop/aggressive/117797.jpg"", ""questions"": ""[{\""prompt\"":\""<p>How <b>aggressive</b> does this person look? Rate from 1-9</p>\"",\""labels\"":[\""1 <br/>Not aggressive at all\"",\""2\"",\""3\"",\""4\"",\""5\"",\""6\"",\""7\"",\""8\"",\""9  <br/>Extremely aggressive\""],\""required\"":true}]"", ""task_unique_trial"": 100, ""task_name"": ""aggressive-gt"", ""trial_index"": 19, ""isRepeat"": 0}"
