debugZZI8Y8:debug245KCQ,0,1543383994639,"{""rt"": 169101, ""trial_type"": ""instructions"", ""view_history"": ""[{\""page_index\"":0,\""viewing_time\"":44610},{\""page_index\"":1,\""viewing_time\"":1391},{\""page_index\"":0,\""viewing_time\"":21128},{\""page_index\"":1,\""viewing_time\"":36671},{\""page_index\"":2,\""viewing_time\"":13703},{\""page_index\"":3,\""viewing_time\"":51597}]"", ""task_type"": ""instruction"", ""task_payment"": 1, ""task_version"": 1, ""internal_node_id"": ""0.0-0.0"", ""time_elapsed"": 169103, ""debug_mode"": ""debug"", ""task_name"": ""attractive"", ""task_unique_trial"": 5, ""trial_index"": 0}"
debugZZI8Y8:debug245KCQ,1,1543384008336,"{""rt"": 13689, ""trial_type"": ""survey-multi-choice"", ""task_type"": ""demographic-multichoice"", ""responses"": ""{\""Q0\"":\""Under 18\"",\""Q1\"":\""Male\"",\""Q2\"":\""Yes\"",\""Q3\"":\""3\"",\""Q4\"":\""American Indian or Alaskan Native\"",\""Q5\"":\""Less than a high school diploma\"",\""Q6\"":\""Less than $20,000\""}"", ""task_payment"": 1, ""task_version"": 1, ""time_elapsed"": 182799, ""sanity_check_1_continue"": true, ""random_num"": 3, ""debug_mode"": ""debug"", ""questions"": ""[{\""prompt\"":\""What is your age?\"",\""options\"":[\""Under 18\"",\""18-25\"",\""26-35\"",\""36-45\"",\""46-55\"",\""56+\""],\""required\"":true},{\""prompt\"":\""What is your gender?\"",\""options\"":[\""Male\"",\""Female\"",\""Other/Prefer not to say\""],\""required\"":true},{\""prompt\"":\""Are you of Hispanic, Latino, or Spanish origin?\"",\""options\"":[\""Yes\"",\""No\""],\""required\"":true},{\""prompt\"":\""Please choose the option that match the number here: 3\"",\""options\"":[\""1\"",\""2\"",\""3\"",\""4\""],\""required\"":true},{\""prompt\"":\""How would you describe yourself?\"",\""options\"":[\""American Indian or Alaskan Native\"",\""Asian\"",\""Black or African-American\"",\""Native Hawaiian or Other Pacific Islander\"",\""White\""],\""required\"":true},{\""prompt\"":\""What is the highest degree or level of school you have completed? (If you&#8217;re currently enrolled in school, please indicate the highest degree you have received)\"",\""options\"":[\""Less than a high school diploma\"",\""High school degree or equivalent (e.g. GED)\"",\""Some college, no degree\"",\""Associate degree (e.g. AA, AS)\"",\""Bachelor&#8217;s degree (e.g. BA, BS)\"",\""Professional or post-baccalauriate degree\""],\""required\"":true},{\""prompt\"":\""What is the total income of all members of your household?\"",\""options\"":[\""Less than $20,000\"",\""$20,000 - $34,999\"",\""$35,000 - $49,999\"",\""$50,000 - $74,999\"",\""$75,000 - $99,999\"",\""Over $100,000\""],\""required\"":true}]"", ""internal_node_id"": ""0.0-1.0-0.0"", ""task_unique_trial"": 5, ""task_name"": ""attractive"", ""trial_index"": 1}"
debugZZI8Y8:debug245KCQ,2,1543384015425,"{""rt"": 7086, ""trial_type"": ""survey-text-req"", ""task_type"": ""demographics_location"", ""responses"": ""{\""Q0\"":\""debug\"",\""Q1\"":\""debug\"",\""Q2\"":\""debug\""}"", ""task_payment"": 1, ""task_version"": 1, ""internal_node_id"": ""0.0-2.0"", ""time_elapsed"": 189889, ""debug_mode"": ""debug"", ""task_name"": ""attractive"", ""task_unique_trial"": 5, ""trial_index"": 2}"
debugZZI8Y8:debug245KCQ,3,1543384030048,"{""rt"": 14622, ""trial_type"": ""survey-text-req"", ""task_type"": ""question comprehension"", ""responses"": ""{\""Q0\"":\""How attractive does this person look to you?\""}"", ""task_payment"": 1, ""task_version"": 1, ""internal_node_id"": ""0.0-3.0-0.0"", ""comprehension_check_continue"": true, ""time_elapsed"": 204512, ""debug_mode"": ""debug"", ""task_name"": ""attractive"", ""task_unique_trial"": 5, ""trial_index"": 3}"
debugZZI8Y8:debug245KCQ,4,1543384033233,"{""rt"": 3182, ""trial_type"": ""face-likert-amanda"", ""debug_mode"": ""debug"", ""task_type"": ""empty face"", ""responses"": ""{\""Q0\"":4}"", ""task_payment"": 1, ""task_version"": 1, ""internal_node_id"": ""0.0-4.0"", ""time_elapsed"": 207697, ""imgName"": ""/static/images/faces/empty-image-1.jpg"", ""questions"": ""[{\""prompt\"":\""<p>How attractive does this person look to you? Rate from 1-9</p>\"",\""labels\"":[\""1 <br/>Not attractive at all\"",\""2\"",\""3\"",\""4\"",\""5\"",\""6\"",\""7\"",\""8\"",\""9  <br/>Extremely attractive\""],\""required\"":true}]"", ""task_unique_trial"": 5, ""task_name"": ""attractive"", ""trial_index"": 4, ""isRepeat"": 0}"
debugZZI8Y8:debug245KCQ,5,1543384035425,"{""rt"": 2192, ""trial_type"": ""instructions"", ""view_history"": ""[{\""page_index\"":0,\""viewing_time\"":2192}]"", ""task_unique_trial"": 5, ""task_payment"": 1, ""task_version"": 1, ""internal_node_id"": ""0.0-5.0"", ""time_elapsed"": 209889, ""debug_mode"": ""debug"", ""task_name"": ""attractive"", ""trial_index"": 5}"
debugZZI8Y8:debug245KCQ,6,1543384100991,"{""rt"": 65564, ""trial_type"": ""face-likert-amanda"", ""debug_mode"": ""debug"", ""task_type"": ""face trials"", ""responses"": ""{\""Q0\"":4}"", ""task_payment"": 1, ""task_version"": 1, ""internal_node_id"": ""0.0-6.0-0.0-0.0"", ""time_elapsed"": 275455, ""imgName"": ""/static/images/2kfaces/Google_1_Sherry Mcmichael_11_oval.jpg"", ""questions"": ""[{\""prompt\"":\""<p>How attractive does this person look to you? Rate from 1-9</p>\"",\""labels\"":[\""1 <br/>Not attractive at all\"",\""2\"",\""3\"",\""4\"",\""5\"",\""6\"",\""7\"",\""8\"",\""9  <br/>Extremely attractive\""],\""required\"":true}]"", ""task_unique_trial"": 5, ""task_name"": ""attractive"", ""trial_index"": 6, ""isRepeat"": 0}"
debugZZI8Y8:debug245KCQ,7,1543384101996,"{""rt"": null, ""trial_type"": ""html-keyboard-response"", ""task_unique_trial"": 5, ""stimulus"": ""<p>Good job!</p>"", ""task_version"": 1, ""internal_node_id"": ""0.0-6.0-1.0"", ""task_payment"": 1, ""time_elapsed"": 276460, ""debug_mode"": ""debug"", ""key_press"": null, ""task_name"": ""attractive"", ""trial_index"": 7}"
debugZZI8Y8:debug245KCQ,8,1543384104316,"{""rt"": 2319, ""trial_type"": ""face-likert-amanda"", ""debug_mode"": ""debug"", ""task_type"": ""face trials"", ""responses"": ""{\""Q0\"":4}"", ""task_payment"": 1, ""task_version"": 1, ""internal_node_id"": ""0.0-7.0-0.0-0.0"", ""time_elapsed"": 278780, ""imgName"": ""/static/images/2kfaces/Google_1_Norman Westfall_5_oval.jpg"", ""questions"": ""[{\""prompt\"":\""<p>How attractive does this person look to you? Rate from 1-9</p>\"",\""labels\"":[\""1 <br/>Not attractive at all\"",\""2\"",\""3\"",\""4\"",\""5\"",\""6\"",\""7\"",\""8\"",\""9  <br/>Extremely attractive\""],\""required\"":true}]"", ""task_unique_trial"": 5, ""task_name"": ""attractive"", ""trial_index"": 8, ""isRepeat"": 0}"
debugZZI8Y8:debug245KCQ,9,1543384105323,"{""rt"": null, ""trial_type"": ""html-keyboard-response"", ""task_unique_trial"": 5, ""stimulus"": ""<p>Good job!</p>"", ""task_version"": 1, ""internal_node_id"": ""0.0-7.0-1.0"", ""task_payment"": 1, ""time_elapsed"": 279787, ""debug_mode"": ""debug"", ""key_press"": null, ""task_name"": ""attractive"", ""trial_index"": 9}"
debugZZI8Y8:debug245KCQ,10,1543384107436,"{""rt"": 2113, ""trial_type"": ""face-likert-amanda"", ""debug_mode"": ""debug"", ""task_type"": ""face trials"", ""responses"": ""{\""Q0\"":5}"", ""task_payment"": 1, ""task_version"": 1, ""internal_node_id"": ""0.0-8.0-0.0-0.0"", ""time_elapsed"": 281900, ""imgName"": ""/static/images/2kfaces/Google_1_Gertrude Bayne_11_oval.jpg"", ""questions"": ""[{\""prompt\"":\""<p>How attractive does this person look to you? Rate from 1-9</p>\"",\""labels\"":[\""1 <br/>Not attractive at all\"",\""2\"",\""3\"",\""4\"",\""5\"",\""6\"",\""7\"",\""8\"",\""9  <br/>Extremely attractive\""],\""required\"":true}]"", ""task_unique_trial"": 5, ""task_name"": ""attractive"", ""trial_index"": 10, ""isRepeat"": 0}"
debugZZI8Y8:debug245KCQ,11,1543384108943,"{""rt"": null, ""trial_type"": ""html-keyboard-response"", ""task_unique_trial"": 5, ""stimulus"": ""<p>Good job!</p>"", ""task_version"": 1, ""internal_node_id"": ""0.0-8.0-1.0"", ""task_payment"": 1, ""time_elapsed"": 283407, ""debug_mode"": ""debug"", ""key_press"": null, ""task_name"": ""attractive"", ""trial_index"": 11}"
debugZZI8Y8:debug245KCQ,12,1543384110718,"{""rt"": 1775, ""trial_type"": ""face-likert-amanda"", ""debug_mode"": ""debug"", ""task_type"": ""face trials"", ""responses"": ""{\""Q0\"":4}"", ""task_payment"": 1, ""task_version"": 1, ""internal_node_id"": ""0.0-9.0-0.0-0.0"", ""time_elapsed"": 285182, ""imgName"": ""/static/images/2kfaces/Google_1_Paul Reno_1_oval.jpg"", ""questions"": ""[{\""prompt\"":\""<p>How attractive does this person look to you? Rate from 1-9</p>\"",\""labels\"":[\""1 <br/>Not attractive at all\"",\""2\"",\""3\"",\""4\"",\""5\"",\""6\"",\""7\"",\""8\"",\""9  <br/>Extremely attractive\""],\""required\"":true}]"", ""task_unique_trial"": 5, ""task_name"": ""attractive"", ""trial_index"": 12, ""isRepeat"": 0}"
debugZZI8Y8:debug245KCQ,13,1543384112719,"{""rt"": null, ""trial_type"": ""html-keyboard-response"", ""task_unique_trial"": 5, ""stimulus"": ""<p>Good job!</p>"", ""task_version"": 1, ""internal_node_id"": ""0.0-9.0-1.0"", ""task_payment"": 1, ""time_elapsed"": 287183, ""debug_mode"": ""debug"", ""key_press"": null, ""task_name"": ""attractive"", ""trial_index"": 13}"
debugZZI8Y8:debug245KCQ,14,1543384114364,"{""rt"": 1643, ""trial_type"": ""face-likert-amanda"", ""debug_mode"": ""debug"", ""task_type"": ""face trials"", ""responses"": ""{\""Q0\"":4}"", ""task_payment"": 1, ""task_version"": 1, ""internal_node_id"": ""0.0-10.0-0.0-0.0"", ""time_elapsed"": 288828, ""imgName"": ""/static/images/2kfaces/Google_1_Sara Guajardo_1_oval.jpg"", ""questions"": ""[{\""prompt\"":\""<p>How attractive does this person look to you? Rate from 1-9</p>\"",\""labels\"":[\""1 <br/>Not attractive at all\"",\""2\"",\""3\"",\""4\"",\""5\"",\""6\"",\""7\"",\""8\"",\""9  <br/>Extremely attractive\""],\""required\"":true}]"", ""task_unique_trial"": 5, ""task_name"": ""attractive"", ""trial_index"": 14, ""isRepeat"": 0}"
debugZZI8Y8:debug245KCQ,15,1543384115869,"{""rt"": null, ""trial_type"": ""html-keyboard-response"", ""task_unique_trial"": 5, ""stimulus"": ""<p>Good job!</p>"", ""task_version"": 1, ""internal_node_id"": ""0.0-10.0-1.0"", ""task_payment"": 1, ""time_elapsed"": 290333, ""debug_mode"": ""debug"", ""key_press"": null, ""task_name"": ""attractive"", ""trial_index"": 15}"
debugZZI8Y8:debug245KCQ,16,1543384120871,"{""rt"": null, ""trial_type"": ""html-keyboard-response"", ""task_unique_trial"": 5, ""stimulus"": ""<p>Enjoy a 5 seconds break :)</p>"", ""task_version"": 1, ""internal_node_id"": ""0.0-11.0"", ""task_payment"": 1, ""time_elapsed"": 295335, ""debug_mode"": ""debug"", ""key_press"": null, ""task_name"": ""attractive"", ""trial_index"": 16}"
debugZZI8Y8:debug245KCQ,17,1543384123726,"{""rt"": 2855, ""trial_type"": ""face-likert-amanda"", ""debug_mode"": ""debug"", ""task_type"": ""empty face"", ""responses"": ""{\""Q0\"":4}"", ""task_payment"": 1, ""task_version"": 1, ""internal_node_id"": ""0.0-12.0"", ""time_elapsed"": 298190, ""imgName"": ""/static/images/faces/empty-image-1.jpg"", ""questions"": ""[{\""prompt\"":\""<p>How attractive does this person look to you? Rate from 1-9</p>\"",\""labels\"":[\""1 <br/>Not attractive at all\"",\""2\"",\""3\"",\""4\"",\""5\"",\""6\"",\""7\"",\""8\"",\""9  <br/>Extremely attractive\""],\""required\"":true}]"", ""task_unique_trial"": 5, ""task_name"": ""attractive"", ""trial_index"": 17, ""isRepeat"": 1}"
debugZZI8Y8:debug245KCQ,18,1543384125818,"{""rt"": 2091, ""trial_type"": ""face-likert-amanda"", ""debug_mode"": ""debug"", ""task_type"": ""face trials"", ""responses"": ""{\""Q0\"":5}"", ""task_payment"": 1, ""task_version"": 1, ""internal_node_id"": ""0.0-13.0-0.0-0.0"", ""time_elapsed"": 300282, ""imgName"": ""/static/images/2kfaces/Google_1_Paul Reno_1_oval.jpg"", ""questions"": ""[{\""prompt\"":\""<p>How attractive does this person look to you? Rate from 1-9</p>\"",\""labels\"":[\""1 <br/>Not attractive at all\"",\""2\"",\""3\"",\""4\"",\""5\"",\""6\"",\""7\"",\""8\"",\""9  <br/>Extremely attractive\""],\""required\"":true}]"", ""task_unique_trial"": 5, ""task_name"": ""attractive"", ""trial_index"": 18, ""isRepeat"": 1}"
debugZZI8Y8:debug245KCQ,19,1543384127823,"{""rt"": null, ""trial_type"": ""html-keyboard-response"", ""task_unique_trial"": 5, ""stimulus"": ""<p>Good job!</p>"", ""task_version"": 1, ""internal_node_id"": ""0.0-13.0-1.0"", ""task_payment"": 1, ""time_elapsed"": 302287, ""debug_mode"": ""debug"", ""key_press"": null, ""task_name"": ""attractive"", ""trial_index"": 19}"
debugZZI8Y8:debug245KCQ,20,1543384129979,"{""rt"": 2154, ""trial_type"": ""face-likert-amanda"", ""debug_mode"": ""debug"", ""task_type"": ""face trials"", ""responses"": ""{\""Q0\"":4}"", ""task_payment"": 1, ""task_version"": 1, ""internal_node_id"": ""0.0-14.0-0.0-0.0"", ""time_elapsed"": 304443, ""imgName"": ""/static/images/2kfaces/Google_1_Norman Westfall_5_oval.jpg"", ""questions"": ""[{\""prompt\"":\""<p>How attractive does this person look to you? Rate from 1-9</p>\"",\""labels\"":[\""1 <br/>Not attractive at all\"",\""2\"",\""3\"",\""4\"",\""5\"",\""6\"",\""7\"",\""8\"",\""9  <br/>Extremely attractive\""],\""required\"":true}]"", ""task_unique_trial"": 5, ""task_name"": ""attractive"", ""trial_index"": 20, ""isRepeat"": 1}"
debugZZI8Y8:debug245KCQ,21,1543384131980,"{""rt"": null, ""trial_type"": ""html-keyboard-response"", ""task_unique_trial"": 5, ""stimulus"": ""<p>Good job!</p>"", ""task_version"": 1, ""internal_node_id"": ""0.0-14.0-1.0"", ""task_payment"": 1, ""time_elapsed"": 306444, ""debug_mode"": ""debug"", ""key_press"": null, ""task_name"": ""attractive"", ""trial_index"": 21}"
debugZZI8Y8:debug245KCQ,22,1543384133428,"{""rt"": 1446, ""trial_type"": ""face-likert-amanda"", ""debug_mode"": ""debug"", ""task_type"": ""face trials"", ""responses"": ""{\""Q0\"":4}"", ""task_payment"": 1, ""task_version"": 1, ""internal_node_id"": ""0.0-15.0-0.0-0.0"", ""time_elapsed"": 307892, ""imgName"": ""/static/images/2kfaces/Google_1_Sherry Mcmichael_11_oval.jpg"", ""questions"": ""[{\""prompt\"":\""<p>How attractive does this person look to you? Rate from 1-9</p>\"",\""labels\"":[\""1 <br/>Not attractive at all\"",\""2\"",\""3\"",\""4\"",\""5\"",\""6\"",\""7\"",\""8\"",\""9  <br/>Extremely attractive\""],\""required\"":true}]"", ""task_unique_trial"": 5, ""task_name"": ""attractive"", ""trial_index"": 22, ""isRepeat"": 1}"
debugZZI8Y8:debug245KCQ,23,1543384135433,"{""rt"": null, ""trial_type"": ""html-keyboard-response"", ""task_unique_trial"": 5, ""stimulus"": ""<p>Good job!</p>"", ""task_version"": 1, ""internal_node_id"": ""0.0-15.0-1.0"", ""task_payment"": 1, ""time_elapsed"": 309897, ""debug_mode"": ""debug"", ""key_press"": null, ""task_name"": ""attractive"", ""trial_index"": 23}"
debugZZI8Y8:debug245KCQ,24,1543384138220,"{""rt"": 2786, ""trial_type"": ""face-likert-amanda"", ""debug_mode"": ""debug"", ""task_type"": ""face trials"", ""responses"": ""{\""Q0\"":4}"", ""task_payment"": 1, ""task_version"": 1, ""internal_node_id"": ""0.0-16.0-0.0-0.0"", ""time_elapsed"": 312684, ""imgName"": ""/static/images/2kfaces/Google_1_Gertrude Bayne_11_oval.jpg"", ""questions"": ""[{\""prompt\"":\""<p>How attractive does this person look to you? Rate from 1-9</p>\"",\""labels\"":[\""1 <br/>Not attractive at all\"",\""2\"",\""3\"",\""4\"",\""5\"",\""6\"",\""7\"",\""8\"",\""9  <br/>Extremely attractive\""],\""required\"":true}]"", ""task_unique_trial"": 5, ""task_name"": ""attractive"", ""trial_index"": 24, ""isRepeat"": 1}"
debugZZI8Y8:debug245KCQ,25,1543384139224,"{""rt"": null, ""trial_type"": ""html-keyboard-response"", ""task_unique_trial"": 5, ""stimulus"": ""<p>Good job!</p>"", ""task_version"": 1, ""internal_node_id"": ""0.0-16.0-1.0"", ""task_payment"": 1, ""time_elapsed"": 313688, ""debug_mode"": ""debug"", ""key_press"": null, ""task_name"": ""attractive"", ""trial_index"": 25}"
debugZZI8Y8:debug245KCQ,26,1543384142614,"{""rt"": 3388, ""trial_type"": ""face-likert-amanda"", ""debug_mode"": ""debug"", ""task_type"": ""face trials"", ""responses"": ""{\""Q0\"":4}"", ""task_payment"": 1, ""task_version"": 1, ""internal_node_id"": ""0.0-17.0-0.0-0.0"", ""time_elapsed"": 317077, ""imgName"": ""/static/images/2kfaces/Google_1_Sara Guajardo_1_oval.jpg"", ""questions"": ""[{\""prompt\"":\""<p>How attractive does this person look to you? Rate from 1-9</p>\"",\""labels\"":[\""1 <br/>Not attractive at all\"",\""2\"",\""3\"",\""4\"",\""5\"",\""6\"",\""7\"",\""8\"",\""9  <br/>Extremely attractive\""],\""required\"":true}]"", ""task_unique_trial"": 5, ""task_name"": ""attractive"", ""trial_index"": 26, ""isRepeat"": 1}"
debugZZI8Y8:debug245KCQ,27,1543384143618,"{""rt"": null, ""trial_type"": ""html-keyboard-response"", ""task_unique_trial"": 5, ""stimulus"": ""<p>Good job!</p>"", ""task_version"": 1, ""internal_node_id"": ""0.0-17.0-1.0"", ""task_payment"": 1, ""time_elapsed"": 318082, ""debug_mode"": ""debug"", ""key_press"": null, ""task_name"": ""attractive"", ""trial_index"": 27}"
debugZZI8Y8:debug245KCQ,28,1543384211319,"{""rt"": 67697, ""trial_type"": ""survey-text-req"", ""task_type"": ""interview decision making feedback"", ""responses"": ""{\""Q0\"":\""aa\"",\""Q1\"":\""a\"",\""Q2\"":\""a\"",\""Q3\"":\""a\"",\""Q4\"":\""a\""}"", ""task_payment"": 1, ""task_version"": 1, ""internal_node_id"": ""0.0-18.0"", ""time_elapsed"": 385783, ""debug_mode"": ""debug"", ""task_name"": ""attractive"", ""task_unique_trial"": 5, ""trial_index"": 28}"
debugZZI8Y8:debug245KCQ,29,1543384218904,"{""rt"": 7584, ""trial_type"": ""survey-text-req"", ""task_type"": ""feedback for HIT"", ""responses"": ""{\""Q0\"":\""a\""}"", ""task_payment"": 1, ""task_version"": 1, ""internal_node_id"": ""0.0-19.0"", ""time_elapsed"": 393368, ""debug_mode"": ""debug"", ""task_name"": ""attractive"", ""task_unique_trial"": 5, ""trial_index"": 29}"
