A2JBCLJVJ2VXVZ:3C5W7UE9CHX9GZANGWNG47LTUR4XMB,0,1547803012714,"{""rt"": 23748, ""trial_type"": ""instructions"", ""view_history"": ""[{\""page_index\"":0,\""viewing_time\"":7530},{\""page_index\"":1,\""viewing_time\"":8326},{\""page_index\"":2,\""viewing_time\"":7891}]"", ""task_type"": ""instruction"", ""task_payment"": 0.5, ""task_version"": 1, ""internal_node_id"": ""0.0-0.0"", ""time_elapsed"": 23757, ""debug_mode"": ""live"", ""task_name"": ""attractive-gt"", ""task_unique_trial"": 100, ""trial_index"": 0}"
A2JBCLJVJ2VXVZ:3C5W7UE9CHX9GZANGWNG47LTUR4XMB,1,1547803018753,"{""rt"": 5913, ""trial_type"": ""face-likert-amanda"", ""debug_mode"": ""live"", ""task_type"": ""face trials"", ""responses"": ""{\""Q0\"":7}"", ""task_payment"": 0.5, ""task_version"": 1, ""internal_node_id"": ""0.0-1.0-0.0-0.0"", ""time_elapsed"": 29797, ""imgName"": ""/static/images/celeba_gt_crop/attractive/054808.jpg"", ""questions"": ""[{\""prompt\"":\""<p>How attractive does this person look? Rate from 1-9</p>\"",\""labels\"":[\""1 <br/>Not attractive at all\"",\""2\"",\""3\"",\""4\"",\""5\"",\""6\"",\""7\"",\""8\"",\""9  <br/>Extremely attractive\""],\""required\"":true}]"", ""task_unique_trial"": 100, ""task_name"": ""attractive-gt"", ""trial_index"": 1, ""isRepeat"": 0}"
A2JBCLJVJ2VXVZ:3C5W7UE9CHX9GZANGWNG47LTUR4XMB,2,1547803031250,"{""rt"": 12492, ""trial_type"": ""face-likert-amanda"", ""debug_mode"": ""live"", ""task_type"": ""face trials"", ""responses"": ""{\""Q0\"":3}"", ""task_payment"": 0.5, ""task_version"": 1, ""internal_node_id"": ""0.0-1.0-0.0-1.0"", ""time_elapsed"": 42294, ""imgName"": ""/static/images/celeba_gt_crop/attractive/100138.jpg"", ""questions"": ""[{\""prompt\"":\""<p>How attractive does this person look? Rate from 1-9</p>\"",\""labels\"":[\""1 <br/>Not attractive at all\"",\""2\"",\""3\"",\""4\"",\""5\"",\""6\"",\""7\"",\""8\"",\""9  <br/>Extremely attractive\""],\""required\"":true}]"", ""task_unique_trial"": 100, ""task_name"": ""attractive-gt"", ""trial_index"": 2, ""isRepeat"": 0}"
A2JBCLJVJ2VXVZ:3C5W7UE9CHX9GZANGWNG47LTUR4XMB,3,1547803036472,"{""rt"": 5218, ""trial_type"": ""face-likert-amanda"", ""debug_mode"": ""live"", ""task_type"": ""face trials"", ""responses"": ""{\""Q0\"":1}"", ""task_payment"": 0.5, ""task_version"": 1, ""internal_node_id"": ""0.0-1.0-0.0-2.0"", ""time_elapsed"": 47516, ""imgName"": ""/static/images/celeba_gt_crop/attractive/144010.jpg"", ""questions"": ""[{\""prompt\"":\""<p>How attractive does this person look? Rate from 1-9</p>\"",\""labels\"":[\""1 <br/>Not attractive at all\"",\""2\"",\""3\"",\""4\"",\""5\"",\""6\"",\""7\"",\""8\"",\""9  <br/>Extremely attractive\""],\""required\"":true}]"", ""task_unique_trial"": 100, ""task_name"": ""attractive-gt"", ""trial_index"": 3, ""isRepeat"": 0}"
A2JBCLJVJ2VXVZ:3C5W7UE9CHX9GZANGWNG47LTUR4XMB,4,1547803042015,"{""rt"": 5540, ""trial_type"": ""face-likert-amanda"", ""debug_mode"": ""live"", ""task_type"": ""face trials"", ""responses"": ""{\""Q0\"":8}"", ""task_payment"": 0.5, ""task_version"": 1, ""internal_node_id"": ""0.0-1.0-0.0-3.0"", ""time_elapsed"": 53058, ""imgName"": ""/static/images/celeba_gt_crop/attractive/059217.jpg"", ""questions"": ""[{\""prompt\"":\""<p>How attractive does this person look? Rate from 1-9</p>\"",\""labels\"":[\""1 <br/>Not attractive at all\"",\""2\"",\""3\"",\""4\"",\""5\"",\""6\"",\""7\"",\""8\"",\""9  <br/>Extremely attractive\""],\""required\"":true}]"", ""task_unique_trial"": 100, ""task_name"": ""attractive-gt"", ""trial_index"": 4, ""isRepeat"": 0}"
A2JBCLJVJ2VXVZ:3C5W7UE9CHX9GZANGWNG47LTUR4XMB,5,1547803045158,"{""rt"": 3141, ""trial_type"": ""face-likert-amanda"", ""debug_mode"": ""live"", ""task_type"": ""face trials"", ""responses"": ""{\""Q0\"":2}"", ""task_payment"": 0.5, ""task_version"": 1, ""internal_node_id"": ""0.0-1.0-0.0-4.0"", ""time_elapsed"": 56202, ""imgName"": ""/static/images/celeba_gt_crop/attractive/128631.jpg"", ""questions"": ""[{\""prompt\"":\""<p>How attractive does this person look? Rate from 1-9</p>\"",\""labels\"":[\""1 <br/>Not attractive at all\"",\""2\"",\""3\"",\""4\"",\""5\"",\""6\"",\""7\"",\""8\"",\""9  <br/>Extremely attractive\""],\""required\"":true}]"", ""task_unique_trial"": 100, ""task_name"": ""attractive-gt"", ""trial_index"": 5, ""isRepeat"": 0}"
A2JBCLJVJ2VXVZ:3C5W7UE9CHX9GZANGWNG47LTUR4XMB,6,1547803054485,"{""rt"": 9324, ""trial_type"": ""face-likert-amanda"", ""debug_mode"": ""live"", ""task_type"": ""face trials"", ""responses"": ""{\""Q0\"":3}"", ""task_payment"": 0.5, ""task_version"": 1, ""internal_node_id"": ""0.0-1.0-0.0-5.0"", ""time_elapsed"": 65529, ""imgName"": ""/static/images/celeba_gt_crop/attractive/004868.jpg"", ""questions"": ""[{\""prompt\"":\""<p>How attractive does this person look? Rate from 1-9</p>\"",\""labels\"":[\""1 <br/>Not attractive at all\"",\""2\"",\""3\"",\""4\"",\""5\"",\""6\"",\""7\"",\""8\"",\""9  <br/>Extremely attractive\""],\""required\"":true}]"", ""task_unique_trial"": 100, ""task_name"": ""attractive-gt"", ""trial_index"": 6, ""isRepeat"": 0}"
A2JBCLJVJ2VXVZ:3C5W7UE9CHX9GZANGWNG47LTUR4XMB,7,1547803057839,"{""rt"": 3350, ""trial_type"": ""face-likert-amanda"", ""debug_mode"": ""live"", ""task_type"": ""face trials"", ""responses"": ""{\""Q0\"":3}"", ""task_payment"": 0.5, ""task_version"": 1, ""internal_node_id"": ""0.0-1.0-0.0-6.0"", ""time_elapsed"": 68883, ""imgName"": ""/static/images/celeba_gt_crop/attractive/012925.jpg"", ""questions"": ""[{\""prompt\"":\""<p>How attractive does this person look? Rate from 1-9</p>\"",\""labels\"":[\""1 <br/>Not attractive at all\"",\""2\"",\""3\"",\""4\"",\""5\"",\""6\"",\""7\"",\""8\"",\""9  <br/>Extremely attractive\""],\""required\"":true}]"", ""task_unique_trial"": 100, ""task_name"": ""attractive-gt"", ""trial_index"": 7, ""isRepeat"": 0}"
A2JBCLJVJ2VXVZ:3C5W7UE9CHX9GZANGWNG47LTUR4XMB,8,1547803062461,"{""rt"": 4620, ""trial_type"": ""face-likert-amanda"", ""debug_mode"": ""live"", ""task_type"": ""face trials"", ""responses"": ""{\""Q0\"":7}"", ""task_payment"": 0.5, ""task_version"": 1, ""internal_node_id"": ""0.0-1.0-0.0-7.0"", ""time_elapsed"": 73505, ""imgName"": ""/static/images/celeba_gt_crop/attractive/073829.jpg"", ""questions"": ""[{\""prompt\"":\""<p>How attractive does this person look? Rate from 1-9</p>\"",\""labels\"":[\""1 <br/>Not attractive at all\"",\""2\"",\""3\"",\""4\"",\""5\"",\""6\"",\""7\"",\""8\"",\""9  <br/>Extremely attractive\""],\""required\"":true}]"", ""task_unique_trial"": 100, ""task_name"": ""attractive-gt"", ""trial_index"": 8, ""isRepeat"": 0}"
A2JBCLJVJ2VXVZ:3C5W7UE9CHX9GZANGWNG47LTUR4XMB,9,1547803065597,"{""rt"": 3134, ""trial_type"": ""face-likert-amanda"", ""debug_mode"": ""live"", ""task_type"": ""face trials"", ""responses"": ""{\""Q0\"":4}"", ""task_payment"": 0.5, ""task_version"": 1, ""internal_node_id"": ""0.0-1.0-0.0-8.0"", ""time_elapsed"": 76641, ""imgName"": ""/static/images/celeba_gt_crop/attractive/120726.jpg"", ""questions"": ""[{\""prompt\"":\""<p>How attractive does this person look? Rate from 1-9</p>\"",\""labels\"":[\""1 <br/>Not attractive at all\"",\""2\"",\""3\"",\""4\"",\""5\"",\""6\"",\""7\"",\""8\"",\""9  <br/>Extremely attractive\""],\""required\"":true}]"", ""task_unique_trial"": 100, ""task_name"": ""attractive-gt"", ""trial_index"": 9, ""isRepeat"": 0}"
A2JBCLJVJ2VXVZ:3C5W7UE9CHX9GZANGWNG47LTUR4XMB,10,1547803073884,"{""rt"": 8285, ""trial_type"": ""face-likert-amanda"", ""debug_mode"": ""live"", ""task_type"": ""face trials"", ""responses"": ""{\""Q0\"":7}"", ""task_payment"": 0.5, ""task_version"": 1, ""internal_node_id"": ""0.0-1.0-0.0-9.0"", ""time_elapsed"": 84928, ""imgName"": ""/static/images/celeba_gt_crop/attractive/200021.jpg"", ""questions"": ""[{\""prompt\"":\""<p>How attractive does this person look? Rate from 1-9</p>\"",\""labels\"":[\""1 <br/>Not attractive at all\"",\""2\"",\""3\"",\""4\"",\""5\"",\""6\"",\""7\"",\""8\"",\""9  <br/>Extremely attractive\""],\""required\"":true}]"", ""task_unique_trial"": 100, ""task_name"": ""attractive-gt"", ""trial_index"": 10, ""isRepeat"": 0}"
A2JBCLJVJ2VXVZ:3C5W7UE9CHX9GZANGWNG47LTUR4XMB,11,1547803075388,"{""rt"": null, ""trial_type"": ""html-keyboard-response"", ""task_unique_trial"": 100, ""stimulus"": ""<p>Good job!</p>"", ""task_version"": 1, ""internal_node_id"": ""0.0-1.0-1.0"", ""task_payment"": 0.5, ""time_elapsed"": 86432, ""debug_mode"": ""live"", ""key_press"": null, ""task_name"": ""attractive-gt"", ""trial_index"": 11}"
A2JBCLJVJ2VXVZ:3C5W7UE9CHX9GZANGWNG47LTUR4XMB,12,1547803084223,"{""rt"": 8832, ""trial_type"": ""face-likert-amanda"", ""debug_mode"": ""live"", ""task_type"": ""face trials"", ""responses"": ""{\""Q0\"":3}"", ""task_payment"": 0.5, ""task_version"": 1, ""internal_node_id"": ""0.0-2.0-0.0-0.0"", ""time_elapsed"": 95267, ""imgName"": ""/static/images/celeba_gt_crop/attractive/121737.jpg"", ""questions"": ""[{\""prompt\"":\""<p>How attractive does this person look? Rate from 1-9</p>\"",\""labels\"":[\""1 <br/>Not attractive at all\"",\""2\"",\""3\"",\""4\"",\""5\"",\""6\"",\""7\"",\""8\"",\""9  <br/>Extremely attractive\""],\""required\"":true}]"", ""task_unique_trial"": 100, ""task_name"": ""attractive-gt"", ""trial_index"": 12, ""isRepeat"": 0}"
A2JBCLJVJ2VXVZ:3C5W7UE9CHX9GZANGWNG47LTUR4XMB,13,1547803087470,"{""rt"": 3243, ""trial_type"": ""face-likert-amanda"", ""debug_mode"": ""live"", ""task_type"": ""face trials"", ""responses"": ""{\""Q0\"":7}"", ""task_payment"": 0.5, ""task_version"": 1, ""internal_node_id"": ""0.0-2.0-0.0-1.0"", ""time_elapsed"": 98514, ""imgName"": ""/static/images/celeba_gt_crop/attractive/073829.jpg"", ""questions"": ""[{\""prompt\"":\""<p>How attractive does this person look? Rate from 1-9</p>\"",\""labels\"":[\""1 <br/>Not attractive at all\"",\""2\"",\""3\"",\""4\"",\""5\"",\""6\"",\""7\"",\""8\"",\""9  <br/>Extremely attractive\""],\""required\"":true}]"", ""task_unique_trial"": 100, ""task_name"": ""attractive-gt"", ""trial_index"": 13, ""isRepeat"": 0}"
A2JBCLJVJ2VXVZ:3C5W7UE9CHX9GZANGWNG47LTUR4XMB,14,1547803107541,"{""rt"": 20069, ""trial_type"": ""face-likert-amanda"", ""debug_mode"": ""live"", ""task_type"": ""face trials"", ""responses"": ""{\""Q0\"":7}"", ""task_payment"": 0.5, ""task_version"": 1, ""internal_node_id"": ""0.0-2.0-0.0-2.0"", ""time_elapsed"": 118585, ""imgName"": ""/static/images/celeba_gt_crop/attractive/000192.jpg"", ""questions"": ""[{\""prompt\"":\""<p>How attractive does this person look? Rate from 1-9</p>\"",\""labels\"":[\""1 <br/>Not attractive at all\"",\""2\"",\""3\"",\""4\"",\""5\"",\""6\"",\""7\"",\""8\"",\""9  <br/>Extremely attractive\""],\""required\"":true}]"", ""task_unique_trial"": 100, ""task_name"": ""attractive-gt"", ""trial_index"": 14, ""isRepeat"": 0}"
A2JBCLJVJ2VXVZ:3C5W7UE9CHX9GZANGWNG47LTUR4XMB,15,1547803112789,"{""rt"": 5241, ""trial_type"": ""face-likert-amanda"", ""debug_mode"": ""live"", ""task_type"": ""face trials"", ""responses"": ""{\""Q0\"":1}"", ""task_payment"": 0.5, ""task_version"": 1, ""internal_node_id"": ""0.0-2.0-0.0-3.0"", ""time_elapsed"": 123833, ""imgName"": ""/static/images/celeba_gt_crop/attractive/063392.jpg"", ""questions"": ""[{\""prompt\"":\""<p>How attractive does this person look? Rate from 1-9</p>\"",\""labels\"":[\""1 <br/>Not attractive at all\"",\""2\"",\""3\"",\""4\"",\""5\"",\""6\"",\""7\"",\""8\"",\""9  <br/>Extremely attractive\""],\""required\"":true}]"", ""task_unique_trial"": 100, ""task_name"": ""attractive-gt"", ""trial_index"": 15, ""isRepeat"": 0}"
A2JBCLJVJ2VXVZ:3C5W7UE9CHX9GZANGWNG47LTUR4XMB,16,1547803116340,"{""rt"": 3550, ""trial_type"": ""face-likert-amanda"", ""debug_mode"": ""live"", ""task_type"": ""face trials"", ""responses"": ""{\""Q0\"":6}"", ""task_payment"": 0.5, ""task_version"": 1, ""internal_node_id"": ""0.0-2.0-0.0-4.0"", ""time_elapsed"": 127384, ""imgName"": ""/static/images/celeba_gt_crop/attractive/060174.jpg"", ""questions"": ""[{\""prompt\"":\""<p>How attractive does this person look? Rate from 1-9</p>\"",\""labels\"":[\""1 <br/>Not attractive at all\"",\""2\"",\""3\"",\""4\"",\""5\"",\""6\"",\""7\"",\""8\"",\""9  <br/>Extremely attractive\""],\""required\"":true}]"", ""task_unique_trial"": 100, ""task_name"": ""attractive-gt"", ""trial_index"": 16, ""isRepeat"": 0}"
A2JBCLJVJ2VXVZ:3C5W7UE9CHX9GZANGWNG47LTUR4XMB,17,1547803125140,"{""rt"": 8797, ""trial_type"": ""face-likert-amanda"", ""debug_mode"": ""live"", ""task_type"": ""face trials"", ""responses"": ""{\""Q0\"":7}"", ""task_payment"": 0.5, ""task_version"": 1, ""internal_node_id"": ""0.0-2.0-0.0-5.0"", ""time_elapsed"": 136184, ""imgName"": ""/static/images/celeba_gt_crop/attractive/082102.jpg"", ""questions"": ""[{\""prompt\"":\""<p>How attractive does this person look? Rate from 1-9</p>\"",\""labels\"":[\""1 <br/>Not attractive at all\"",\""2\"",\""3\"",\""4\"",\""5\"",\""6\"",\""7\"",\""8\"",\""9  <br/>Extremely attractive\""],\""required\"":true}]"", ""task_unique_trial"": 100, ""task_name"": ""attractive-gt"", ""trial_index"": 17, ""isRepeat"": 0}"
A2JBCLJVJ2VXVZ:3C5W7UE9CHX9GZANGWNG47LTUR4XMB,18,1547803128231,"{""rt"": 3085, ""trial_type"": ""face-likert-amanda"", ""debug_mode"": ""live"", ""task_type"": ""face trials"", ""responses"": ""{\""Q0\"":4}"", ""task_payment"": 0.5, ""task_version"": 1, ""internal_node_id"": ""0.0-2.0-0.0-6.0"", ""time_elapsed"": 139275, ""imgName"": ""/static/images/celeba_gt_crop/attractive/043287.jpg"", ""questions"": ""[{\""prompt\"":\""<p>How attractive does this person look? Rate from 1-9</p>\"",\""labels\"":[\""1 <br/>Not attractive at all\"",\""2\"",\""3\"",\""4\"",\""5\"",\""6\"",\""7\"",\""8\"",\""9  <br/>Extremely attractive\""],\""required\"":true}]"", ""task_unique_trial"": 100, ""task_name"": ""attractive-gt"", ""trial_index"": 18, ""isRepeat"": 0}"
A2JBCLJVJ2VXVZ:3C5W7UE9CHX9GZANGWNG47LTUR4XMB,19,1547803132550,"{""rt"": 4316, ""trial_type"": ""face-likert-amanda"", ""debug_mode"": ""live"", ""task_type"": ""face trials"", ""responses"": ""{\""Q0\"":8}"", ""task_payment"": 0.5, ""task_version"": 1, ""internal_node_id"": ""0.0-2.0-0.0-7.0"", ""time_elapsed"": 143594, ""imgName"": ""/static/images/celeba_gt_crop/attractive/144346.jpg"", ""questions"": ""[{\""prompt\"":\""<p>How attractive does this person look? Rate from 1-9</p>\"",\""labels\"":[\""1 <br/>Not attractive at all\"",\""2\"",\""3\"",\""4\"",\""5\"",\""6\"",\""7\"",\""8\"",\""9  <br/>Extremely attractive\""],\""required\"":true}]"", ""task_unique_trial"": 100, ""task_name"": ""attractive-gt"", ""trial_index"": 19, ""isRepeat"": 0}"
A2JBCLJVJ2VXVZ:3C5W7UE9CHX9GZANGWNG47LTUR4XMB,20,1547803136516,"{""rt"": 3962, ""trial_type"": ""face-likert-amanda"", ""debug_mode"": ""live"", ""task_type"": ""face trials"", ""responses"": ""{\""Q0\"":3}"", ""task_payment"": 0.5, ""task_version"": 1, ""internal_node_id"": ""0.0-2.0-0.0-8.0"", ""time_elapsed"": 147560, ""imgName"": ""/static/images/celeba_gt_crop/attractive/039990.jpg"", ""questions"": ""[{\""prompt\"":\""<p>How attractive does this person look? Rate from 1-9</p>\"",\""labels\"":[\""1 <br/>Not attractive at all\"",\""2\"",\""3\"",\""4\"",\""5\"",\""6\"",\""7\"",\""8\"",\""9  <br/>Extremely attractive\""],\""required\"":true}]"", ""task_unique_trial"": 100, ""task_name"": ""attractive-gt"", ""trial_index"": 20, ""isRepeat"": 0}"
A2JBCLJVJ2VXVZ:3C5W7UE9CHX9GZANGWNG47LTUR4XMB,21,1547803140286,"{""rt"": 3768, ""trial_type"": ""face-likert-amanda"", ""debug_mode"": ""live"", ""task_type"": ""face trials"", ""responses"": ""{\""Q0\"":5}"", ""task_payment"": 0.5, ""task_version"": 1, ""internal_node_id"": ""0.0-2.0-0.0-9.0"", ""time_elapsed"": 151330, ""imgName"": ""/static/images/celeba_gt_crop/attractive/119535.jpg"", ""questions"": ""[{\""prompt\"":\""<p>How attractive does this person look? Rate from 1-9</p>\"",\""labels\"":[\""1 <br/>Not attractive at all\"",\""2\"",\""3\"",\""4\"",\""5\"",\""6\"",\""7\"",\""8\"",\""9  <br/>Extremely attractive\""],\""required\"":true}]"", ""task_unique_trial"": 100, ""task_name"": ""attractive-gt"", ""trial_index"": 21, ""isRepeat"": 0}"
A2JBCLJVJ2VXVZ:3C5W7UE9CHX9GZANGWNG47LTUR4XMB,22,1547803141288,"{""rt"": null, ""trial_type"": ""html-keyboard-response"", ""task_unique_trial"": 100, ""stimulus"": ""<p>Good job!</p>"", ""task_version"": 1, ""internal_node_id"": ""0.0-2.0-1.0"", ""task_payment"": 0.5, ""time_elapsed"": 152332, ""debug_mode"": ""live"", ""key_press"": null, ""task_name"": ""attractive-gt"", ""trial_index"": 22}"
A2JBCLJVJ2VXVZ:3C5W7UE9CHX9GZANGWNG47LTUR4XMB,23,1547803147175,"{""rt"": 5884, ""trial_type"": ""face-likert-amanda"", ""debug_mode"": ""live"", ""task_type"": ""face trials"", ""responses"": ""{\""Q0\"":5}"", ""task_payment"": 0.5, ""task_version"": 1, ""internal_node_id"": ""0.0-3.0-0.0-0.0"", ""time_elapsed"": 158219, ""imgName"": ""/static/images/celeba_gt_crop/attractive/014755.jpg"", ""questions"": ""[{\""prompt\"":\""<p>How attractive does this person look? Rate from 1-9</p>\"",\""labels\"":[\""1 <br/>Not attractive at all\"",\""2\"",\""3\"",\""4\"",\""5\"",\""6\"",\""7\"",\""8\"",\""9  <br/>Extremely attractive\""],\""required\"":true}]"", ""task_unique_trial"": 100, ""task_name"": ""attractive-gt"", ""trial_index"": 23, ""isRepeat"": 0}"
A2JBCLJVJ2VXVZ:3C5W7UE9CHX9GZANGWNG47LTUR4XMB,24,1547803150278,"{""rt"": 3099, ""trial_type"": ""face-likert-amanda"", ""debug_mode"": ""live"", ""task_type"": ""face trials"", ""responses"": ""{\""Q0\"":6}"", ""task_payment"": 0.5, ""task_version"": 1, ""internal_node_id"": ""0.0-3.0-0.0-1.0"", ""time_elapsed"": 161322, ""imgName"": ""/static/images/celeba_gt_crop/attractive/067792.jpg"", ""questions"": ""[{\""prompt\"":\""<p>How attractive does this person look? Rate from 1-9</p>\"",\""labels\"":[\""1 <br/>Not attractive at all\"",\""2\"",\""3\"",\""4\"",\""5\"",\""6\"",\""7\"",\""8\"",\""9  <br/>Extremely attractive\""],\""required\"":true}]"", ""task_unique_trial"": 100, ""task_name"": ""attractive-gt"", ""trial_index"": 24, ""isRepeat"": 0}"
A2JBCLJVJ2VXVZ:3C5W7UE9CHX9GZANGWNG47LTUR4XMB,25,1547803156022,"{""rt"": 5741, ""trial_type"": ""face-likert-amanda"", ""debug_mode"": ""live"", ""task_type"": ""face trials"", ""responses"": ""{\""Q0\"":5}"", ""task_payment"": 0.5, ""task_version"": 1, ""internal_node_id"": ""0.0-3.0-0.0-2.0"", ""time_elapsed"": 167065, ""imgName"": ""/static/images/celeba_gt_crop/attractive/117478.jpg"", ""questions"": ""[{\""prompt\"":\""<p>How attractive does this person look? Rate from 1-9</p>\"",\""labels\"":[\""1 <br/>Not attractive at all\"",\""2\"",\""3\"",\""4\"",\""5\"",\""6\"",\""7\"",\""8\"",\""9  <br/>Extremely attractive\""],\""required\"":true}]"", ""task_unique_trial"": 100, ""task_name"": ""attractive-gt"", ""trial_index"": 25, ""isRepeat"": 0}"
A2JBCLJVJ2VXVZ:3C5W7UE9CHX9GZANGWNG47LTUR4XMB,26,1547803159134,"{""rt"": 3110, ""trial_type"": ""face-likert-amanda"", ""debug_mode"": ""live"", ""task_type"": ""face trials"", ""responses"": ""{\""Q0\"":8}"", ""task_payment"": 0.5, ""task_version"": 1, ""internal_node_id"": ""0.0-3.0-0.0-3.0"", ""time_elapsed"": 170178, ""imgName"": ""/static/images/celeba_gt_crop/attractive/198632.jpg"", ""questions"": ""[{\""prompt\"":\""<p>How attractive does this person look? Rate from 1-9</p>\"",\""labels\"":[\""1 <br/>Not attractive at all\"",\""2\"",\""3\"",\""4\"",\""5\"",\""6\"",\""7\"",\""8\"",\""9  <br/>Extremely attractive\""],\""required\"":true}]"", ""task_unique_trial"": 100, ""task_name"": ""attractive-gt"", ""trial_index"": 26, ""isRepeat"": 0}"
A2JBCLJVJ2VXVZ:3C5W7UE9CHX9GZANGWNG47LTUR4XMB,27,1547803162686,"{""rt"": 3549, ""trial_type"": ""face-likert-amanda"", ""debug_mode"": ""live"", ""task_type"": ""face trials"", ""responses"": ""{\""Q0\"":3}"", ""task_payment"": 0.5, ""task_version"": 1, ""internal_node_id"": ""0.0-3.0-0.0-4.0"", ""time_elapsed"": 173730, ""imgName"": ""/static/images/celeba_gt_crop/attractive/141059.jpg"", ""questions"": ""[{\""prompt\"":\""<p>How attractive does this person look? Rate from 1-9</p>\"",\""labels\"":[\""1 <br/>Not attractive at all\"",\""2\"",\""3\"",\""4\"",\""5\"",\""6\"",\""7\"",\""8\"",\""9  <br/>Extremely attractive\""],\""required\"":true}]"", ""task_unique_trial"": 100, ""task_name"": ""attractive-gt"", ""trial_index"": 27, ""isRepeat"": 0}"
A2JBCLJVJ2VXVZ:3C5W7UE9CHX9GZANGWNG47LTUR4XMB,28,1547803167838,"{""rt"": 5148, ""trial_type"": ""face-likert-amanda"", ""debug_mode"": ""live"", ""task_type"": ""face trials"", ""responses"": ""{\""Q0\"":5}"", ""task_payment"": 0.5, ""task_version"": 1, ""internal_node_id"": ""0.0-3.0-0.0-5.0"", ""time_elapsed"": 178882, ""imgName"": ""/static/images/celeba_gt_crop/attractive/086966.jpg"", ""questions"": ""[{\""prompt\"":\""<p>How attractive does this person look? Rate from 1-9</p>\"",\""labels\"":[\""1 <br/>Not attractive at all\"",\""2\"",\""3\"",\""4\"",\""5\"",\""6\"",\""7\"",\""8\"",\""9  <br/>Extremely attractive\""],\""required\"":true}]"", ""task_unique_trial"": 100, ""task_name"": ""attractive-gt"", ""trial_index"": 28, ""isRepeat"": 0}"
A2JBCLJVJ2VXVZ:3C5W7UE9CHX9GZANGWNG47LTUR4XMB,29,1547803171877,"{""rt"": 4036, ""trial_type"": ""face-likert-amanda"", ""debug_mode"": ""live"", ""task_type"": ""face trials"", ""responses"": ""{\""Q0\"":8}"", ""task_payment"": 0.5, ""task_version"": 1, ""internal_node_id"": ""0.0-3.0-0.0-6.0"", ""time_elapsed"": 182921, ""imgName"": ""/static/images/celeba_gt_crop/attractive/059217.jpg"", ""questions"": ""[{\""prompt\"":\""<p>How attractive does this person look? Rate from 1-9</p>\"",\""labels\"":[\""1 <br/>Not attractive at all\"",\""2\"",\""3\"",\""4\"",\""5\"",\""6\"",\""7\"",\""8\"",\""9  <br/>Extremely attractive\""],\""required\"":true}]"", ""task_unique_trial"": 100, ""task_name"": ""attractive-gt"", ""trial_index"": 29, ""isRepeat"": 0}"
A2JBCLJVJ2VXVZ:3C5W7UE9CHX9GZANGWNG47LTUR4XMB,30,1547803175247,"{""rt"": 3367, ""trial_type"": ""face-likert-amanda"", ""debug_mode"": ""live"", ""task_type"": ""face trials"", ""responses"": ""{\""Q0\"":5}"", ""task_payment"": 0.5, ""task_version"": 1, ""internal_node_id"": ""0.0-3.0-0.0-7.0"", ""time_elapsed"": 186291, ""imgName"": ""/static/images/celeba_gt_crop/attractive/141075.jpg"", ""questions"": ""[{\""prompt\"":\""<p>How attractive does this person look? Rate from 1-9</p>\"",\""labels\"":[\""1 <br/>Not attractive at all\"",\""2\"",\""3\"",\""4\"",\""5\"",\""6\"",\""7\"",\""8\"",\""9  <br/>Extremely attractive\""],\""required\"":true}]"", ""task_unique_trial"": 100, ""task_name"": ""attractive-gt"", ""trial_index"": 30, ""isRepeat"": 0}"
A2JBCLJVJ2VXVZ:3C5W7UE9CHX9GZANGWNG47LTUR4XMB,31,1547803178301,"{""rt"": 3050, ""trial_type"": ""face-likert-amanda"", ""debug_mode"": ""live"", ""task_type"": ""face trials"", ""responses"": ""{\""Q0\"":1}"", ""task_payment"": 0.5, ""task_version"": 1, ""internal_node_id"": ""0.0-3.0-0.0-8.0"", ""time_elapsed"": 189345, ""imgName"": ""/static/images/celeba_gt_crop/attractive/161526.jpg"", ""questions"": ""[{\""prompt\"":\""<p>How attractive does this person look? Rate from 1-9</p>\"",\""labels\"":[\""1 <br/>Not attractive at all\"",\""2\"",\""3\"",\""4\"",\""5\"",\""6\"",\""7\"",\""8\"",\""9  <br/>Extremely attractive\""],\""required\"":true}]"", ""task_unique_trial"": 100, ""task_name"": ""attractive-gt"", ""trial_index"": 31, ""isRepeat"": 0}"
A2JBCLJVJ2VXVZ:3C5W7UE9CHX9GZANGWNG47LTUR4XMB,32,1547803182116,"{""rt"": 3814, ""trial_type"": ""face-likert-amanda"", ""debug_mode"": ""live"", ""task_type"": ""face trials"", ""responses"": ""{\""Q0\"":5}"", ""task_payment"": 0.5, ""task_version"": 1, ""internal_node_id"": ""0.0-3.0-0.0-9.0"", ""time_elapsed"": 193160, ""imgName"": ""/static/images/celeba_gt_crop/attractive/017238.jpg"", ""questions"": ""[{\""prompt\"":\""<p>How attractive does this person look? Rate from 1-9</p>\"",\""labels\"":[\""1 <br/>Not attractive at all\"",\""2\"",\""3\"",\""4\"",\""5\"",\""6\"",\""7\"",\""8\"",\""9  <br/>Extremely attractive\""],\""required\"":true}]"", ""task_unique_trial"": 100, ""task_name"": ""attractive-gt"", ""trial_index"": 32, ""isRepeat"": 0}"
A2JBCLJVJ2VXVZ:3C5W7UE9CHX9GZANGWNG47LTUR4XMB,33,1547803184119,"{""rt"": null, ""trial_type"": ""html-keyboard-response"", ""task_unique_trial"": 100, ""stimulus"": ""<p>Good job!</p>"", ""task_version"": 1, ""internal_node_id"": ""0.0-3.0-1.0"", ""task_payment"": 0.5, ""time_elapsed"": 195163, ""debug_mode"": ""live"", ""key_press"": null, ""task_name"": ""attractive-gt"", ""trial_index"": 33}"
A2JBCLJVJ2VXVZ:3C5W7UE9CHX9GZANGWNG47LTUR4XMB,34,1547803188004,"{""rt"": 3883, ""trial_type"": ""face-likert-amanda"", ""debug_mode"": ""live"", ""task_type"": ""face trials"", ""responses"": ""{\""Q0\"":3}"", ""task_payment"": 0.5, ""task_version"": 1, ""internal_node_id"": ""0.0-4.0-0.0-0.0"", ""time_elapsed"": 199048, ""imgName"": ""/static/images/celeba_gt_crop/attractive/164278.jpg"", ""questions"": ""[{\""prompt\"":\""<p>How attractive does this person look? Rate from 1-9</p>\"",\""labels\"":[\""1 <br/>Not attractive at all\"",\""2\"",\""3\"",\""4\"",\""5\"",\""6\"",\""7\"",\""8\"",\""9  <br/>Extremely attractive\""],\""required\"":true}]"", ""task_unique_trial"": 100, ""task_name"": ""attractive-gt"", ""trial_index"": 34, ""isRepeat"": 0}"
A2JBCLJVJ2VXVZ:3C5W7UE9CHX9GZANGWNG47LTUR4XMB,35,1547803193419,"{""rt"": 5414, ""trial_type"": ""face-likert-amanda"", ""debug_mode"": ""live"", ""task_type"": ""face trials"", ""responses"": ""{\""Q0\"":6}"", ""task_payment"": 0.5, ""task_version"": 1, ""internal_node_id"": ""0.0-4.0-0.0-1.0"", ""time_elapsed"": 204463, ""imgName"": ""/static/images/celeba_gt_crop/attractive/010645.jpg"", ""questions"": ""[{\""prompt\"":\""<p>How attractive does this person look? Rate from 1-9</p>\"",\""labels\"":[\""1 <br/>Not attractive at all\"",\""2\"",\""3\"",\""4\"",\""5\"",\""6\"",\""7\"",\""8\"",\""9  <br/>Extremely attractive\""],\""required\"":true}]"", ""task_unique_trial"": 100, ""task_name"": ""attractive-gt"", ""trial_index"": 35, ""isRepeat"": 0}"
A2JBCLJVJ2VXVZ:3C5W7UE9CHX9GZANGWNG47LTUR4XMB,36,1547803197780,"{""rt"": 4358, ""trial_type"": ""face-likert-amanda"", ""debug_mode"": ""live"", ""task_type"": ""face trials"", ""responses"": ""{\""Q0\"":5}"", ""task_payment"": 0.5, ""task_version"": 1, ""internal_node_id"": ""0.0-4.0-0.0-2.0"", ""time_elapsed"": 208824, ""imgName"": ""/static/images/celeba_gt_crop/attractive/100659.jpg"", ""questions"": ""[{\""prompt\"":\""<p>How attractive does this person look? Rate from 1-9</p>\"",\""labels\"":[\""1 <br/>Not attractive at all\"",\""2\"",\""3\"",\""4\"",\""5\"",\""6\"",\""7\"",\""8\"",\""9  <br/>Extremely attractive\""],\""required\"":true}]"", ""task_unique_trial"": 100, ""task_name"": ""attractive-gt"", ""trial_index"": 36, ""isRepeat"": 0}"
A2JBCLJVJ2VXVZ:3C5W7UE9CHX9GZANGWNG47LTUR4XMB,37,1547803202932,"{""rt"": 5148, ""trial_type"": ""face-likert-amanda"", ""debug_mode"": ""live"", ""task_type"": ""face trials"", ""responses"": ""{\""Q0\"":3}"", ""task_payment"": 0.5, ""task_version"": 1, ""internal_node_id"": ""0.0-4.0-0.0-3.0"", ""time_elapsed"": 213976, ""imgName"": ""/static/images/celeba_gt_crop/attractive/102224.jpg"", ""questions"": ""[{\""prompt\"":\""<p>How attractive does this person look? Rate from 1-9</p>\"",\""labels\"":[\""1 <br/>Not attractive at all\"",\""2\"",\""3\"",\""4\"",\""5\"",\""6\"",\""7\"",\""8\"",\""9  <br/>Extremely attractive\""],\""required\"":true}]"", ""task_unique_trial"": 100, ""task_name"": ""attractive-gt"", ""trial_index"": 37, ""isRepeat"": 0}"
A2JBCLJVJ2VXVZ:3C5W7UE9CHX9GZANGWNG47LTUR4XMB,38,1547803206613,"{""rt"": 3677, ""trial_type"": ""face-likert-amanda"", ""debug_mode"": ""live"", ""task_type"": ""face trials"", ""responses"": ""{\""Q0\"":4}"", ""task_payment"": 0.5, ""task_version"": 1, ""internal_node_id"": ""0.0-4.0-0.0-4.0"", ""time_elapsed"": 217657, ""imgName"": ""/static/images/celeba_gt_crop/attractive/177368.jpg"", ""questions"": ""[{\""prompt\"":\""<p>How attractive does this person look? Rate from 1-9</p>\"",\""labels\"":[\""1 <br/>Not attractive at all\"",\""2\"",\""3\"",\""4\"",\""5\"",\""6\"",\""7\"",\""8\"",\""9  <br/>Extremely attractive\""],\""required\"":true}]"", ""task_unique_trial"": 100, ""task_name"": ""attractive-gt"", ""trial_index"": 38, ""isRepeat"": 0}"
A2JBCLJVJ2VXVZ:3C5W7UE9CHX9GZANGWNG47LTUR4XMB,39,1547803210012,"{""rt"": 3397, ""trial_type"": ""face-likert-amanda"", ""debug_mode"": ""live"", ""task_type"": ""face trials"", ""responses"": ""{\""Q0\"":1}"", ""task_payment"": 0.5, ""task_version"": 1, ""internal_node_id"": ""0.0-4.0-0.0-5.0"", ""time_elapsed"": 221056, ""imgName"": ""/static/images/celeba_gt_crop/attractive/198128.jpg"", ""questions"": ""[{\""prompt\"":\""<p>How attractive does this person look? Rate from 1-9</p>\"",\""labels\"":[\""1 <br/>Not attractive at all\"",\""2\"",\""3\"",\""4\"",\""5\"",\""6\"",\""7\"",\""8\"",\""9  <br/>Extremely attractive\""],\""required\"":true}]"", ""task_unique_trial"": 100, ""task_name"": ""attractive-gt"", ""trial_index"": 39, ""isRepeat"": 0}"
A2JBCLJVJ2VXVZ:3C5W7UE9CHX9GZANGWNG47LTUR4XMB,40,1547803213541,"{""rt"": 3526, ""trial_type"": ""face-likert-amanda"", ""debug_mode"": ""live"", ""task_type"": ""face trials"", ""responses"": ""{\""Q0\"":8}"", ""task_payment"": 0.5, ""task_version"": 1, ""internal_node_id"": ""0.0-4.0-0.0-6.0"", ""time_elapsed"": 224585, ""imgName"": ""/static/images/celeba_gt_crop/attractive/096767.jpg"", ""questions"": ""[{\""prompt\"":\""<p>How attractive does this person look? Rate from 1-9</p>\"",\""labels\"":[\""1 <br/>Not attractive at all\"",\""2\"",\""3\"",\""4\"",\""5\"",\""6\"",\""7\"",\""8\"",\""9  <br/>Extremely attractive\""],\""required\"":true}]"", ""task_unique_trial"": 100, ""task_name"": ""attractive-gt"", ""trial_index"": 40, ""isRepeat"": 0}"
A2JBCLJVJ2VXVZ:3C5W7UE9CHX9GZANGWNG47LTUR4XMB,41,1547803217972,"{""rt"": 4428, ""trial_type"": ""face-likert-amanda"", ""debug_mode"": ""live"", ""task_type"": ""face trials"", ""responses"": ""{\""Q0\"":3}"", ""task_payment"": 0.5, ""task_version"": 1, ""internal_node_id"": ""0.0-4.0-0.0-7.0"", ""time_elapsed"": 229016, ""imgName"": ""/static/images/celeba_gt_crop/attractive/200278.jpg"", ""questions"": ""[{\""prompt\"":\""<p>How attractive does this person look? Rate from 1-9</p>\"",\""labels\"":[\""1 <br/>Not attractive at all\"",\""2\"",\""3\"",\""4\"",\""5\"",\""6\"",\""7\"",\""8\"",\""9  <br/>Extremely attractive\""],\""required\"":true}]"", ""task_unique_trial"": 100, ""task_name"": ""attractive-gt"", ""trial_index"": 41, ""isRepeat"": 0}"
A2JBCLJVJ2VXVZ:3C5W7UE9CHX9GZANGWNG47LTUR4XMB,42,1547803221876,"{""rt"": 3902, ""trial_type"": ""face-likert-amanda"", ""debug_mode"": ""live"", ""task_type"": ""face trials"", ""responses"": ""{\""Q0\"":6}"", ""task_payment"": 0.5, ""task_version"": 1, ""internal_node_id"": ""0.0-4.0-0.0-8.0"", ""time_elapsed"": 232919, ""imgName"": ""/static/images/celeba_gt_crop/attractive/031206.jpg"", ""questions"": ""[{\""prompt\"":\""<p>How attractive does this person look? Rate from 1-9</p>\"",\""labels\"":[\""1 <br/>Not attractive at all\"",\""2\"",\""3\"",\""4\"",\""5\"",\""6\"",\""7\"",\""8\"",\""9  <br/>Extremely attractive\""],\""required\"":true}]"", ""task_unique_trial"": 100, ""task_name"": ""attractive-gt"", ""trial_index"": 42, ""isRepeat"": 0}"
A2JBCLJVJ2VXVZ:3C5W7UE9CHX9GZANGWNG47LTUR4XMB,43,1547803226247,"{""rt"": 4365, ""trial_type"": ""face-likert-amanda"", ""debug_mode"": ""live"", ""task_type"": ""face trials"", ""responses"": ""{\""Q0\"":7}"", ""task_payment"": 0.5, ""task_version"": 1, ""internal_node_id"": ""0.0-4.0-0.0-9.0"", ""time_elapsed"": 237291, ""imgName"": ""/static/images/celeba_gt_crop/attractive/100138.jpg"", ""questions"": ""[{\""prompt\"":\""<p>How attractive does this person look? Rate from 1-9</p>\"",\""labels\"":[\""1 <br/>Not attractive at all\"",\""2\"",\""3\"",\""4\"",\""5\"",\""6\"",\""7\"",\""8\"",\""9  <br/>Extremely attractive\""],\""required\"":true}]"", ""task_unique_trial"": 100, ""task_name"": ""attractive-gt"", ""trial_index"": 43, ""isRepeat"": 0}"
A2JBCLJVJ2VXVZ:3C5W7UE9CHX9GZANGWNG47LTUR4XMB,44,1547803228250,"{""rt"": null, ""trial_type"": ""html-keyboard-response"", ""task_unique_trial"": 100, ""stimulus"": ""<p>Good job!</p>"", ""task_version"": 1, ""internal_node_id"": ""0.0-4.0-1.0"", ""task_payment"": 0.5, ""time_elapsed"": 239294, ""debug_mode"": ""live"", ""key_press"": null, ""task_name"": ""attractive-gt"", ""trial_index"": 44}"
A2JBCLJVJ2VXVZ:3C5W7UE9CHX9GZANGWNG47LTUR4XMB,45,1547803232037,"{""rt"": 3786, ""trial_type"": ""face-likert-amanda"", ""debug_mode"": ""live"", ""task_type"": ""face trials"", ""responses"": ""{\""Q0\"":6}"", ""task_payment"": 0.5, ""task_version"": 1, ""internal_node_id"": ""0.0-5.0-0.0-0.0"", ""time_elapsed"": 243081, ""imgName"": ""/static/images/celeba_gt_crop/attractive/068906.jpg"", ""questions"": ""[{\""prompt\"":\""<p>How attractive does this person look? Rate from 1-9</p>\"",\""labels\"":[\""1 <br/>Not attractive at all\"",\""2\"",\""3\"",\""4\"",\""5\"",\""6\"",\""7\"",\""8\"",\""9  <br/>Extremely attractive\""],\""required\"":true}]"", ""task_unique_trial"": 100, ""task_name"": ""attractive-gt"", ""trial_index"": 45, ""isRepeat"": 0}"
A2JBCLJVJ2VXVZ:3C5W7UE9CHX9GZANGWNG47LTUR4XMB,46,1547803235468,"{""rt"": 3426, ""trial_type"": ""face-likert-amanda"", ""debug_mode"": ""live"", ""task_type"": ""face trials"", ""responses"": ""{\""Q0\"":5}"", ""task_payment"": 0.5, ""task_version"": 1, ""internal_node_id"": ""0.0-5.0-0.0-1.0"", ""time_elapsed"": 246512, ""imgName"": ""/static/images/celeba_gt_crop/attractive/177368.jpg"", ""questions"": ""[{\""prompt\"":\""<p>How attractive does this person look? Rate from 1-9</p>\"",\""labels\"":[\""1 <br/>Not attractive at all\"",\""2\"",\""3\"",\""4\"",\""5\"",\""6\"",\""7\"",\""8\"",\""9  <br/>Extremely attractive\""],\""required\"":true}]"", ""task_unique_trial"": 100, ""task_name"": ""attractive-gt"", ""trial_index"": 46, ""isRepeat"": 0}"
A2JBCLJVJ2VXVZ:3C5W7UE9CHX9GZANGWNG47LTUR4XMB,47,1547803239147,"{""rt"": 3674, ""trial_type"": ""face-likert-amanda"", ""debug_mode"": ""live"", ""task_type"": ""face trials"", ""responses"": ""{\""Q0\"":8}"", ""task_payment"": 0.5, ""task_version"": 1, ""internal_node_id"": ""0.0-5.0-0.0-2.0"", ""time_elapsed"": 250191, ""imgName"": ""/static/images/celeba_gt_crop/attractive/113099.jpg"", ""questions"": ""[{\""prompt\"":\""<p>How attractive does this person look? Rate from 1-9</p>\"",\""labels\"":[\""1 <br/>Not attractive at all\"",\""2\"",\""3\"",\""4\"",\""5\"",\""6\"",\""7\"",\""8\"",\""9  <br/>Extremely attractive\""],\""required\"":true}]"", ""task_unique_trial"": 100, ""task_name"": ""attractive-gt"", ""trial_index"": 47, ""isRepeat"": 0}"
A2JBCLJVJ2VXVZ:3C5W7UE9CHX9GZANGWNG47LTUR4XMB,48,1547803297502,"{""rt"": 58352, ""trial_type"": ""face-likert-amanda"", ""debug_mode"": ""live"", ""task_type"": ""face trials"", ""responses"": ""{\""Q0\"":7}"", ""task_payment"": 0.5, ""task_version"": 1, ""internal_node_id"": ""0.0-5.0-0.0-3.0"", ""time_elapsed"": 308546, ""imgName"": ""/static/images/celeba_gt_crop/attractive/163842.jpg"", ""questions"": ""[{\""prompt\"":\""<p>How attractive does this person look? Rate from 1-9</p>\"",\""labels\"":[\""1 <br/>Not attractive at all\"",\""2\"",\""3\"",\""4\"",\""5\"",\""6\"",\""7\"",\""8\"",\""9  <br/>Extremely attractive\""],\""required\"":true}]"", ""task_unique_trial"": 100, ""task_name"": ""attractive-gt"", ""trial_index"": 48, ""isRepeat"": 0}"
A2JBCLJVJ2VXVZ:3C5W7UE9CHX9GZANGWNG47LTUR4XMB,49,1547803300606,"{""rt"": 3099, ""trial_type"": ""face-likert-amanda"", ""debug_mode"": ""live"", ""task_type"": ""face trials"", ""responses"": ""{\""Q0\"":4}"", ""task_payment"": 0.5, ""task_version"": 1, ""internal_node_id"": ""0.0-5.0-0.0-4.0"", ""time_elapsed"": 311649, ""imgName"": ""/static/images/celeba_gt_crop/attractive/148453.jpg"", ""questions"": ""[{\""prompt\"":\""<p>How attractive does this person look? Rate from 1-9</p>\"",\""labels\"":[\""1 <br/>Not attractive at all\"",\""2\"",\""3\"",\""4\"",\""5\"",\""6\"",\""7\"",\""8\"",\""9  <br/>Extremely attractive\""],\""required\"":true}]"", ""task_unique_trial"": 100, ""task_name"": ""attractive-gt"", ""trial_index"": 49, ""isRepeat"": 0}"
A2JBCLJVJ2VXVZ:3C5W7UE9CHX9GZANGWNG47LTUR4XMB,50,1547803304937,"{""rt"": 4329, ""trial_type"": ""face-likert-amanda"", ""debug_mode"": ""live"", ""task_type"": ""face trials"", ""responses"": ""{\""Q0\"":2}"", ""task_payment"": 0.5, ""task_version"": 1, ""internal_node_id"": ""0.0-5.0-0.0-5.0"", ""time_elapsed"": 315981, ""imgName"": ""/static/images/celeba_gt_crop/attractive/112278.jpg"", ""questions"": ""[{\""prompt\"":\""<p>How attractive does this person look? Rate from 1-9</p>\"",\""labels\"":[\""1 <br/>Not attractive at all\"",\""2\"",\""3\"",\""4\"",\""5\"",\""6\"",\""7\"",\""8\"",\""9  <br/>Extremely attractive\""],\""required\"":true}]"", ""task_unique_trial"": 100, ""task_name"": ""attractive-gt"", ""trial_index"": 50, ""isRepeat"": 0}"
A2JBCLJVJ2VXVZ:3C5W7UE9CHX9GZANGWNG47LTUR4XMB,51,1547803311011,"{""rt"": 6069, ""trial_type"": ""face-likert-amanda"", ""debug_mode"": ""live"", ""task_type"": ""face trials"", ""responses"": ""{\""Q0\"":8}"", ""task_payment"": 0.5, ""task_version"": 1, ""internal_node_id"": ""0.0-5.0-0.0-6.0"", ""time_elapsed"": 322055, ""imgName"": ""/static/images/celeba_gt_crop/attractive/017238.jpg"", ""questions"": ""[{\""prompt\"":\""<p>How attractive does this person look? Rate from 1-9</p>\"",\""labels\"":[\""1 <br/>Not attractive at all\"",\""2\"",\""3\"",\""4\"",\""5\"",\""6\"",\""7\"",\""8\"",\""9  <br/>Extremely attractive\""],\""required\"":true}]"", ""task_unique_trial"": 100, ""task_name"": ""attractive-gt"", ""trial_index"": 51, ""isRepeat"": 0}"
A2JBCLJVJ2VXVZ:3C5W7UE9CHX9GZANGWNG47LTUR4XMB,52,1547803314955,"{""rt"": 3940, ""trial_type"": ""face-likert-amanda"", ""debug_mode"": ""live"", ""task_type"": ""face trials"", ""responses"": ""{\""Q0\"":8}"", ""task_payment"": 0.5, ""task_version"": 1, ""internal_node_id"": ""0.0-5.0-0.0-7.0"", ""time_elapsed"": 325999, ""imgName"": ""/static/images/celeba_gt_crop/attractive/115789.jpg"", ""questions"": ""[{\""prompt\"":\""<p>How attractive does this person look? Rate from 1-9</p>\"",\""labels\"":[\""1 <br/>Not attractive at all\"",\""2\"",\""3\"",\""4\"",\""5\"",\""6\"",\""7\"",\""8\"",\""9  <br/>Extremely attractive\""],\""required\"":true}]"", ""task_unique_trial"": 100, ""task_name"": ""attractive-gt"", ""trial_index"": 52, ""isRepeat"": 0}"
A2JBCLJVJ2VXVZ:3C5W7UE9CHX9GZANGWNG47LTUR4XMB,53,1547803320372,"{""rt"": 5414, ""trial_type"": ""face-likert-amanda"", ""debug_mode"": ""live"", ""task_type"": ""face trials"", ""responses"": ""{\""Q0\"":6}"", ""task_payment"": 0.5, ""task_version"": 1, ""internal_node_id"": ""0.0-5.0-0.0-8.0"", ""time_elapsed"": 331415, ""imgName"": ""/static/images/celeba_gt_crop/attractive/132629.jpg"", ""questions"": ""[{\""prompt\"":\""<p>How attractive does this person look? Rate from 1-9</p>\"",\""labels\"":[\""1 <br/>Not attractive at all\"",\""2\"",\""3\"",\""4\"",\""5\"",\""6\"",\""7\"",\""8\"",\""9  <br/>Extremely attractive\""],\""required\"":true}]"", ""task_unique_trial"": 100, ""task_name"": ""attractive-gt"", ""trial_index"": 53, ""isRepeat"": 0}"
A2JBCLJVJ2VXVZ:3C5W7UE9CHX9GZANGWNG47LTUR4XMB,54,1547803323987,"{""rt"": 3612, ""trial_type"": ""face-likert-amanda"", ""debug_mode"": ""live"", ""task_type"": ""face trials"", ""responses"": ""{\""Q0\"":3}"", ""task_payment"": 0.5, ""task_version"": 1, ""internal_node_id"": ""0.0-5.0-0.0-9.0"", ""time_elapsed"": 335031, ""imgName"": ""/static/images/celeba_gt_crop/attractive/057518.jpg"", ""questions"": ""[{\""prompt\"":\""<p>How attractive does this person look? Rate from 1-9</p>\"",\""labels\"":[\""1 <br/>Not attractive at all\"",\""2\"",\""3\"",\""4\"",\""5\"",\""6\"",\""7\"",\""8\"",\""9  <br/>Extremely attractive\""],\""required\"":true}]"", ""task_unique_trial"": 100, ""task_name"": ""attractive-gt"", ""trial_index"": 54, ""isRepeat"": 0}"
A2JBCLJVJ2VXVZ:3C5W7UE9CHX9GZANGWNG47LTUR4XMB,55,1547803324993,"{""rt"": null, ""trial_type"": ""html-keyboard-response"", ""task_unique_trial"": 100, ""stimulus"": ""<p>Good job!</p>"", ""task_version"": 1, ""internal_node_id"": ""0.0-5.0-1.0"", ""task_payment"": 0.5, ""time_elapsed"": 336036, ""debug_mode"": ""live"", ""key_press"": null, ""task_name"": ""attractive-gt"", ""trial_index"": 55}"
A2JBCLJVJ2VXVZ:3C5W7UE9CHX9GZANGWNG47LTUR4XMB,56,1547803330421,"{""rt"": 5425, ""trial_type"": ""face-likert-amanda"", ""debug_mode"": ""live"", ""task_type"": ""face trials"", ""responses"": ""{\""Q0\"":7}"", ""task_payment"": 0.5, ""task_version"": 1, ""internal_node_id"": ""0.0-6.0-0.0-0.0"", ""time_elapsed"": 341464, ""imgName"": ""/static/images/celeba_gt_crop/attractive/153098.jpg"", ""questions"": ""[{\""prompt\"":\""<p>How attractive does this person look? Rate from 1-9</p>\"",\""labels\"":[\""1 <br/>Not attractive at all\"",\""2\"",\""3\"",\""4\"",\""5\"",\""6\"",\""7\"",\""8\"",\""9  <br/>Extremely attractive\""],\""required\"":true}]"", ""task_unique_trial"": 100, ""task_name"": ""attractive-gt"", ""trial_index"": 56, ""isRepeat"": 0}"
A2JBCLJVJ2VXVZ:3C5W7UE9CHX9GZANGWNG47LTUR4XMB,57,1547803335669,"{""rt"": 5246, ""trial_type"": ""face-likert-amanda"", ""debug_mode"": ""live"", ""task_type"": ""face trials"", ""responses"": ""{\""Q0\"":6}"", ""task_payment"": 0.5, ""task_version"": 1, ""internal_node_id"": ""0.0-6.0-0.0-1.0"", ""time_elapsed"": 346713, ""imgName"": ""/static/images/celeba_gt_crop/attractive/117478.jpg"", ""questions"": ""[{\""prompt\"":\""<p>How attractive does this person look? Rate from 1-9</p>\"",\""labels\"":[\""1 <br/>Not attractive at all\"",\""2\"",\""3\"",\""4\"",\""5\"",\""6\"",\""7\"",\""8\"",\""9  <br/>Extremely attractive\""],\""required\"":true}]"", ""task_unique_trial"": 100, ""task_name"": ""attractive-gt"", ""trial_index"": 57, ""isRepeat"": 0}"
A2JBCLJVJ2VXVZ:3C5W7UE9CHX9GZANGWNG47LTUR4XMB,58,1547803339220,"{""rt"": 3548, ""trial_type"": ""face-likert-amanda"", ""debug_mode"": ""live"", ""task_type"": ""face trials"", ""responses"": ""{\""Q0\"":7}"", ""task_payment"": 0.5, ""task_version"": 1, ""internal_node_id"": ""0.0-6.0-0.0-2.0"", ""time_elapsed"": 350263, ""imgName"": ""/static/images/celeba_gt_crop/attractive/084296.jpg"", ""questions"": ""[{\""prompt\"":\""<p>How attractive does this person look? Rate from 1-9</p>\"",\""labels\"":[\""1 <br/>Not attractive at all\"",\""2\"",\""3\"",\""4\"",\""5\"",\""6\"",\""7\"",\""8\"",\""9  <br/>Extremely attractive\""],\""required\"":true}]"", ""task_unique_trial"": 100, ""task_name"": ""attractive-gt"", ""trial_index"": 58, ""isRepeat"": 0}"
A2JBCLJVJ2VXVZ:3C5W7UE9CHX9GZANGWNG47LTUR4XMB,59,1547803342730,"{""rt"": 3507, ""trial_type"": ""face-likert-amanda"", ""debug_mode"": ""live"", ""task_type"": ""face trials"", ""responses"": ""{\""Q0\"":6}"", ""task_payment"": 0.5, ""task_version"": 1, ""internal_node_id"": ""0.0-6.0-0.0-3.0"", ""time_elapsed"": 353774, ""imgName"": ""/static/images/celeba_gt_crop/attractive/035590.jpg"", ""questions"": ""[{\""prompt\"":\""<p>How attractive does this person look? Rate from 1-9</p>\"",\""labels\"":[\""1 <br/>Not attractive at all\"",\""2\"",\""3\"",\""4\"",\""5\"",\""6\"",\""7\"",\""8\"",\""9  <br/>Extremely attractive\""],\""required\"":true}]"", ""task_unique_trial"": 100, ""task_name"": ""attractive-gt"", ""trial_index"": 59, ""isRepeat"": 0}"
A2JBCLJVJ2VXVZ:3C5W7UE9CHX9GZANGWNG47LTUR4XMB,60,1547803346612,"{""rt"": 3881, ""trial_type"": ""face-likert-amanda"", ""debug_mode"": ""live"", ""task_type"": ""face trials"", ""responses"": ""{\""Q0\"":8}"", ""task_payment"": 0.5, ""task_version"": 1, ""internal_node_id"": ""0.0-6.0-0.0-4.0"", ""time_elapsed"": 357656, ""imgName"": ""/static/images/celeba_gt_crop/attractive/122364.jpg"", ""questions"": ""[{\""prompt\"":\""<p>How attractive does this person look? Rate from 1-9</p>\"",\""labels\"":[\""1 <br/>Not attractive at all\"",\""2\"",\""3\"",\""4\"",\""5\"",\""6\"",\""7\"",\""8\"",\""9  <br/>Extremely attractive\""],\""required\"":true}]"", ""task_unique_trial"": 100, ""task_name"": ""attractive-gt"", ""trial_index"": 60, ""isRepeat"": 0}"
A2JBCLJVJ2VXVZ:3C5W7UE9CHX9GZANGWNG47LTUR4XMB,61,1547803349653,"{""rt"": 3037, ""trial_type"": ""face-likert-amanda"", ""debug_mode"": ""live"", ""task_type"": ""face trials"", ""responses"": ""{\""Q0\"":4}"", ""task_payment"": 0.5, ""task_version"": 1, ""internal_node_id"": ""0.0-6.0-0.0-5.0"", ""time_elapsed"": 360697, ""imgName"": ""/static/images/celeba_gt_crop/attractive/069359.jpg"", ""questions"": ""[{\""prompt\"":\""<p>How attractive does this person look? Rate from 1-9</p>\"",\""labels\"":[\""1 <br/>Not attractive at all\"",\""2\"",\""3\"",\""4\"",\""5\"",\""6\"",\""7\"",\""8\"",\""9  <br/>Extremely attractive\""],\""required\"":true}]"", ""task_unique_trial"": 100, ""task_name"": ""attractive-gt"", ""trial_index"": 61, ""isRepeat"": 0}"
A2JBCLJVJ2VXVZ:3C5W7UE9CHX9GZANGWNG47LTUR4XMB,62,1547803353892,"{""rt"": 4235, ""trial_type"": ""face-likert-amanda"", ""debug_mode"": ""live"", ""task_type"": ""face trials"", ""responses"": ""{\""Q0\"":6}"", ""task_payment"": 0.5, ""task_version"": 1, ""internal_node_id"": ""0.0-6.0-0.0-6.0"", ""time_elapsed"": 364936, ""imgName"": ""/static/images/celeba_gt_crop/attractive/098484.jpg"", ""questions"": ""[{\""prompt\"":\""<p>How attractive does this person look? Rate from 1-9</p>\"",\""labels\"":[\""1 <br/>Not attractive at all\"",\""2\"",\""3\"",\""4\"",\""5\"",\""6\"",\""7\"",\""8\"",\""9  <br/>Extremely attractive\""],\""required\"":true}]"", ""task_unique_trial"": 100, ""task_name"": ""attractive-gt"", ""trial_index"": 62, ""isRepeat"": 0}"
A2JBCLJVJ2VXVZ:3C5W7UE9CHX9GZANGWNG47LTUR4XMB,63,1547803357019,"{""rt"": 3125, ""trial_type"": ""face-likert-amanda"", ""debug_mode"": ""live"", ""task_type"": ""face trials"", ""responses"": ""{\""Q0\"":8}"", ""task_payment"": 0.5, ""task_version"": 1, ""internal_node_id"": ""0.0-6.0-0.0-7.0"", ""time_elapsed"": 368062, ""imgName"": ""/static/images/celeba_gt_crop/attractive/121110.jpg"", ""questions"": ""[{\""prompt\"":\""<p>How attractive does this person look? Rate from 1-9</p>\"",\""labels\"":[\""1 <br/>Not attractive at all\"",\""2\"",\""3\"",\""4\"",\""5\"",\""6\"",\""7\"",\""8\"",\""9  <br/>Extremely attractive\""],\""required\"":true}]"", ""task_unique_trial"": 100, ""task_name"": ""attractive-gt"", ""trial_index"": 63, ""isRepeat"": 0}"
A2JBCLJVJ2VXVZ:3C5W7UE9CHX9GZANGWNG47LTUR4XMB,64,1547803363332,"{""rt"": 6311, ""trial_type"": ""face-likert-amanda"", ""debug_mode"": ""live"", ""task_type"": ""face trials"", ""responses"": ""{\""Q0\"":7}"", ""task_payment"": 0.5, ""task_version"": 1, ""internal_node_id"": ""0.0-6.0-0.0-8.0"", ""time_elapsed"": 374375, ""imgName"": ""/static/images/celeba_gt_crop/attractive/147371.jpg"", ""questions"": ""[{\""prompt\"":\""<p>How attractive does this person look? Rate from 1-9</p>\"",\""labels\"":[\""1 <br/>Not attractive at all\"",\""2\"",\""3\"",\""4\"",\""5\"",\""6\"",\""7\"",\""8\"",\""9  <br/>Extremely attractive\""],\""required\"":true}]"", ""task_unique_trial"": 100, ""task_name"": ""attractive-gt"", ""trial_index"": 64, ""isRepeat"": 0}"
A2JBCLJVJ2VXVZ:3C5W7UE9CHX9GZANGWNG47LTUR4XMB,65,1547803366563,"{""rt"": 3228, ""trial_type"": ""face-likert-amanda"", ""debug_mode"": ""live"", ""task_type"": ""face trials"", ""responses"": ""{\""Q0\"":4}"", ""task_payment"": 0.5, ""task_version"": 1, ""internal_node_id"": ""0.0-6.0-0.0-9.0"", ""time_elapsed"": 377607, ""imgName"": ""/static/images/celeba_gt_crop/attractive/007128.jpg"", ""questions"": ""[{\""prompt\"":\""<p>How attractive does this person look? Rate from 1-9</p>\"",\""labels\"":[\""1 <br/>Not attractive at all\"",\""2\"",\""3\"",\""4\"",\""5\"",\""6\"",\""7\"",\""8\"",\""9  <br/>Extremely attractive\""],\""required\"":true}]"", ""task_unique_trial"": 100, ""task_name"": ""attractive-gt"", ""trial_index"": 65, ""isRepeat"": 0}"
A2JBCLJVJ2VXVZ:3C5W7UE9CHX9GZANGWNG47LTUR4XMB,66,1547803368066,"{""rt"": null, ""trial_type"": ""html-keyboard-response"", ""task_unique_trial"": 100, ""stimulus"": ""<p>Good job!</p>"", ""task_version"": 1, ""internal_node_id"": ""0.0-6.0-1.0"", ""task_payment"": 0.5, ""time_elapsed"": 379110, ""debug_mode"": ""live"", ""key_press"": null, ""task_name"": ""attractive-gt"", ""trial_index"": 66}"
A2JBCLJVJ2VXVZ:3C5W7UE9CHX9GZANGWNG47LTUR4XMB,67,1547803372237,"{""rt"": 4168, ""trial_type"": ""face-likert-amanda"", ""debug_mode"": ""live"", ""task_type"": ""face trials"", ""responses"": ""{\""Q0\"":4}"", ""task_payment"": 0.5, ""task_version"": 1, ""internal_node_id"": ""0.0-7.0-0.0-0.0"", ""time_elapsed"": 383280, ""imgName"": ""/static/images/celeba_gt_crop/attractive/075975.jpg"", ""questions"": ""[{\""prompt\"":\""<p>How attractive does this person look? Rate from 1-9</p>\"",\""labels\"":[\""1 <br/>Not attractive at all\"",\""2\"",\""3\"",\""4\"",\""5\"",\""6\"",\""7\"",\""8\"",\""9  <br/>Extremely attractive\""],\""required\"":true}]"", ""task_unique_trial"": 100, ""task_name"": ""attractive-gt"", ""trial_index"": 67, ""isRepeat"": 0}"
A2JBCLJVJ2VXVZ:3C5W7UE9CHX9GZANGWNG47LTUR4XMB,68,1547803376431,"{""rt"": 4187, ""trial_type"": ""face-likert-amanda"", ""debug_mode"": ""live"", ""task_type"": ""face trials"", ""responses"": ""{\""Q0\"":8}"", ""task_payment"": 0.5, ""task_version"": 1, ""internal_node_id"": ""0.0-7.0-0.0-1.0"", ""time_elapsed"": 387471, ""imgName"": ""/static/images/celeba_gt_crop/attractive/180966.jpg"", ""questions"": ""[{\""prompt\"":\""<p>How attractive does this person look? Rate from 1-9</p>\"",\""labels\"":[\""1 <br/>Not attractive at all\"",\""2\"",\""3\"",\""4\"",\""5\"",\""6\"",\""7\"",\""8\"",\""9  <br/>Extremely attractive\""],\""required\"":true}]"", ""task_unique_trial"": 100, ""task_name"": ""attractive-gt"", ""trial_index"": 68, ""isRepeat"": 0}"
A2JBCLJVJ2VXVZ:3C5W7UE9CHX9GZANGWNG47LTUR4XMB,69,1547803380156,"{""rt"": 3721, ""trial_type"": ""face-likert-amanda"", ""debug_mode"": ""live"", ""task_type"": ""face trials"", ""responses"": ""{\""Q0\"":6}"", ""task_payment"": 0.5, ""task_version"": 1, ""internal_node_id"": ""0.0-7.0-0.0-2.0"", ""time_elapsed"": 391200, ""imgName"": ""/static/images/celeba_gt_crop/attractive/092268.jpg"", ""questions"": ""[{\""prompt\"":\""<p>How attractive does this person look? Rate from 1-9</p>\"",\""labels\"":[\""1 <br/>Not attractive at all\"",\""2\"",\""3\"",\""4\"",\""5\"",\""6\"",\""7\"",\""8\"",\""9  <br/>Extremely attractive\""],\""required\"":true}]"", ""task_unique_trial"": 100, ""task_name"": ""attractive-gt"", ""trial_index"": 69, ""isRepeat"": 0}"
A2JBCLJVJ2VXVZ:3C5W7UE9CHX9GZANGWNG47LTUR4XMB,70,1547803382906,"{""rt"": 2748, ""trial_type"": ""face-likert-amanda"", ""debug_mode"": ""live"", ""task_type"": ""face trials"", ""responses"": ""{\""Q0\"":3}"", ""task_payment"": 0.5, ""task_version"": 1, ""internal_node_id"": ""0.0-7.0-0.0-3.0"", ""time_elapsed"": 393950, ""imgName"": ""/static/images/celeba_gt_crop/attractive/098484.jpg"", ""questions"": ""[{\""prompt\"":\""<p>How attractive does this person look? Rate from 1-9</p>\"",\""labels\"":[\""1 <br/>Not attractive at all\"",\""2\"",\""3\"",\""4\"",\""5\"",\""6\"",\""7\"",\""8\"",\""9  <br/>Extremely attractive\""],\""required\"":true}]"", ""task_unique_trial"": 100, ""task_name"": ""attractive-gt"", ""trial_index"": 70, ""isRepeat"": 0}"
A2JBCLJVJ2VXVZ:3C5W7UE9CHX9GZANGWNG47LTUR4XMB,71,1547803386150,"{""rt"": 3240, ""trial_type"": ""face-likert-amanda"", ""debug_mode"": ""live"", ""task_type"": ""face trials"", ""responses"": ""{\""Q0\"":8}"", ""task_payment"": 0.5, ""task_version"": 1, ""internal_node_id"": ""0.0-7.0-0.0-4.0"", ""time_elapsed"": 397194, ""imgName"": ""/static/images/celeba_gt_crop/attractive/187879.jpg"", ""questions"": ""[{\""prompt\"":\""<p>How attractive does this person look? Rate from 1-9</p>\"",\""labels\"":[\""1 <br/>Not attractive at all\"",\""2\"",\""3\"",\""4\"",\""5\"",\""6\"",\""7\"",\""8\"",\""9  <br/>Extremely attractive\""],\""required\"":true}]"", ""task_unique_trial"": 100, ""task_name"": ""attractive-gt"", ""trial_index"": 71, ""isRepeat"": 0}"
A2JBCLJVJ2VXVZ:3C5W7UE9CHX9GZANGWNG47LTUR4XMB,72,1547803388968,"{""rt"": 2816, ""trial_type"": ""face-likert-amanda"", ""debug_mode"": ""live"", ""task_type"": ""face trials"", ""responses"": ""{\""Q0\"":3}"", ""task_payment"": 0.5, ""task_version"": 1, ""internal_node_id"": ""0.0-7.0-0.0-5.0"", ""time_elapsed"": 400012, ""imgName"": ""/static/images/celeba_gt_crop/attractive/083021.jpg"", ""questions"": ""[{\""prompt\"":\""<p>How attractive does this person look? Rate from 1-9</p>\"",\""labels\"":[\""1 <br/>Not attractive at all\"",\""2\"",\""3\"",\""4\"",\""5\"",\""6\"",\""7\"",\""8\"",\""9  <br/>Extremely attractive\""],\""required\"":true}]"", ""task_unique_trial"": 100, ""task_name"": ""attractive-gt"", ""trial_index"": 72, ""isRepeat"": 0}"
A2JBCLJVJ2VXVZ:3C5W7UE9CHX9GZANGWNG47LTUR4XMB,73,1547803393589,"{""rt"": 4617, ""trial_type"": ""face-likert-amanda"", ""debug_mode"": ""live"", ""task_type"": ""face trials"", ""responses"": ""{\""Q0\"":4}"", ""task_payment"": 0.5, ""task_version"": 1, ""internal_node_id"": ""0.0-7.0-0.0-6.0"", ""time_elapsed"": 404633, ""imgName"": ""/static/images/celeba_gt_crop/attractive/039990.jpg"", ""questions"": ""[{\""prompt\"":\""<p>How attractive does this person look? Rate from 1-9</p>\"",\""labels\"":[\""1 <br/>Not attractive at all\"",\""2\"",\""3\"",\""4\"",\""5\"",\""6\"",\""7\"",\""8\"",\""9  <br/>Extremely attractive\""],\""required\"":true}]"", ""task_unique_trial"": 100, ""task_name"": ""attractive-gt"", ""trial_index"": 73, ""isRepeat"": 0}"
A2JBCLJVJ2VXVZ:3C5W7UE9CHX9GZANGWNG47LTUR4XMB,74,1547803396388,"{""rt"": 2796, ""trial_type"": ""face-likert-amanda"", ""debug_mode"": ""live"", ""task_type"": ""face trials"", ""responses"": ""{\""Q0\"":5}"", ""task_payment"": 0.5, ""task_version"": 1, ""internal_node_id"": ""0.0-7.0-0.0-7.0"", ""time_elapsed"": 407432, ""imgName"": ""/static/images/celeba_gt_crop/attractive/120726.jpg"", ""questions"": ""[{\""prompt\"":\""<p>How attractive does this person look? Rate from 1-9</p>\"",\""labels\"":[\""1 <br/>Not attractive at all\"",\""2\"",\""3\"",\""4\"",\""5\"",\""6\"",\""7\"",\""8\"",\""9  <br/>Extremely attractive\""],\""required\"":true}]"", ""task_unique_trial"": 100, ""task_name"": ""attractive-gt"", ""trial_index"": 74, ""isRepeat"": 0}"
A2JBCLJVJ2VXVZ:3C5W7UE9CHX9GZANGWNG47LTUR4XMB,75,1547803399157,"{""rt"": 2766, ""trial_type"": ""face-likert-amanda"", ""debug_mode"": ""live"", ""task_type"": ""face trials"", ""responses"": ""{\""Q0\"":3}"", ""task_payment"": 0.5, ""task_version"": 1, ""internal_node_id"": ""0.0-7.0-0.0-8.0"", ""time_elapsed"": 410201, ""imgName"": ""/static/images/celeba_gt_crop/attractive/057518.jpg"", ""questions"": ""[{\""prompt\"":\""<p>How attractive does this person look? Rate from 1-9</p>\"",\""labels\"":[\""1 <br/>Not attractive at all\"",\""2\"",\""3\"",\""4\"",\""5\"",\""6\"",\""7\"",\""8\"",\""9  <br/>Extremely attractive\""],\""required\"":true}]"", ""task_unique_trial"": 100, ""task_name"": ""attractive-gt"", ""trial_index"": 75, ""isRepeat"": 0}"
A2JBCLJVJ2VXVZ:3C5W7UE9CHX9GZANGWNG47LTUR4XMB,76,1547803405659,"{""rt"": 6499, ""trial_type"": ""face-likert-amanda"", ""debug_mode"": ""live"", ""task_type"": ""face trials"", ""responses"": ""{\""Q0\"":6}"", ""task_payment"": 0.5, ""task_version"": 1, ""internal_node_id"": ""0.0-7.0-0.0-9.0"", ""time_elapsed"": 416703, ""imgName"": ""/static/images/celeba_gt_crop/attractive/156121.jpg"", ""questions"": ""[{\""prompt\"":\""<p>How attractive does this person look? Rate from 1-9</p>\"",\""labels\"":[\""1 <br/>Not attractive at all\"",\""2\"",\""3\"",\""4\"",\""5\"",\""6\"",\""7\"",\""8\"",\""9  <br/>Extremely attractive\""],\""required\"":true}]"", ""task_unique_trial"": 100, ""task_name"": ""attractive-gt"", ""trial_index"": 76, ""isRepeat"": 0}"
A2JBCLJVJ2VXVZ:3C5W7UE9CHX9GZANGWNG47LTUR4XMB,77,1547803407664,"{""rt"": null, ""trial_type"": ""html-keyboard-response"", ""task_unique_trial"": 100, ""stimulus"": ""<p>Good job!</p>"", ""task_version"": 1, ""internal_node_id"": ""0.0-7.0-1.0"", ""task_payment"": 0.5, ""time_elapsed"": 418708, ""debug_mode"": ""live"", ""key_press"": null, ""task_name"": ""attractive-gt"", ""trial_index"": 77}"
A2JBCLJVJ2VXVZ:3C5W7UE9CHX9GZANGWNG47LTUR4XMB,78,1547803411484,"{""rt"": 3816, ""trial_type"": ""face-likert-amanda"", ""debug_mode"": ""live"", ""task_type"": ""face trials"", ""responses"": ""{\""Q0\"":3}"", ""task_payment"": 0.5, ""task_version"": 1, ""internal_node_id"": ""0.0-8.0-0.0-0.0"", ""time_elapsed"": 422528, ""imgName"": ""/static/images/celeba_gt_crop/attractive/112278.jpg"", ""questions"": ""[{\""prompt\"":\""<p>How attractive does this person look? Rate from 1-9</p>\"",\""labels\"":[\""1 <br/>Not attractive at all\"",\""2\"",\""3\"",\""4\"",\""5\"",\""6\"",\""7\"",\""8\"",\""9  <br/>Extremely attractive\""],\""required\"":true}]"", ""task_unique_trial"": 100, ""task_name"": ""attractive-gt"", ""trial_index"": 78, ""isRepeat"": 0}"
A2JBCLJVJ2VXVZ:3C5W7UE9CHX9GZANGWNG47LTUR4XMB,79,1547803416284,"{""rt"": 4797, ""trial_type"": ""face-likert-amanda"", ""debug_mode"": ""live"", ""task_type"": ""face trials"", ""responses"": ""{\""Q0\"":7}"", ""task_payment"": 0.5, ""task_version"": 1, ""internal_node_id"": ""0.0-8.0-0.0-1.0"", ""time_elapsed"": 427328, ""imgName"": ""/static/images/celeba_gt_crop/attractive/014755.jpg"", ""questions"": ""[{\""prompt\"":\""<p>How attractive does this person look? Rate from 1-9</p>\"",\""labels\"":[\""1 <br/>Not attractive at all\"",\""2\"",\""3\"",\""4\"",\""5\"",\""6\"",\""7\"",\""8\"",\""9  <br/>Extremely attractive\""],\""required\"":true}]"", ""task_unique_trial"": 100, ""task_name"": ""attractive-gt"", ""trial_index"": 79, ""isRepeat"": 0}"
A2JBCLJVJ2VXVZ:3C5W7UE9CHX9GZANGWNG47LTUR4XMB,80,1547803418925,"{""rt"": 2639, ""trial_type"": ""face-likert-amanda"", ""debug_mode"": ""live"", ""task_type"": ""face trials"", ""responses"": ""{\""Q0\"":5}"", ""task_payment"": 0.5, ""task_version"": 1, ""internal_node_id"": ""0.0-8.0-0.0-2.0"", ""time_elapsed"": 429969, ""imgName"": ""/static/images/celeba_gt_crop/attractive/086966.jpg"", ""questions"": ""[{\""prompt\"":\""<p>How attractive does this person look? Rate from 1-9</p>\"",\""labels\"":[\""1 <br/>Not attractive at all\"",\""2\"",\""3\"",\""4\"",\""5\"",\""6\"",\""7\"",\""8\"",\""9  <br/>Extremely attractive\""],\""required\"":true}]"", ""task_unique_trial"": 100, ""task_name"": ""attractive-gt"", ""trial_index"": 80, ""isRepeat"": 0}"
A2JBCLJVJ2VXVZ:3C5W7UE9CHX9GZANGWNG47LTUR4XMB,81,1547803423523,"{""rt"": 4595, ""trial_type"": ""face-likert-amanda"", ""debug_mode"": ""live"", ""task_type"": ""face trials"", ""responses"": ""{\""Q0\"":8}"", ""task_payment"": 0.5, ""task_version"": 1, ""internal_node_id"": ""0.0-8.0-0.0-3.0"", ""time_elapsed"": 434567, ""imgName"": ""/static/images/celeba_gt_crop/attractive/188240.jpg"", ""questions"": ""[{\""prompt\"":\""<p>How attractive does this person look? Rate from 1-9</p>\"",\""labels\"":[\""1 <br/>Not attractive at all\"",\""2\"",\""3\"",\""4\"",\""5\"",\""6\"",\""7\"",\""8\"",\""9  <br/>Extremely attractive\""],\""required\"":true}]"", ""task_unique_trial"": 100, ""task_name"": ""attractive-gt"", ""trial_index"": 81, ""isRepeat"": 0}"
A2JBCLJVJ2VXVZ:3C5W7UE9CHX9GZANGWNG47LTUR4XMB,82,1547803426626,"{""rt"": 3101, ""trial_type"": ""face-likert-amanda"", ""debug_mode"": ""live"", ""task_type"": ""face trials"", ""responses"": ""{\""Q0\"":5}"", ""task_payment"": 0.5, ""task_version"": 1, ""internal_node_id"": ""0.0-8.0-0.0-4.0"", ""time_elapsed"": 437670, ""imgName"": ""/static/images/celeba_gt_crop/attractive/164278.jpg"", ""questions"": ""[{\""prompt\"":\""<p>How attractive does this person look? Rate from 1-9</p>\"",\""labels\"":[\""1 <br/>Not attractive at all\"",\""2\"",\""3\"",\""4\"",\""5\"",\""6\"",\""7\"",\""8\"",\""9  <br/>Extremely attractive\""],\""required\"":true}]"", ""task_unique_trial"": 100, ""task_name"": ""attractive-gt"", ""trial_index"": 82, ""isRepeat"": 0}"
A2JBCLJVJ2VXVZ:3C5W7UE9CHX9GZANGWNG47LTUR4XMB,83,1547803429875,"{""rt"": 3246, ""trial_type"": ""face-likert-amanda"", ""debug_mode"": ""live"", ""task_type"": ""face trials"", ""responses"": ""{\""Q0\"":3}"", ""task_payment"": 0.5, ""task_version"": 1, ""internal_node_id"": ""0.0-8.0-0.0-5.0"", ""time_elapsed"": 440919, ""imgName"": ""/static/images/celeba_gt_crop/attractive/047217.jpg"", ""questions"": ""[{\""prompt\"":\""<p>How attractive does this person look? Rate from 1-9</p>\"",\""labels\"":[\""1 <br/>Not attractive at all\"",\""2\"",\""3\"",\""4\"",\""5\"",\""6\"",\""7\"",\""8\"",\""9  <br/>Extremely attractive\""],\""required\"":true}]"", ""task_unique_trial"": 100, ""task_name"": ""attractive-gt"", ""trial_index"": 83, ""isRepeat"": 0}"
A2JBCLJVJ2VXVZ:3C5W7UE9CHX9GZANGWNG47LTUR4XMB,84,1547803433741,"{""rt"": 3832, ""trial_type"": ""face-likert-amanda"", ""debug_mode"": ""live"", ""task_type"": ""face trials"", ""responses"": ""{\""Q0\"":8}"", ""task_payment"": 0.5, ""task_version"": 1, ""internal_node_id"": ""0.0-8.0-0.0-6.0"", ""time_elapsed"": 444785, ""imgName"": ""/static/images/celeba_gt_crop/attractive/033997.jpg"", ""questions"": ""[{\""prompt\"":\""<p>How attractive does this person look? Rate from 1-9</p>\"",\""labels\"":[\""1 <br/>Not attractive at all\"",\""2\"",\""3\"",\""4\"",\""5\"",\""6\"",\""7\"",\""8\"",\""9  <br/>Extremely attractive\""],\""required\"":true}]"", ""task_unique_trial"": 100, ""task_name"": ""attractive-gt"", ""trial_index"": 84, ""isRepeat"": 0}"
A2JBCLJVJ2VXVZ:3C5W7UE9CHX9GZANGWNG47LTUR4XMB,85,1547803437402,"{""rt"": 3657, ""trial_type"": ""face-likert-amanda"", ""debug_mode"": ""live"", ""task_type"": ""face trials"", ""responses"": ""{\""Q0\"":7}"", ""task_payment"": 0.5, ""task_version"": 1, ""internal_node_id"": ""0.0-8.0-0.0-7.0"", ""time_elapsed"": 448446, ""imgName"": ""/static/images/celeba_gt_crop/attractive/119380.jpg"", ""questions"": ""[{\""prompt\"":\""<p>How attractive does this person look? Rate from 1-9</p>\"",\""labels\"":[\""1 <br/>Not attractive at all\"",\""2\"",\""3\"",\""4\"",\""5\"",\""6\"",\""7\"",\""8\"",\""9  <br/>Extremely attractive\""],\""required\"":true}]"", ""task_unique_trial"": 100, ""task_name"": ""attractive-gt"", ""trial_index"": 85, ""isRepeat"": 0}"
A2JBCLJVJ2VXVZ:3C5W7UE9CHX9GZANGWNG47LTUR4XMB,86,1547803441954,"{""rt"": 4549, ""trial_type"": ""face-likert-amanda"", ""debug_mode"": ""live"", ""task_type"": ""face trials"", ""responses"": ""{\""Q0\"":7}"", ""task_payment"": 0.5, ""task_version"": 1, ""internal_node_id"": ""0.0-8.0-0.0-8.0"", ""time_elapsed"": 452998, ""imgName"": ""/static/images/celeba_gt_crop/attractive/160622.jpg"", ""questions"": ""[{\""prompt\"":\""<p>How attractive does this person look? Rate from 1-9</p>\"",\""labels\"":[\""1 <br/>Not attractive at all\"",\""2\"",\""3\"",\""4\"",\""5\"",\""6\"",\""7\"",\""8\"",\""9  <br/>Extremely attractive\""],\""required\"":true}]"", ""task_unique_trial"": 100, ""task_name"": ""attractive-gt"", ""trial_index"": 86, ""isRepeat"": 0}"
A2JBCLJVJ2VXVZ:3C5W7UE9CHX9GZANGWNG47LTUR4XMB,87,1547803447055,"{""rt"": 5099, ""trial_type"": ""face-likert-amanda"", ""debug_mode"": ""live"", ""task_type"": ""face trials"", ""responses"": ""{\""Q0\"":8}"", ""task_payment"": 0.5, ""task_version"": 1, ""internal_node_id"": ""0.0-8.0-0.0-9.0"", ""time_elapsed"": 458099, ""imgName"": ""/static/images/celeba_gt_crop/attractive/067760.jpg"", ""questions"": ""[{\""prompt\"":\""<p>How attractive does this person look? Rate from 1-9</p>\"",\""labels\"":[\""1 <br/>Not attractive at all\"",\""2\"",\""3\"",\""4\"",\""5\"",\""6\"",\""7\"",\""8\"",\""9  <br/>Extremely attractive\""],\""required\"":true}]"", ""task_unique_trial"": 100, ""task_name"": ""attractive-gt"", ""trial_index"": 87, ""isRepeat"": 0}"
A2JBCLJVJ2VXVZ:3C5W7UE9CHX9GZANGWNG47LTUR4XMB,88,1547803448058,"{""rt"": null, ""trial_type"": ""html-keyboard-response"", ""task_unique_trial"": 100, ""stimulus"": ""<p>Good job!</p>"", ""task_version"": 1, ""internal_node_id"": ""0.0-8.0-1.0"", ""task_payment"": 0.5, ""time_elapsed"": 459102, ""debug_mode"": ""live"", ""key_press"": null, ""task_name"": ""attractive-gt"", ""trial_index"": 88}"
A2JBCLJVJ2VXVZ:3C5W7UE9CHX9GZANGWNG47LTUR4XMB,89,1547803451572,"{""rt"": 3511, ""trial_type"": ""face-likert-amanda"", ""debug_mode"": ""live"", ""task_type"": ""face trials"", ""responses"": ""{\""Q0\"":3}"", ""task_payment"": 0.5, ""task_version"": 1, ""internal_node_id"": ""0.0-9.0-0.0-0.0"", ""time_elapsed"": 462616, ""imgName"": ""/static/images/celeba_gt_crop/attractive/030000.jpg"", ""questions"": ""[{\""prompt\"":\""<p>How attractive does this person look? Rate from 1-9</p>\"",\""labels\"":[\""1 <br/>Not attractive at all\"",\""2\"",\""3\"",\""4\"",\""5\"",\""6\"",\""7\"",\""8\"",\""9  <br/>Extremely attractive\""],\""required\"":true}]"", ""task_unique_trial"": 100, ""task_name"": ""attractive-gt"", ""trial_index"": 89, ""isRepeat"": 0}"
A2JBCLJVJ2VXVZ:3C5W7UE9CHX9GZANGWNG47LTUR4XMB,90,1547803455879,"{""rt"": 4305, ""trial_type"": ""face-likert-amanda"", ""debug_mode"": ""live"", ""task_type"": ""face trials"", ""responses"": ""{\""Q0\"":4}"", ""task_payment"": 0.5, ""task_version"": 1, ""internal_node_id"": ""0.0-9.0-0.0-1.0"", ""time_elapsed"": 466923, ""imgName"": ""/static/images/celeba_gt_crop/attractive/163887.jpg"", ""questions"": ""[{\""prompt\"":\""<p>How attractive does this person look? Rate from 1-9</p>\"",\""labels\"":[\""1 <br/>Not attractive at all\"",\""2\"",\""3\"",\""4\"",\""5\"",\""6\"",\""7\"",\""8\"",\""9  <br/>Extremely attractive\""],\""required\"":true}]"", ""task_unique_trial"": 100, ""task_name"": ""attractive-gt"", ""trial_index"": 90, ""isRepeat"": 0}"
A2JBCLJVJ2VXVZ:3C5W7UE9CHX9GZANGWNG47LTUR4XMB,91,1547803459131,"{""rt"": 3248, ""trial_type"": ""face-likert-amanda"", ""debug_mode"": ""live"", ""task_type"": ""face trials"", ""responses"": ""{\""Q0\"":5}"", ""task_payment"": 0.5, ""task_version"": 1, ""internal_node_id"": ""0.0-9.0-0.0-2.0"", ""time_elapsed"": 470175, ""imgName"": ""/static/images/celeba_gt_crop/attractive/115851.jpg"", ""questions"": ""[{\""prompt\"":\""<p>How attractive does this person look? Rate from 1-9</p>\"",\""labels\"":[\""1 <br/>Not attractive at all\"",\""2\"",\""3\"",\""4\"",\""5\"",\""6\"",\""7\"",\""8\"",\""9  <br/>Extremely attractive\""],\""required\"":true}]"", ""task_unique_trial"": 100, ""task_name"": ""attractive-gt"", ""trial_index"": 91, ""isRepeat"": 0}"
A2JBCLJVJ2VXVZ:3C5W7UE9CHX9GZANGWNG47LTUR4XMB,92,1547803462443,"{""rt"": 3309, ""trial_type"": ""face-likert-amanda"", ""debug_mode"": ""live"", ""task_type"": ""face trials"", ""responses"": ""{\""Q0\"":8}"", ""task_payment"": 0.5, ""task_version"": 1, ""internal_node_id"": ""0.0-9.0-0.0-3.0"", ""time_elapsed"": 473487, ""imgName"": ""/static/images/celeba_gt_crop/attractive/111185.jpg"", ""questions"": ""[{\""prompt\"":\""<p>How attractive does this person look? Rate from 1-9</p>\"",\""labels\"":[\""1 <br/>Not attractive at all\"",\""2\"",\""3\"",\""4\"",\""5\"",\""6\"",\""7\"",\""8\"",\""9  <br/>Extremely attractive\""],\""required\"":true}]"", ""task_unique_trial"": 100, ""task_name"": ""attractive-gt"", ""trial_index"": 92, ""isRepeat"": 0}"
A2JBCLJVJ2VXVZ:3C5W7UE9CHX9GZANGWNG47LTUR4XMB,93,1547803466082,"{""rt"": 3635, ""trial_type"": ""face-likert-amanda"", ""debug_mode"": ""live"", ""task_type"": ""face trials"", ""responses"": ""{\""Q0\"":5}"", ""task_payment"": 0.5, ""task_version"": 1, ""internal_node_id"": ""0.0-9.0-0.0-4.0"", ""time_elapsed"": 477126, ""imgName"": ""/static/images/celeba_gt_crop/attractive/077912.jpg"", ""questions"": ""[{\""prompt\"":\""<p>How attractive does this person look? Rate from 1-9</p>\"",\""labels\"":[\""1 <br/>Not attractive at all\"",\""2\"",\""3\"",\""4\"",\""5\"",\""6\"",\""7\"",\""8\"",\""9  <br/>Extremely attractive\""],\""required\"":true}]"", ""task_unique_trial"": 100, ""task_name"": ""attractive-gt"", ""trial_index"": 93, ""isRepeat"": 0}"
A2JBCLJVJ2VXVZ:3C5W7UE9CHX9GZANGWNG47LTUR4XMB,94,1547803469210,"{""rt"": 3124, ""trial_type"": ""face-likert-amanda"", ""debug_mode"": ""live"", ""task_type"": ""face trials"", ""responses"": ""{\""Q0\"":8}"", ""task_payment"": 0.5, ""task_version"": 1, ""internal_node_id"": ""0.0-9.0-0.0-5.0"", ""time_elapsed"": 480254, ""imgName"": ""/static/images/celeba_gt_crop/attractive/111185.jpg"", ""questions"": ""[{\""prompt\"":\""<p>How attractive does this person look? Rate from 1-9</p>\"",\""labels\"":[\""1 <br/>Not attractive at all\"",\""2\"",\""3\"",\""4\"",\""5\"",\""6\"",\""7\"",\""8\"",\""9  <br/>Extremely attractive\""],\""required\"":true}]"", ""task_unique_trial"": 100, ""task_name"": ""attractive-gt"", ""trial_index"": 94, ""isRepeat"": 0}"
A2JBCLJVJ2VXVZ:3C5W7UE9CHX9GZANGWNG47LTUR4XMB,95,1547803474682,"{""rt"": 5469, ""trial_type"": ""face-likert-amanda"", ""debug_mode"": ""live"", ""task_type"": ""face trials"", ""responses"": ""{\""Q0\"":8}"", ""task_payment"": 0.5, ""task_version"": 1, ""internal_node_id"": ""0.0-9.0-0.0-6.0"", ""time_elapsed"": 485726, ""imgName"": ""/static/images/celeba_gt_crop/attractive/070844.jpg"", ""questions"": ""[{\""prompt\"":\""<p>How attractive does this person look? Rate from 1-9</p>\"",\""labels\"":[\""1 <br/>Not attractive at all\"",\""2\"",\""3\"",\""4\"",\""5\"",\""6\"",\""7\"",\""8\"",\""9  <br/>Extremely attractive\""],\""required\"":true}]"", ""task_unique_trial"": 100, ""task_name"": ""attractive-gt"", ""trial_index"": 95, ""isRepeat"": 0}"
A2JBCLJVJ2VXVZ:3C5W7UE9CHX9GZANGWNG47LTUR4XMB,96,1547803478447,"{""rt"": 3761, ""trial_type"": ""face-likert-amanda"", ""debug_mode"": ""live"", ""task_type"": ""face trials"", ""responses"": ""{\""Q0\"":6}"", ""task_payment"": 0.5, ""task_version"": 1, ""internal_node_id"": ""0.0-9.0-0.0-7.0"", ""time_elapsed"": 489490, ""imgName"": ""/static/images/celeba_gt_crop/attractive/084296.jpg"", ""questions"": ""[{\""prompt\"":\""<p>How attractive does this person look? Rate from 1-9</p>\"",\""labels\"":[\""1 <br/>Not attractive at all\"",\""2\"",\""3\"",\""4\"",\""5\"",\""6\"",\""7\"",\""8\"",\""9  <br/>Extremely attractive\""],\""required\"":true}]"", ""task_unique_trial"": 100, ""task_name"": ""attractive-gt"", ""trial_index"": 96, ""isRepeat"": 0}"
A2JBCLJVJ2VXVZ:3C5W7UE9CHX9GZANGWNG47LTUR4XMB,97,1547803482234,"{""rt"": 3785, ""trial_type"": ""face-likert-amanda"", ""debug_mode"": ""live"", ""task_type"": ""face trials"", ""responses"": ""{\""Q0\"":8}"", ""task_payment"": 0.5, ""task_version"": 1, ""internal_node_id"": ""0.0-9.0-0.0-8.0"", ""time_elapsed"": 493278, ""imgName"": ""/static/images/celeba_gt_crop/attractive/035508.jpg"", ""questions"": ""[{\""prompt\"":\""<p>How attractive does this person look? Rate from 1-9</p>\"",\""labels\"":[\""1 <br/>Not attractive at all\"",\""2\"",\""3\"",\""4\"",\""5\"",\""6\"",\""7\"",\""8\"",\""9  <br/>Extremely attractive\""],\""required\"":true}]"", ""task_unique_trial"": 100, ""task_name"": ""attractive-gt"", ""trial_index"": 97, ""isRepeat"": 0}"
A2JBCLJVJ2VXVZ:3C5W7UE9CHX9GZANGWNG47LTUR4XMB,98,1547803485491,"{""rt"": 3253, ""trial_type"": ""face-likert-amanda"", ""debug_mode"": ""live"", ""task_type"": ""face trials"", ""responses"": ""{\""Q0\"":6}"", ""task_payment"": 0.5, ""task_version"": 1, ""internal_node_id"": ""0.0-9.0-0.0-9.0"", ""time_elapsed"": 496535, ""imgName"": ""/static/images/celeba_gt_crop/attractive/118166.jpg"", ""questions"": ""[{\""prompt\"":\""<p>How attractive does this person look? Rate from 1-9</p>\"",\""labels\"":[\""1 <br/>Not attractive at all\"",\""2\"",\""3\"",\""4\"",\""5\"",\""6\"",\""7\"",\""8\"",\""9  <br/>Extremely attractive\""],\""required\"":true}]"", ""task_unique_trial"": 100, ""task_name"": ""attractive-gt"", ""trial_index"": 98, ""isRepeat"": 0}"
A2JBCLJVJ2VXVZ:3C5W7UE9CHX9GZANGWNG47LTUR4XMB,99,1547803486993,"{""rt"": null, ""trial_type"": ""html-keyboard-response"", ""task_unique_trial"": 100, ""stimulus"": ""<p>Good job!</p>"", ""task_version"": 1, ""internal_node_id"": ""0.0-9.0-1.0"", ""task_payment"": 0.5, ""time_elapsed"": 498037, ""debug_mode"": ""live"", ""key_press"": null, ""task_name"": ""attractive-gt"", ""trial_index"": 99}"
A2JBCLJVJ2VXVZ:3C5W7UE9CHX9GZANGWNG47LTUR4XMB,100,1547803489994,"{""rt"": 2999, ""trial_type"": ""face-likert-amanda"", ""debug_mode"": ""live"", ""task_type"": ""face trials"", ""responses"": ""{\""Q0\"":3}"", ""task_payment"": 0.5, ""task_version"": 1, ""internal_node_id"": ""0.0-10.0-0.0-0.0"", ""time_elapsed"": 501038, ""imgName"": ""/static/images/celeba_gt_crop/attractive/089364.jpg"", ""questions"": ""[{\""prompt\"":\""<p>How attractive does this person look? Rate from 1-9</p>\"",\""labels\"":[\""1 <br/>Not attractive at all\"",\""2\"",\""3\"",\""4\"",\""5\"",\""6\"",\""7\"",\""8\"",\""9  <br/>Extremely attractive\""],\""required\"":true}]"", ""task_unique_trial"": 100, ""task_name"": ""attractive-gt"", ""trial_index"": 100, ""isRepeat"": 0}"
A2JBCLJVJ2VXVZ:3C5W7UE9CHX9GZANGWNG47LTUR4XMB,101,1547803493163,"{""rt"": 3165, ""trial_type"": ""face-likert-amanda"", ""debug_mode"": ""live"", ""task_type"": ""face trials"", ""responses"": ""{\""Q0\"":2}"", ""task_payment"": 0.5, ""task_version"": 1, ""internal_node_id"": ""0.0-10.0-0.0-1.0"", ""time_elapsed"": 504207, ""imgName"": ""/static/images/celeba_gt_crop/attractive/004868.jpg"", ""questions"": ""[{\""prompt\"":\""<p>How attractive does this person look? Rate from 1-9</p>\"",\""labels\"":[\""1 <br/>Not attractive at all\"",\""2\"",\""3\"",\""4\"",\""5\"",\""6\"",\""7\"",\""8\"",\""9  <br/>Extremely attractive\""],\""required\"":true}]"", ""task_unique_trial"": 100, ""task_name"": ""attractive-gt"", ""trial_index"": 101, ""isRepeat"": 0}"
A2JBCLJVJ2VXVZ:3C5W7UE9CHX9GZANGWNG47LTUR4XMB,102,1547803496793,"{""rt"": 3627, ""trial_type"": ""face-likert-amanda"", ""debug_mode"": ""live"", ""task_type"": ""face trials"", ""responses"": ""{\""Q0\"":8}"", ""task_payment"": 0.5, ""task_version"": 1, ""internal_node_id"": ""0.0-10.0-0.0-2.0"", ""time_elapsed"": 507837, ""imgName"": ""/static/images/celeba_gt_crop/attractive/035508.jpg"", ""questions"": ""[{\""prompt\"":\""<p>How attractive does this person look? Rate from 1-9</p>\"",\""labels\"":[\""1 <br/>Not attractive at all\"",\""2\"",\""3\"",\""4\"",\""5\"",\""6\"",\""7\"",\""8\"",\""9  <br/>Extremely attractive\""],\""required\"":true}]"", ""task_unique_trial"": 100, ""task_name"": ""attractive-gt"", ""trial_index"": 102, ""isRepeat"": 0}"
A2JBCLJVJ2VXVZ:3C5W7UE9CHX9GZANGWNG47LTUR4XMB,103,1547803502443,"{""rt"": 5646, ""trial_type"": ""face-likert-amanda"", ""debug_mode"": ""live"", ""task_type"": ""face trials"", ""responses"": ""{\""Q0\"":6}"", ""task_payment"": 0.5, ""task_version"": 1, ""internal_node_id"": ""0.0-10.0-0.0-3.0"", ""time_elapsed"": 513487, ""imgName"": ""/static/images/celeba_gt_crop/attractive/104401.jpg"", ""questions"": ""[{\""prompt\"":\""<p>How attractive does this person look? Rate from 1-9</p>\"",\""labels\"":[\""1 <br/>Not attractive at all\"",\""2\"",\""3\"",\""4\"",\""5\"",\""6\"",\""7\"",\""8\"",\""9  <br/>Extremely attractive\""],\""required\"":true}]"", ""task_unique_trial"": 100, ""task_name"": ""attractive-gt"", ""trial_index"": 103, ""isRepeat"": 0}"
A2JBCLJVJ2VXVZ:3C5W7UE9CHX9GZANGWNG47LTUR4XMB,104,1547803505523,"{""rt"": 3073, ""trial_type"": ""face-likert-amanda"", ""debug_mode"": ""live"", ""task_type"": ""face trials"", ""responses"": ""{\""Q0\"":8}"", ""task_payment"": 0.5, ""task_version"": 1, ""internal_node_id"": ""0.0-10.0-0.0-4.0"", ""time_elapsed"": 516566, ""imgName"": ""/static/images/celeba_gt_crop/attractive/035590.jpg"", ""questions"": ""[{\""prompt\"":\""<p>How attractive does this person look? Rate from 1-9</p>\"",\""labels\"":[\""1 <br/>Not attractive at all\"",\""2\"",\""3\"",\""4\"",\""5\"",\""6\"",\""7\"",\""8\"",\""9  <br/>Extremely attractive\""],\""required\"":true}]"", ""task_unique_trial"": 100, ""task_name"": ""attractive-gt"", ""trial_index"": 104, ""isRepeat"": 0}"
A2JBCLJVJ2VXVZ:3C5W7UE9CHX9GZANGWNG47LTUR4XMB,105,1547803513875,"{""rt"": 8349, ""trial_type"": ""face-likert-amanda"", ""debug_mode"": ""live"", ""task_type"": ""face trials"", ""responses"": ""{\""Q0\"":4}"", ""task_payment"": 0.5, ""task_version"": 1, ""internal_node_id"": ""0.0-10.0-0.0-5.0"", ""time_elapsed"": 524919, ""imgName"": ""/static/images/celeba_gt_crop/attractive/011510.jpg"", ""questions"": ""[{\""prompt\"":\""<p>How attractive does this person look? Rate from 1-9</p>\"",\""labels\"":[\""1 <br/>Not attractive at all\"",\""2\"",\""3\"",\""4\"",\""5\"",\""6\"",\""7\"",\""8\"",\""9  <br/>Extremely attractive\""],\""required\"":true}]"", ""task_unique_trial"": 100, ""task_name"": ""attractive-gt"", ""trial_index"": 105, ""isRepeat"": 0}"
A2JBCLJVJ2VXVZ:3C5W7UE9CHX9GZANGWNG47LTUR4XMB,106,1547803517090,"{""rt"": 3211, ""trial_type"": ""face-likert-amanda"", ""debug_mode"": ""live"", ""task_type"": ""face trials"", ""responses"": ""{\""Q0\"":8}"", ""task_payment"": 0.5, ""task_version"": 1, ""internal_node_id"": ""0.0-10.0-0.0-6.0"", ""time_elapsed"": 528134, ""imgName"": ""/static/images/celeba_gt_crop/attractive/128002.jpg"", ""questions"": ""[{\""prompt\"":\""<p>How attractive does this person look? Rate from 1-9</p>\"",\""labels\"":[\""1 <br/>Not attractive at all\"",\""2\"",\""3\"",\""4\"",\""5\"",\""6\"",\""7\"",\""8\"",\""9  <br/>Extremely attractive\""],\""required\"":true}]"", ""task_unique_trial"": 100, ""task_name"": ""attractive-gt"", ""trial_index"": 106, ""isRepeat"": 0}"
A2JBCLJVJ2VXVZ:3C5W7UE9CHX9GZANGWNG47LTUR4XMB,107,1547803520770,"{""rt"": 3676, ""trial_type"": ""face-likert-amanda"", ""debug_mode"": ""live"", ""task_type"": ""face trials"", ""responses"": ""{\""Q0\"":5}"", ""task_payment"": 0.5, ""task_version"": 1, ""internal_node_id"": ""0.0-10.0-0.0-7.0"", ""time_elapsed"": 531814, ""imgName"": ""/static/images/celeba_gt_crop/attractive/050455.jpg"", ""questions"": ""[{\""prompt\"":\""<p>How attractive does this person look? Rate from 1-9</p>\"",\""labels\"":[\""1 <br/>Not attractive at all\"",\""2\"",\""3\"",\""4\"",\""5\"",\""6\"",\""7\"",\""8\"",\""9  <br/>Extremely attractive\""],\""required\"":true}]"", ""task_unique_trial"": 100, ""task_name"": ""attractive-gt"", ""trial_index"": 107, ""isRepeat"": 0}"
A2JBCLJVJ2VXVZ:3C5W7UE9CHX9GZANGWNG47LTUR4XMB,108,1547803524779,"{""rt"": 4006, ""trial_type"": ""face-likert-amanda"", ""debug_mode"": ""live"", ""task_type"": ""face trials"", ""responses"": ""{\""Q0\"":5}"", ""task_payment"": 0.5, ""task_version"": 1, ""internal_node_id"": ""0.0-10.0-0.0-8.0"", ""time_elapsed"": 535823, ""imgName"": ""/static/images/celeba_gt_crop/attractive/054267.jpg"", ""questions"": ""[{\""prompt\"":\""<p>How attractive does this person look? Rate from 1-9</p>\"",\""labels\"":[\""1 <br/>Not attractive at all\"",\""2\"",\""3\"",\""4\"",\""5\"",\""6\"",\""7\"",\""8\"",\""9  <br/>Extremely attractive\""],\""required\"":true}]"", ""task_unique_trial"": 100, ""task_name"": ""attractive-gt"", ""trial_index"": 108, ""isRepeat"": 0}"
A2JBCLJVJ2VXVZ:3C5W7UE9CHX9GZANGWNG47LTUR4XMB,109,1547803527724,"{""rt"": 2941, ""trial_type"": ""face-likert-amanda"", ""debug_mode"": ""live"", ""task_type"": ""face trials"", ""responses"": ""{\""Q0\"":7}"", ""task_payment"": 0.5, ""task_version"": 1, ""internal_node_id"": ""0.0-10.0-0.0-9.0"", ""time_elapsed"": 538768, ""imgName"": ""/static/images/celeba_gt_crop/attractive/160622.jpg"", ""questions"": ""[{\""prompt\"":\""<p>How attractive does this person look? Rate from 1-9</p>\"",\""labels\"":[\""1 <br/>Not attractive at all\"",\""2\"",\""3\"",\""4\"",\""5\"",\""6\"",\""7\"",\""8\"",\""9  <br/>Extremely attractive\""],\""required\"":true}]"", ""task_unique_trial"": 100, ""task_name"": ""attractive-gt"", ""trial_index"": 109, ""isRepeat"": 0}"
A2JBCLJVJ2VXVZ:3C5W7UE9CHX9GZANGWNG47LTUR4XMB,110,1547803529726,"{""rt"": null, ""trial_type"": ""html-keyboard-response"", ""task_unique_trial"": 100, ""stimulus"": ""<p>Good job!</p>"", ""task_version"": 1, ""internal_node_id"": ""0.0-10.0-1.0"", ""task_payment"": 0.5, ""time_elapsed"": 540770, ""debug_mode"": ""live"", ""key_press"": null, ""task_name"": ""attractive-gt"", ""trial_index"": 110}"
A2JBCLJVJ2VXVZ:3C5W7UE9CHX9GZANGWNG47LTUR4XMB,111,1547803569136,"{""rt"": 39343, ""trial_type"": ""survey-multi-choice"", ""task_type"": ""demographic-multichoice"", ""responses"": ""{\""Q0\"":\""26-35\"",\""Q1\"":\""Male\"",\""Q2\"":\""No\"",\""Q3\"":\""1\"",\""Q4\"":\""White\"",\""Q5\"":\""Bachelor&#8217;s degree (e.g. BA, BS)\"",\""Q6\"":\""$20,000 - $34,999\""}"", ""task_payment"": 0.5, ""task_version"": 1, ""time_elapsed"": 580179, ""sanity_check_1_continue"": true, ""random_num"": 1, ""debug_mode"": ""live"", ""questions"": ""[{\""prompt\"":\""What is your age?\"",\""options\"":[\""Under 18\"",\""18-25\"",\""26-35\"",\""36-45\"",\""46-55\"",\""56+\""],\""required\"":true},{\""prompt\"":\""What is your gender?\"",\""options\"":[\""Male\"",\""Female\"",\""Other/Prefer not to say\""],\""required\"":true},{\""prompt\"":\""Are you of Hispanic, Latino, or Spanish origin?\"",\""options\"":[\""Yes\"",\""No\""],\""required\"":true},{\""prompt\"":\""Please choose the option that match the number here: 1\"",\""options\"":[\""1\"",\""2\"",\""3\"",\""4\""],\""required\"":true},{\""prompt\"":\""How would you describe yourself?\"",\""options\"":[\""American Indian or Alaskan Native\"",\""Asian\"",\""Black or African-American\"",\""Native Hawaiian or Other Pacific Islander\"",\""White\""],\""required\"":true},{\""prompt\"":\""What is the highest degree or level of school you have completed? (If you&#8217;re currently enrolled in school, please indicate the highest degree you have received)\"",\""options\"":[\""Less than a high school diploma\"",\""High school degree or equivalent (e.g. GED)\"",\""Some college, no degree\"",\""Associate degree (e.g. AA, AS)\"",\""Bachelor&#8217;s degree (e.g. BA, BS)\"",\""Professional or post-baccalauriate degree\""],\""required\"":true},{\""prompt\"":\""What is the total income of all members of your household?\"",\""options\"":[\""Less than $20,000\"",\""$20,000 - $34,999\"",\""$35,000 - $49,999\"",\""$50,000 - $74,999\"",\""$75,000 - $99,999\"",\""Over $100,000\""],\""required\"":true}]"", ""internal_node_id"": ""0.0-11.0-0.0"", ""task_unique_trial"": 100, ""task_name"": ""attractive-gt"", ""trial_index"": 111}"
A2JBCLJVJ2VXVZ:3C5W7UE9CHX9GZANGWNG47LTUR4XMB,112,1547803615702,"{""rt"": 46548, ""trial_type"": ""survey-text-req"", ""task_type"": ""demographics_location"", ""responses"": ""{\""Q0\"":\""NV\"",\""Q1\"":\""Reno\"",\""Q2\"":\""89506\""}"", ""task_payment"": 0.5, ""task_version"": 1, ""internal_node_id"": ""0.0-12.0"", ""time_elapsed"": 626746, ""debug_mode"": ""live"", ""task_name"": ""attractive-gt"", ""task_unique_trial"": 100, ""trial_index"": 112}"
A2C7TMRC2QHTIW:30H4UDGLT4P47Q8WU5DZAUZQSSVPMF,0,1547803025417,"{""rt"": 11075, ""trial_type"": ""instructions"", ""view_history"": ""[{\""page_index\"":0,\""viewing_time\"":3170},{\""page_index\"":1,\""viewing_time\"":5741},{\""page_index\"":2,\""viewing_time\"":2163}]"", ""task_type"": ""instruction"", ""task_payment"": 0.5, ""task_version"": 1, ""internal_node_id"": ""0.0-0.0"", ""time_elapsed"": 11096, ""debug_mode"": ""live"", ""task_name"": ""attractive-gt"", ""task_unique_trial"": 100, ""trial_index"": 0}"
A2C7TMRC2QHTIW:30H4UDGLT4P47Q8WU5DZAUZQSSVPMF,1,1547803030038,"{""rt"": 4620, ""trial_type"": ""face-likert-amanda"", ""debug_mode"": ""live"", ""task_type"": ""face trials"", ""responses"": ""{\""Q0\"":8}"", ""task_payment"": 0.5, ""task_version"": 1, ""internal_node_id"": ""0.0-1.0-0.0-0.0"", ""time_elapsed"": 15717, ""imgName"": ""/static/images/celeba_gt_crop/attractive/119380.jpg"", ""questions"": ""[{\""prompt\"":\""<p>How attractive does this person look? Rate from 1-9</p>\"",\""labels\"":[\""1 <br/>Not attractive at all\"",\""2\"",\""3\"",\""4\"",\""5\"",\""6\"",\""7\"",\""8\"",\""9  <br/>Extremely attractive\""],\""required\"":true}]"", ""task_unique_trial"": 100, ""task_name"": ""attractive-gt"", ""trial_index"": 1, ""isRepeat"": 0}"
A2C7TMRC2QHTIW:30H4UDGLT4P47Q8WU5DZAUZQSSVPMF,2,1547803032222,"{""rt"": 2180, ""trial_type"": ""face-likert-amanda"", ""debug_mode"": ""live"", ""task_type"": ""face trials"", ""responses"": ""{\""Q0\"":7}"", ""task_payment"": 0.5, ""task_version"": 1, ""internal_node_id"": ""0.0-1.0-0.0-1.0"", ""time_elapsed"": 17901, ""imgName"": ""/static/images/celeba_gt_crop/attractive/200021.jpg"", ""questions"": ""[{\""prompt\"":\""<p>How attractive does this person look? Rate from 1-9</p>\"",\""labels\"":[\""1 <br/>Not attractive at all\"",\""2\"",\""3\"",\""4\"",\""5\"",\""6\"",\""7\"",\""8\"",\""9  <br/>Extremely attractive\""],\""required\"":true}]"", ""task_unique_trial"": 100, ""task_name"": ""attractive-gt"", ""trial_index"": 2, ""isRepeat"": 0}"
A2C7TMRC2QHTIW:30H4UDGLT4P47Q8WU5DZAUZQSSVPMF,3,1547803034159,"{""rt"": 1932, ""trial_type"": ""face-likert-amanda"", ""debug_mode"": ""live"", ""task_type"": ""face trials"", ""responses"": ""{\""Q0\"":3}"", ""task_payment"": 0.5, ""task_version"": 1, ""internal_node_id"": ""0.0-1.0-0.0-2.0"", ""time_elapsed"": 19838, ""imgName"": ""/static/images/celeba_gt_crop/attractive/047217.jpg"", ""questions"": ""[{\""prompt\"":\""<p>How attractive does this person look? Rate from 1-9</p>\"",\""labels\"":[\""1 <br/>Not attractive at all\"",\""2\"",\""3\"",\""4\"",\""5\"",\""6\"",\""7\"",\""8\"",\""9  <br/>Extremely attractive\""],\""required\"":true}]"", ""task_unique_trial"": 100, ""task_name"": ""attractive-gt"", ""trial_index"": 3, ""isRepeat"": 0}"
A2C7TMRC2QHTIW:30H4UDGLT4P47Q8WU5DZAUZQSSVPMF,4,1547803035758,"{""rt"": 1594, ""trial_type"": ""face-likert-amanda"", ""debug_mode"": ""live"", ""task_type"": ""face trials"", ""responses"": ""{\""Q0\"":2}"", ""task_payment"": 0.5, ""task_version"": 1, ""internal_node_id"": ""0.0-1.0-0.0-3.0"", ""time_elapsed"": 21437, ""imgName"": ""/static/images/celeba_gt_crop/attractive/161526.jpg"", ""questions"": ""[{\""prompt\"":\""<p>How attractive does this person look? Rate from 1-9</p>\"",\""labels\"":[\""1 <br/>Not attractive at all\"",\""2\"",\""3\"",\""4\"",\""5\"",\""6\"",\""7\"",\""8\"",\""9  <br/>Extremely attractive\""],\""required\"":true}]"", ""task_unique_trial"": 100, ""task_name"": ""attractive-gt"", ""trial_index"": 4, ""isRepeat"": 0}"
A2C7TMRC2QHTIW:30H4UDGLT4P47Q8WU5DZAUZQSSVPMF,5,1547803037718,"{""rt"": 1956, ""trial_type"": ""face-likert-amanda"", ""debug_mode"": ""live"", ""task_type"": ""face trials"", ""responses"": ""{\""Q0\"":4}"", ""task_payment"": 0.5, ""task_version"": 1, ""internal_node_id"": ""0.0-1.0-0.0-4.0"", ""time_elapsed"": 23397, ""imgName"": ""/static/images/celeba_gt_crop/attractive/120726.jpg"", ""questions"": ""[{\""prompt\"":\""<p>How attractive does this person look? Rate from 1-9</p>\"",\""labels\"":[\""1 <br/>Not attractive at all\"",\""2\"",\""3\"",\""4\"",\""5\"",\""6\"",\""7\"",\""8\"",\""9  <br/>Extremely attractive\""],\""required\"":true}]"", ""task_unique_trial"": 100, ""task_name"": ""attractive-gt"", ""trial_index"": 5, ""isRepeat"": 0}"
A2C7TMRC2QHTIW:30H4UDGLT4P47Q8WU5DZAUZQSSVPMF,6,1547803039414,"{""rt"": 1692, ""trial_type"": ""face-likert-amanda"", ""debug_mode"": ""live"", ""task_type"": ""face trials"", ""responses"": ""{\""Q0\"":2}"", ""task_payment"": 0.5, ""task_version"": 1, ""internal_node_id"": ""0.0-1.0-0.0-5.0"", ""time_elapsed"": 25093, ""imgName"": ""/static/images/celeba_gt_crop/attractive/039990.jpg"", ""questions"": ""[{\""prompt\"":\""<p>How attractive does this person look? Rate from 1-9</p>\"",\""labels\"":[\""1 <br/>Not attractive at all\"",\""2\"",\""3\"",\""4\"",\""5\"",\""6\"",\""7\"",\""8\"",\""9  <br/>Extremely attractive\""],\""required\"":true}]"", ""task_unique_trial"": 100, ""task_name"": ""attractive-gt"", ""trial_index"": 6, ""isRepeat"": 0}"
A2C7TMRC2QHTIW:30H4UDGLT4P47Q8WU5DZAUZQSSVPMF,7,1547803041416,"{""rt"": 1997, ""trial_type"": ""face-likert-amanda"", ""debug_mode"": ""live"", ""task_type"": ""face trials"", ""responses"": ""{\""Q0\"":7}"", ""task_payment"": 0.5, ""task_version"": 1, ""internal_node_id"": ""0.0-1.0-0.0-6.0"", ""time_elapsed"": 27095, ""imgName"": ""/static/images/celeba_gt_crop/attractive/096767.jpg"", ""questions"": ""[{\""prompt\"":\""<p>How attractive does this person look? Rate from 1-9</p>\"",\""labels\"":[\""1 <br/>Not attractive at all\"",\""2\"",\""3\"",\""4\"",\""5\"",\""6\"",\""7\"",\""8\"",\""9  <br/>Extremely attractive\""],\""required\"":true}]"", ""task_unique_trial"": 100, ""task_name"": ""attractive-gt"", ""trial_index"": 7, ""isRepeat"": 0}"
A2C7TMRC2QHTIW:30H4UDGLT4P47Q8WU5DZAUZQSSVPMF,8,1547803043183,"{""rt"": 1763, ""trial_type"": ""face-likert-amanda"", ""debug_mode"": ""live"", ""task_type"": ""face trials"", ""responses"": ""{\""Q0\"":2}"", ""task_payment"": 0.5, ""task_version"": 1, ""internal_node_id"": ""0.0-1.0-0.0-7.0"", ""time_elapsed"": 28862, ""imgName"": ""/static/images/celeba_gt_crop/attractive/039990.jpg"", ""questions"": ""[{\""prompt\"":\""<p>How attractive does this person look? Rate from 1-9</p>\"",\""labels\"":[\""1 <br/>Not attractive at all\"",\""2\"",\""3\"",\""4\"",\""5\"",\""6\"",\""7\"",\""8\"",\""9  <br/>Extremely attractive\""],\""required\"":true}]"", ""task_unique_trial"": 100, ""task_name"": ""attractive-gt"", ""trial_index"": 8, ""isRepeat"": 0}"
A2C7TMRC2QHTIW:30H4UDGLT4P47Q8WU5DZAUZQSSVPMF,9,1547803044879,"{""rt"": 1690, ""trial_type"": ""face-likert-amanda"", ""debug_mode"": ""live"", ""task_type"": ""face trials"", ""responses"": ""{\""Q0\"":8}"", ""task_payment"": 0.5, ""task_version"": 1, ""internal_node_id"": ""0.0-1.0-0.0-8.0"", ""time_elapsed"": 30558, ""imgName"": ""/static/images/celeba_gt_crop/attractive/067792.jpg"", ""questions"": ""[{\""prompt\"":\""<p>How attractive does this person look? Rate from 1-9</p>\"",\""labels\"":[\""1 <br/>Not attractive at all\"",\""2\"",\""3\"",\""4\"",\""5\"",\""6\"",\""7\"",\""8\"",\""9  <br/>Extremely attractive\""],\""required\"":true}]"", ""task_unique_trial"": 100, ""task_name"": ""attractive-gt"", ""trial_index"": 9, ""isRepeat"": 0}"
A2C7TMRC2QHTIW:30H4UDGLT4P47Q8WU5DZAUZQSSVPMF,10,1547803046616,"{""rt"": 1731, ""trial_type"": ""face-likert-amanda"", ""debug_mode"": ""live"", ""task_type"": ""face trials"", ""responses"": ""{\""Q0\"":8}"", ""task_payment"": 0.5, ""task_version"": 1, ""internal_node_id"": ""0.0-1.0-0.0-9.0"", ""time_elapsed"": 32294, ""imgName"": ""/static/images/celeba_gt_crop/attractive/128002.jpg"", ""questions"": ""[{\""prompt\"":\""<p>How attractive does this person look? Rate from 1-9</p>\"",\""labels\"":[\""1 <br/>Not attractive at all\"",\""2\"",\""3\"",\""4\"",\""5\"",\""6\"",\""7\"",\""8\"",\""9  <br/>Extremely attractive\""],\""required\"":true}]"", ""task_unique_trial"": 100, ""task_name"": ""attractive-gt"", ""trial_index"": 10, ""isRepeat"": 0}"
A2C7TMRC2QHTIW:30H4UDGLT4P47Q8WU5DZAUZQSSVPMF,11,1547803047623,"{""rt"": null, ""trial_type"": ""html-keyboard-response"", ""task_unique_trial"": 100, ""stimulus"": ""<p>Good job!</p>"", ""task_version"": 1, ""internal_node_id"": ""0.0-1.0-1.0"", ""task_payment"": 0.5, ""time_elapsed"": 33301, ""debug_mode"": ""live"", ""key_press"": null, ""task_name"": ""attractive-gt"", ""trial_index"": 11}"
A2C7TMRC2QHTIW:30H4UDGLT4P47Q8WU5DZAUZQSSVPMF,12,1547803048911,"{""rt"": 1287, ""trial_type"": ""face-likert-amanda"", ""debug_mode"": ""live"", ""task_type"": ""face trials"", ""responses"": ""{\""Q0\"":8}"", ""task_payment"": 0.5, ""task_version"": 1, ""internal_node_id"": ""0.0-2.0-0.0-0.0"", ""time_elapsed"": 34590, ""imgName"": ""/static/images/celeba_gt_crop/attractive/033997.jpg"", ""questions"": ""[{\""prompt\"":\""<p>How attractive does this person look? Rate from 1-9</p>\"",\""labels\"":[\""1 <br/>Not attractive at all\"",\""2\"",\""3\"",\""4\"",\""5\"",\""6\"",\""7\"",\""8\"",\""9  <br/>Extremely attractive\""],\""required\"":true}]"", ""task_unique_trial"": 100, ""task_name"": ""attractive-gt"", ""trial_index"": 12, ""isRepeat"": 0}"
A2C7TMRC2QHTIW:30H4UDGLT4P47Q8WU5DZAUZQSSVPMF,13,1547803050943,"{""rt"": 2028, ""trial_type"": ""face-likert-amanda"", ""debug_mode"": ""live"", ""task_type"": ""face trials"", ""responses"": ""{\""Q0\"":7}"", ""task_payment"": 0.5, ""task_version"": 1, ""internal_node_id"": ""0.0-2.0-0.0-1.0"", ""time_elapsed"": 36622, ""imgName"": ""/static/images/celeba_gt_crop/attractive/031206.jpg"", ""questions"": ""[{\""prompt\"":\""<p>How attractive does this person look? Rate from 1-9</p>\"",\""labels\"":[\""1 <br/>Not attractive at all\"",\""2\"",\""3\"",\""4\"",\""5\"",\""6\"",\""7\"",\""8\"",\""9  <br/>Extremely attractive\""],\""required\"":true}]"", ""task_unique_trial"": 100, ""task_name"": ""attractive-gt"", ""trial_index"": 13, ""isRepeat"": 0}"
A2C7TMRC2QHTIW:30H4UDGLT4P47Q8WU5DZAUZQSSVPMF,14,1547803052759,"{""rt"": 1811, ""trial_type"": ""face-likert-amanda"", ""debug_mode"": ""live"", ""task_type"": ""face trials"", ""responses"": ""{\""Q0\"":4}"", ""task_payment"": 0.5, ""task_version"": 1, ""internal_node_id"": ""0.0-2.0-0.0-2.0"", ""time_elapsed"": 38438, ""imgName"": ""/static/images/celeba_gt_crop/attractive/054267.jpg"", ""questions"": ""[{\""prompt\"":\""<p>How attractive does this person look? Rate from 1-9</p>\"",\""labels\"":[\""1 <br/>Not attractive at all\"",\""2\"",\""3\"",\""4\"",\""5\"",\""6\"",\""7\"",\""8\"",\""9  <br/>Extremely attractive\""],\""required\"":true}]"", ""task_unique_trial"": 100, ""task_name"": ""attractive-gt"", ""trial_index"": 14, ""isRepeat"": 0}"
A2C7TMRC2QHTIW:30H4UDGLT4P47Q8WU5DZAUZQSSVPMF,15,1547803054383,"{""rt"": 1619, ""trial_type"": ""face-likert-amanda"", ""debug_mode"": ""live"", ""task_type"": ""face trials"", ""responses"": ""{\""Q0\"":8}"", ""task_payment"": 0.5, ""task_version"": 1, ""internal_node_id"": ""0.0-2.0-0.0-3.0"", ""time_elapsed"": 40062, ""imgName"": ""/static/images/celeba_gt_crop/attractive/035590.jpg"", ""questions"": ""[{\""prompt\"":\""<p>How attractive does this person look? Rate from 1-9</p>\"",\""labels\"":[\""1 <br/>Not attractive at all\"",\""2\"",\""3\"",\""4\"",\""5\"",\""6\"",\""7\"",\""8\"",\""9  <br/>Extremely attractive\""],\""required\"":true}]"", ""task_unique_trial"": 100, ""task_name"": ""attractive-gt"", ""trial_index"": 15, ""isRepeat"": 0}"
A2C7TMRC2QHTIW:30H4UDGLT4P47Q8WU5DZAUZQSSVPMF,16,1547803058481,"{""rt"": 4093, ""trial_type"": ""face-likert-amanda"", ""debug_mode"": ""live"", ""task_type"": ""face trials"", ""responses"": ""{\""Q0\"":8}"", ""task_payment"": 0.5, ""task_version"": 1, ""internal_node_id"": ""0.0-2.0-0.0-4.0"", ""time_elapsed"": 44160, ""imgName"": ""/static/images/celeba_gt_crop/attractive/082102.jpg"", ""questions"": ""[{\""prompt\"":\""<p>How attractive does this person look? Rate from 1-9</p>\"",\""labels\"":[\""1 <br/>Not attractive at all\"",\""2\"",\""3\"",\""4\"",\""5\"",\""6\"",\""7\"",\""8\"",\""9  <br/>Extremely attractive\""],\""required\"":true}]"", ""task_unique_trial"": 100, ""task_name"": ""attractive-gt"", ""trial_index"": 16, ""isRepeat"": 0}"
A2C7TMRC2QHTIW:30H4UDGLT4P47Q8WU5DZAUZQSSVPMF,17,1547803060879,"{""rt"": 2393, ""trial_type"": ""face-likert-amanda"", ""debug_mode"": ""live"", ""task_type"": ""face trials"", ""responses"": ""{\""Q0\"":0}"", ""task_payment"": 0.5, ""task_version"": 1, ""internal_node_id"": ""0.0-2.0-0.0-5.0"", ""time_elapsed"": 46558, ""imgName"": ""/static/images/celeba_gt_crop/attractive/012925.jpg"", ""questions"": ""[{\""prompt\"":\""<p>How attractive does this person look? Rate from 1-9</p>\"",\""labels\"":[\""1 <br/>Not attractive at all\"",\""2\"",\""3\"",\""4\"",\""5\"",\""6\"",\""7\"",\""8\"",\""9  <br/>Extremely attractive\""],\""required\"":true}]"", ""task_unique_trial"": 100, ""task_name"": ""attractive-gt"", ""trial_index"": 17, ""isRepeat"": 0}"
A2C7TMRC2QHTIW:30H4UDGLT4P47Q8WU5DZAUZQSSVPMF,18,1547803062655,"{""rt"": 1771, ""trial_type"": ""face-likert-amanda"", ""debug_mode"": ""live"", ""task_type"": ""face trials"", ""responses"": ""{\""Q0\"":8}"", ""task_payment"": 0.5, ""task_version"": 1, ""internal_node_id"": ""0.0-2.0-0.0-6.0"", ""time_elapsed"": 48334, ""imgName"": ""/static/images/celeba_gt_crop/attractive/118166.jpg"", ""questions"": ""[{\""prompt\"":\""<p>How attractive does this person look? Rate from 1-9</p>\"",\""labels\"":[\""1 <br/>Not attractive at all\"",\""2\"",\""3\"",\""4\"",\""5\"",\""6\"",\""7\"",\""8\"",\""9  <br/>Extremely attractive\""],\""required\"":true}]"", ""task_unique_trial"": 100, ""task_name"": ""attractive-gt"", ""trial_index"": 18, ""isRepeat"": 0}"
A2C7TMRC2QHTIW:30H4UDGLT4P47Q8WU5DZAUZQSSVPMF,19,1547803064151,"{""rt"": 1491, ""trial_type"": ""face-likert-amanda"", ""debug_mode"": ""live"", ""task_type"": ""face trials"", ""responses"": ""{\""Q0\"":8}"", ""task_payment"": 0.5, ""task_version"": 1, ""internal_node_id"": ""0.0-2.0-0.0-7.0"", ""time_elapsed"": 49829, ""imgName"": ""/static/images/celeba_gt_crop/attractive/153098.jpg"", ""questions"": ""[{\""prompt\"":\""<p>How attractive does this person look? Rate from 1-9</p>\"",\""labels\"":[\""1 <br/>Not attractive at all\"",\""2\"",\""3\"",\""4\"",\""5\"",\""6\"",\""7\"",\""8\"",\""9  <br/>Extremely attractive\""],\""required\"":true}]"", ""task_unique_trial"": 100, ""task_name"": ""attractive-gt"", ""trial_index"": 19, ""isRepeat"": 0}"
A2C7TMRC2QHTIW:30H4UDGLT4P47Q8WU5DZAUZQSSVPMF,20,1547803065871,"{""rt"": 1716, ""trial_type"": ""face-likert-amanda"", ""debug_mode"": ""live"", ""task_type"": ""face trials"", ""responses"": ""{\""Q0\"":8}"", ""task_payment"": 0.5, ""task_version"": 1, ""internal_node_id"": ""0.0-2.0-0.0-8.0"", ""time_elapsed"": 51550, ""imgName"": ""/static/images/celeba_gt_crop/attractive/117478.jpg"", ""questions"": ""[{\""prompt\"":\""<p>How attractive does this person look? Rate from 1-9</p>\"",\""labels\"":[\""1 <br/>Not attractive at all\"",\""2\"",\""3\"",\""4\"",\""5\"",\""6\"",\""7\"",\""8\"",\""9  <br/>Extremely attractive\""],\""required\"":true}]"", ""task_unique_trial"": 100, ""task_name"": ""attractive-gt"", ""trial_index"": 20, ""isRepeat"": 0}"
A2C7TMRC2QHTIW:30H4UDGLT4P47Q8WU5DZAUZQSSVPMF,21,1547803067903,"{""rt"": 2027, ""trial_type"": ""face-likert-amanda"", ""debug_mode"": ""live"", ""task_type"": ""face trials"", ""responses"": ""{\""Q0\"":6}"", ""task_payment"": 0.5, ""task_version"": 1, ""internal_node_id"": ""0.0-2.0-0.0-9.0"", ""time_elapsed"": 53582, ""imgName"": ""/static/images/celeba_gt_crop/attractive/017238.jpg"", ""questions"": ""[{\""prompt\"":\""<p>How attractive does this person look? Rate from 1-9</p>\"",\""labels\"":[\""1 <br/>Not attractive at all\"",\""2\"",\""3\"",\""4\"",\""5\"",\""6\"",\""7\"",\""8\"",\""9  <br/>Extremely attractive\""],\""required\"":true}]"", ""task_unique_trial"": 100, ""task_name"": ""attractive-gt"", ""trial_index"": 21, ""isRepeat"": 0}"
A2C7TMRC2QHTIW:30H4UDGLT4P47Q8WU5DZAUZQSSVPMF,22,1547803069410,"{""rt"": null, ""trial_type"": ""html-keyboard-response"", ""task_unique_trial"": 100, ""stimulus"": ""<p>Good job!</p>"", ""task_version"": 1, ""internal_node_id"": ""0.0-2.0-1.0"", ""task_payment"": 0.5, ""time_elapsed"": 55089, ""debug_mode"": ""live"", ""key_press"": null, ""task_name"": ""attractive-gt"", ""trial_index"": 22}"
