ABL3H3O3BI8ZD:3IUZPWIU1QEZ1B5ULFEENBFIX08WKE,0,1548040223650,"{""rt"": 20203, ""trial_type"": ""instructions"", ""view_history"": ""[{\""page_index\"":0,\""viewing_time\"":18036},{\""page_index\"":1,\""viewing_time\"":1337},{\""page_index\"":2,\""viewing_time\"":830}]"", ""task_type"": ""instruction"", ""task_payment"": 1, ""task_version"": 1, ""internal_node_id"": ""0.0-0.0"", ""time_elapsed"": 20208, ""debug_mode"": ""live"", ""task_name"": ""aggressive-modifae-single"", ""task_unique_trial"": 100, ""trial_index"": 0}"
ABL3H3O3BI8ZD:3IUZPWIU1QEZ1B5ULFEENBFIX08WKE,1,1548040252211,"{""rt"": 28551, ""trial_type"": ""survey-multi-choice"", ""task_type"": ""demographic-multichoice"", ""responses"": ""{\""Q0\"":\""26-35\"",\""Q1\"":\""Male\"",\""Q2\"":\""No\"",\""Q3\"":\""1\"",\""Q4\"":\""White\"",\""Q5\"":\""Bachelor&#8217;s degree (e.g. BA, BS) or above\"",\""Q6\"":\""$50,000 - $74,999\""}"", ""task_payment"": 1, ""task_version"": 1, ""time_elapsed"": 48770, ""sanity_check_1_continue"": true, ""random_num"": 1, ""debug_mode"": ""live"", ""questions"": ""[{\""prompt\"":\""What is your age?\"",\""options\"":[\""Under 18\"",\""18-25\"",\""26-35\"",\""36-45\"",\""46-55\"",\""56+\""],\""required\"":true},{\""prompt\"":\""What is your gender?\"",\""options\"":[\""Male\"",\""Female\"",\""Other/Prefer not to say\""],\""required\"":true},{\""prompt\"":\""Are you of Hispanic, Latino, or Spanish origin?\"",\""options\"":[\""Yes\"",\""No\""],\""required\"":true},{\""prompt\"":\""Please choose the option that matches the number here: 1\"",\""options\"":[\""1\"",\""2\"",\""3\"",\""4\""],\""required\"":true},{\""prompt\"":\""How would you describe yourself?\"",\""options\"":[\""American Indian or Alaskan Native\"",\""Asian\"",\""Black or African-American\"",\""Native Hawaiian or Other Pacific Islander\"",\""White\""],\""required\"":true},{\""prompt\"":\""What is the highest degree or level of school you have completed? (If you&#8217;re currently enrolled in school, please indicate the highest degree you have received)\"",\""options\"":[\""Less than a high school diploma\"",\""High school degree or equivalent (e.g. GED)\"",\""Some college, no degree\"",\""Associate degree (e.g. AA, AS)\"",\""Bachelor&#8217;s degree (e.g. BA, BS) or above\""],\""required\"":true},{\""prompt\"":\""What is the total income of all members of your household?\"",\""options\"":[\""Less than $20,000\"",\""$20,000  - $49,999\"",\""$50,000 - $74,999\"",\""$75,000 and above\""],\""required\"":true}]"", ""internal_node_id"": ""0.0-1.0-0.0"", ""task_unique_trial"": 100, ""task_name"": ""aggressive-modifae-single"", ""trial_index"": 1}"
ABL3H3O3BI8ZD:3IUZPWIU1QEZ1B5ULFEENBFIX08WKE,2,1548040254710,"{""rt"": 2498, ""trial_type"": ""face-likert-amanda"", ""debug_mode"": ""live"", ""task_type"": ""face trials"", ""responses"": ""{\""Q0\"":5}"", ""task_payment"": 1, ""task_version"": 1, ""internal_node_id"": ""0.0-2.0-0.0-0.0"", ""time_elapsed"": 51269, ""imgName"": ""/static/images/modifAE_linspace/aggressive/136184_-0.5227272727272727.png"", ""questions"": ""[{\""prompt\"":\""<p>How <b>aggressive</b> does this person look to <b>most people</b>? Rate from 1-9</p>\"",\""labels\"":[\""1 <br/><b>Not aggressive at all</b>\"",\""2\"",\""3\"",\""4\"",\""5\"",\""6\"",\""7\"",\""8\"",\""9  <br/><b>Extremely aggressive</b>\""],\""required\"":true}]"", ""task_unique_trial"": 100, ""task_name"": ""aggressive-modifae-single"", ""trial_index"": 2, ""isRepeat"": 0}"
ABL3H3O3BI8ZD:3IUZPWIU1QEZ1B5ULFEENBFIX08WKE,3,1548040256108,"{""rt"": 1397, ""trial_type"": ""face-likert-amanda"", ""debug_mode"": ""live"", ""task_type"": ""face trials"", ""responses"": ""{\""Q0\"":4}"", ""task_payment"": 1, ""task_version"": 1, ""internal_node_id"": ""0.0-2.0-0.0-1.0"", ""time_elapsed"": 52667, ""imgName"": ""/static/images/modifAE_linspace/aggressive/136222_0.053030303030303094.png"", ""questions"": ""[{\""prompt\"":\""<p>How <b>aggressive</b> does this person look to <b>most people</b>? Rate from 1-9</p>\"",\""labels\"":[\""1 <br/><b>Not aggressive at all</b>\"",\""2\"",\""3\"",\""4\"",\""5\"",\""6\"",\""7\"",\""8\"",\""9  <br/><b>Extremely aggressive</b>\""],\""required\"":true}]"", ""task_unique_trial"": 100, ""task_name"": ""aggressive-modifae-single"", ""trial_index"": 3, ""isRepeat"": 0}"
ABL3H3O3BI8ZD:3IUZPWIU1QEZ1B5ULFEENBFIX08WKE,4,1548040258569,"{""rt"": 2459, ""trial_type"": ""face-likert-amanda"", ""debug_mode"": ""live"", ""task_type"": ""face trials"", ""responses"": ""{\""Q0\"":3}"", ""task_payment"": 1, ""task_version"": 1, ""internal_node_id"": ""0.0-2.0-0.0-2.0"", ""time_elapsed"": 55128, ""imgName"": ""/static/images/modifAE_linspace/aggressive/136216_-0.037878787878787845.png"", ""questions"": ""[{\""prompt\"":\""<p>How <b>aggressive</b> does this person look to <b>most people</b>? Rate from 1-9</p>\"",\""labels\"":[\""1 <br/><b>Not aggressive at all</b>\"",\""2\"",\""3\"",\""4\"",\""5\"",\""6\"",\""7\"",\""8\"",\""9  <br/><b>Extremely aggressive</b>\""],\""required\"":true}]"", ""task_unique_trial"": 100, ""task_name"": ""aggressive-modifae-single"", ""trial_index"": 4, ""isRepeat"": 0}"
ABL3H3O3BI8ZD:3IUZPWIU1QEZ1B5ULFEENBFIX08WKE,5,1548040259634,"{""rt"": 1065, ""trial_type"": ""face-likert-amanda"", ""debug_mode"": ""live"", ""task_type"": ""face trials"", ""responses"": ""{\""Q0\"":3}"", ""task_payment"": 1, ""task_version"": 1, ""internal_node_id"": ""0.0-2.0-0.0-3.0"", ""time_elapsed"": 56193, ""imgName"": ""/static/images/modifAE_linspace/aggressive/136190_-0.4318181818181818.png"", ""questions"": ""[{\""prompt\"":\""<p>How <b>aggressive</b> does this person look to <b>most people</b>? Rate from 1-9</p>\"",\""labels\"":[\""1 <br/><b>Not aggressive at all</b>\"",\""2\"",\""3\"",\""4\"",\""5\"",\""6\"",\""7\"",\""8\"",\""9  <br/><b>Extremely aggressive</b>\""],\""required\"":true}]"", ""task_unique_trial"": 100, ""task_name"": ""aggressive-modifae-single"", ""trial_index"": 5, ""isRepeat"": 0}"
ABL3H3O3BI8ZD:3IUZPWIU1QEZ1B5ULFEENBFIX08WKE,6,1548040263669,"{""rt"": 4034, ""trial_type"": ""face-likert-amanda"", ""debug_mode"": ""live"", ""task_type"": ""face trials"", ""responses"": ""{\""Q0\"":6}"", ""task_payment"": 1, ""task_version"": 1, ""internal_node_id"": ""0.0-2.0-0.0-4.0"", ""time_elapsed"": 60228, ""imgName"": ""/static/images/modifAE_linspace/aggressive/136172_-0.7045454545454546.png"", ""questions"": ""[{\""prompt\"":\""<p>How <b>aggressive</b> does this person look to <b>most people</b>? Rate from 1-9</p>\"",\""labels\"":[\""1 <br/><b>Not aggressive at all</b>\"",\""2\"",\""3\"",\""4\"",\""5\"",\""6\"",\""7\"",\""8\"",\""9  <br/><b>Extremely aggressive</b>\""],\""required\"":true}]"", ""task_unique_trial"": 100, ""task_name"": ""aggressive-modifae-single"", ""trial_index"": 6, ""isRepeat"": 0}"
ABL3H3O3BI8ZD:3IUZPWIU1QEZ1B5ULFEENBFIX08WKE,7,1548040269893,"{""rt"": 6224, ""trial_type"": ""face-likert-amanda"", ""debug_mode"": ""live"", ""task_type"": ""face trials"", ""responses"": ""{\""Q0\"":5}"", ""task_payment"": 1, ""task_version"": 1, ""internal_node_id"": ""0.0-2.0-0.0-5.0"", ""time_elapsed"": 66452, ""imgName"": ""/static/images/modifAE_linspace/aggressive/136184_-0.5227272727272727.png"", ""questions"": ""[{\""prompt\"":\""<p>How <b>aggressive</b> does this person look to <b>most people</b>? Rate from 1-9</p>\"",\""labels\"":[\""1 <br/><b>Not aggressive at all</b>\"",\""2\"",\""3\"",\""4\"",\""5\"",\""6\"",\""7\"",\""8\"",\""9  <br/><b>Extremely aggressive</b>\""],\""required\"":true}]"", ""task_unique_trial"": 100, ""task_name"": ""aggressive-modifae-single"", ""trial_index"": 7, ""isRepeat"": 0}"
ABL3H3O3BI8ZD:3IUZPWIU1QEZ1B5ULFEENBFIX08WKE,8,1548040271049,"{""rt"": 1155, ""trial_type"": ""face-likert-amanda"", ""debug_mode"": ""live"", ""task_type"": ""face trials"", ""responses"": ""{\""Q0\"":5}"", ""task_payment"": 1, ""task_version"": 1, ""internal_node_id"": ""0.0-2.0-0.0-6.0"", ""time_elapsed"": 67608, ""imgName"": ""/static/images/modifAE_linspace/aggressive/136236_0.26515151515151514.png"", ""questions"": ""[{\""prompt\"":\""<p>How <b>aggressive</b> does this person look to <b>most people</b>? Rate from 1-9</p>\"",\""labels\"":[\""1 <br/><b>Not aggressive at all</b>\"",\""2\"",\""3\"",\""4\"",\""5\"",\""6\"",\""7\"",\""8\"",\""9  <br/><b>Extremely aggressive</b>\""],\""required\"":true}]"", ""task_unique_trial"": 100, ""task_name"": ""aggressive-modifae-single"", ""trial_index"": 8, ""isRepeat"": 0}"
ABL3H3O3BI8ZD:3IUZPWIU1QEZ1B5ULFEENBFIX08WKE,9,1548040272263,"{""rt"": 1214, ""trial_type"": ""face-likert-amanda"", ""debug_mode"": ""live"", ""task_type"": ""face trials"", ""responses"": ""{\""Q0\"":5}"", ""task_payment"": 1, ""task_version"": 1, ""internal_node_id"": ""0.0-2.0-0.0-7.0"", ""time_elapsed"": 68822, ""imgName"": ""/static/images/modifAE_linspace/aggressive/136220_0.022727272727272707.png"", ""questions"": ""[{\""prompt\"":\""<p>How <b>aggressive</b> does this person look to <b>most people</b>? Rate from 1-9</p>\"",\""labels\"":[\""1 <br/><b>Not aggressive at all</b>\"",\""2\"",\""3\"",\""4\"",\""5\"",\""6\"",\""7\"",\""8\"",\""9  <br/><b>Extremely aggressive</b>\""],\""required\"":true}]"", ""task_unique_trial"": 100, ""task_name"": ""aggressive-modifae-single"", ""trial_index"": 9, ""isRepeat"": 0}"
ABL3H3O3BI8ZD:3IUZPWIU1QEZ1B5ULFEENBFIX08WKE,10,1548040273509,"{""rt"": 1244, ""trial_type"": ""face-likert-amanda"", ""debug_mode"": ""live"", ""task_type"": ""face trials"", ""responses"": ""{\""Q0\"":5}"", ""task_payment"": 1, ""task_version"": 1, ""internal_node_id"": ""0.0-2.0-0.0-8.0"", ""time_elapsed"": 70068, ""imgName"": ""/static/images/modifAE_linspace/aggressive/136173_-0.6893939393939394.png"", ""questions"": ""[{\""prompt\"":\""<p>How <b>aggressive</b> does this person look to <b>most people</b>? Rate from 1-9</p>\"",\""labels\"":[\""1 <br/><b>Not aggressive at all</b>\"",\""2\"",\""3\"",\""4\"",\""5\"",\""6\"",\""7\"",\""8\"",\""9  <br/><b>Extremely aggressive</b>\""],\""required\"":true}]"", ""task_unique_trial"": 100, ""task_name"": ""aggressive-modifae-single"", ""trial_index"": 10, ""isRepeat"": 0}"
ABL3H3O3BI8ZD:3IUZPWIU1QEZ1B5ULFEENBFIX08WKE,11,1548040274664,"{""rt"": 1155, ""trial_type"": ""face-likert-amanda"", ""debug_mode"": ""live"", ""task_type"": ""face trials"", ""responses"": ""{\""Q0\"":5}"", ""task_payment"": 1, ""task_version"": 1, ""internal_node_id"": ""0.0-2.0-0.0-9.0"", ""time_elapsed"": 71223, ""imgName"": ""/static/images/modifAE_linspace/aggressive/136267_0.7348484848484849.png"", ""questions"": ""[{\""prompt\"":\""<p>How <b>aggressive</b> does this person look to <b>most people</b>? Rate from 1-9</p>\"",\""labels\"":[\""1 <br/><b>Not aggressive at all</b>\"",\""2\"",\""3\"",\""4\"",\""5\"",\""6\"",\""7\"",\""8\"",\""9  <br/><b>Extremely aggressive</b>\""],\""required\"":true}]"", ""task_unique_trial"": 100, ""task_name"": ""aggressive-modifae-single"", ""trial_index"": 11, ""isRepeat"": 0}"
ABL3H3O3BI8ZD:3IUZPWIU1QEZ1B5ULFEENBFIX08WKE,12,1548040275668,"{""rt"": null, ""trial_type"": ""html-keyboard-response"", ""task_unique_trial"": 100, ""stimulus"": ""<p>Good job!</p>"", ""task_version"": 1, ""internal_node_id"": ""0.0-2.0-1.0"", ""task_payment"": 1, ""time_elapsed"": 72227, ""debug_mode"": ""live"", ""key_press"": null, ""task_name"": ""aggressive-modifae-single"", ""trial_index"": 12}"
ABL3H3O3BI8ZD:3IUZPWIU1QEZ1B5ULFEENBFIX08WKE,13,1548040277019,"{""rt"": 1351, ""trial_type"": ""face-likert-amanda"", ""debug_mode"": ""live"", ""task_type"": ""face trials"", ""responses"": ""{\""Q0\"":5}"", ""task_payment"": 1, ""task_version"": 1, ""internal_node_id"": ""0.0-3.0-0.0-0.0"", ""time_elapsed"": 73578, ""imgName"": ""/static/images/modifAE_linspace/aggressive/136217_-0.022727272727272707.png"", ""questions"": ""[{\""prompt\"":\""<p>How <b>aggressive</b> does this person look to <b>most people</b>? Rate from 1-9</p>\"",\""labels\"":[\""1 <br/><b>Not aggressive at all</b>\"",\""2\"",\""3\"",\""4\"",\""5\"",\""6\"",\""7\"",\""8\"",\""9  <br/><b>Extremely aggressive</b>\""],\""required\"":true}]"", ""task_unique_trial"": 100, ""task_name"": ""aggressive-modifae-single"", ""trial_index"": 13, ""isRepeat"": 0}"
ABL3H3O3BI8ZD:3IUZPWIU1QEZ1B5ULFEENBFIX08WKE,14,1548040278143,"{""rt"": 1123, ""trial_type"": ""face-likert-amanda"", ""debug_mode"": ""live"", ""task_type"": ""face trials"", ""responses"": ""{\""Q0\"":5}"", ""task_payment"": 1, ""task_version"": 1, ""internal_node_id"": ""0.0-3.0-0.0-1.0"", ""time_elapsed"": 74702, ""imgName"": ""/static/images/modifAE_linspace/aggressive/136213_-0.08333333333333326.png"", ""questions"": ""[{\""prompt\"":\""<p>How <b>aggressive</b> does this person look to <b>most people</b>? Rate from 1-9</p>\"",\""labels\"":[\""1 <br/><b>Not aggressive at all</b>\"",\""2\"",\""3\"",\""4\"",\""5\"",\""6\"",\""7\"",\""8\"",\""9  <br/><b>Extremely aggressive</b>\""],\""required\"":true}]"", ""task_unique_trial"": 100, ""task_name"": ""aggressive-modifae-single"", ""trial_index"": 14, ""isRepeat"": 0}"
ABL3H3O3BI8ZD:3IUZPWIU1QEZ1B5ULFEENBFIX08WKE,15,1548040279283,"{""rt"": 1139, ""trial_type"": ""face-likert-amanda"", ""debug_mode"": ""live"", ""task_type"": ""face trials"", ""responses"": ""{\""Q0\"":5}"", ""task_payment"": 1, ""task_version"": 1, ""internal_node_id"": ""0.0-3.0-0.0-2.0"", ""time_elapsed"": 75842, ""imgName"": ""/static/images/modifAE_linspace/aggressive/136218_-0.007575757575757569.png"", ""questions"": ""[{\""prompt\"":\""<p>How <b>aggressive</b> does this person look to <b>most people</b>? Rate from 1-9</p>\"",\""labels\"":[\""1 <br/><b>Not aggressive at all</b>\"",\""2\"",\""3\"",\""4\"",\""5\"",\""6\"",\""7\"",\""8\"",\""9  <br/><b>Extremely aggressive</b>\""],\""required\"":true}]"", ""task_unique_trial"": 100, ""task_name"": ""aggressive-modifae-single"", ""trial_index"": 15, ""isRepeat"": 0}"
ABL3H3O3BI8ZD:3IUZPWIU1QEZ1B5ULFEENBFIX08WKE,16,1548040280529,"{""rt"": 1245, ""trial_type"": ""face-likert-amanda"", ""debug_mode"": ""live"", ""task_type"": ""face trials"", ""responses"": ""{\""Q0\"":5}"", ""task_payment"": 1, ""task_version"": 1, ""internal_node_id"": ""0.0-3.0-0.0-3.0"", ""time_elapsed"": 77088, ""imgName"": ""/static/images/modifAE_linspace/aggressive/136189_-0.44696969696969696.png"", ""questions"": ""[{\""prompt\"":\""<p>How <b>aggressive</b> does this person look to <b>most people</b>? Rate from 1-9</p>\"",\""labels\"":[\""1 <br/><b>Not aggressive at all</b>\"",\""2\"",\""3\"",\""4\"",\""5\"",\""6\"",\""7\"",\""8\"",\""9  <br/><b>Extremely aggressive</b>\""],\""required\"":true}]"", ""task_unique_trial"": 100, ""task_name"": ""aggressive-modifae-single"", ""trial_index"": 16, ""isRepeat"": 0}"
ABL3H3O3BI8ZD:3IUZPWIU1QEZ1B5ULFEENBFIX08WKE,17,1548040285044,"{""rt"": 4514, ""trial_type"": ""face-likert-amanda"", ""debug_mode"": ""live"", ""task_type"": ""face trials"", ""responses"": ""{\""Q0\"":6}"", ""task_payment"": 1, ""task_version"": 1, ""internal_node_id"": ""0.0-3.0-0.0-4.0"", ""time_elapsed"": 81603, ""imgName"": ""/static/images/modifAE_linspace/aggressive/136204_-0.21969696969696972.png"", ""questions"": ""[{\""prompt\"":\""<p>How <b>aggressive</b> does this person look to <b>most people</b>? Rate from 1-9</p>\"",\""labels\"":[\""1 <br/><b>Not aggressive at all</b>\"",\""2\"",\""3\"",\""4\"",\""5\"",\""6\"",\""7\"",\""8\"",\""9  <br/><b>Extremely aggressive</b>\""],\""required\"":true}]"", ""task_unique_trial"": 100, ""task_name"": ""aggressive-modifae-single"", ""trial_index"": 17, ""isRepeat"": 0}"
ABL3H3O3BI8ZD:3IUZPWIU1QEZ1B5ULFEENBFIX08WKE,18,1548040286349,"{""rt"": 1303, ""trial_type"": ""face-likert-amanda"", ""debug_mode"": ""live"", ""task_type"": ""face trials"", ""responses"": ""{\""Q0\"":6}"", ""task_payment"": 1, ""task_version"": 1, ""internal_node_id"": ""0.0-3.0-0.0-5.0"", ""time_elapsed"": 82908, ""imgName"": ""/static/images/modifAE_linspace/aggressive/136265_0.7045454545454546.png"", ""questions"": ""[{\""prompt\"":\""<p>How <b>aggressive</b> does this person look to <b>most people</b>? Rate from 1-9</p>\"",\""labels\"":[\""1 <br/><b>Not aggressive at all</b>\"",\""2\"",\""3\"",\""4\"",\""5\"",\""6\"",\""7\"",\""8\"",\""9  <br/><b>Extremely aggressive</b>\""],\""required\"":true}]"", ""task_unique_trial"": 100, ""task_name"": ""aggressive-modifae-single"", ""trial_index"": 18, ""isRepeat"": 0}"
ABL3H3O3BI8ZD:3IUZPWIU1QEZ1B5ULFEENBFIX08WKE,19,1548040287683,"{""rt"": 1334, ""trial_type"": ""face-likert-amanda"", ""debug_mode"": ""live"", ""task_type"": ""face trials"", ""responses"": ""{\""Q0\"":6}"", ""task_payment"": 1, ""task_version"": 1, ""internal_node_id"": ""0.0-3.0-0.0-6.0"", ""time_elapsed"": 84242, ""imgName"": ""/static/images/modifAE_linspace/aggressive/136267_0.7348484848484849.png"", ""questions"": ""[{\""prompt\"":\""<p>How <b>aggressive</b> does this person look to <b>most people</b>? Rate from 1-9</p>\"",\""labels\"":[\""1 <br/><b>Not aggressive at all</b>\"",\""2\"",\""3\"",\""4\"",\""5\"",\""6\"",\""7\"",\""8\"",\""9  <br/><b>Extremely aggressive</b>\""],\""required\"":true}]"", ""task_unique_trial"": 100, ""task_name"": ""aggressive-modifae-single"", ""trial_index"": 19, ""isRepeat"": 0}"
ABL3H3O3BI8ZD:3IUZPWIU1QEZ1B5ULFEENBFIX08WKE,20,1548040289094,"{""rt"": 1408, ""trial_type"": ""face-likert-amanda"", ""debug_mode"": ""live"", ""task_type"": ""face trials"", ""responses"": ""{\""Q0\"":7}"", ""task_payment"": 1, ""task_version"": 1, ""internal_node_id"": ""0.0-3.0-0.0-7.0"", ""time_elapsed"": 85653, ""imgName"": ""/static/images/modifAE_linspace/aggressive/136204_-0.21969696969696972.png"", ""questions"": ""[{\""prompt\"":\""<p>How <b>aggressive</b> does this person look to <b>most people</b>? Rate from 1-9</p>\"",\""labels\"":[\""1 <br/><b>Not aggressive at all</b>\"",\""2\"",\""3\"",\""4\"",\""5\"",\""6\"",\""7\"",\""8\"",\""9  <br/><b>Extremely aggressive</b>\""],\""required\"":true}]"", ""task_unique_trial"": 100, ""task_name"": ""aggressive-modifae-single"", ""trial_index"": 20, ""isRepeat"": 0}"
ABL3H3O3BI8ZD:3IUZPWIU1QEZ1B5ULFEENBFIX08WKE,21,1548040290249,"{""rt"": 1154, ""trial_type"": ""face-likert-amanda"", ""debug_mode"": ""live"", ""task_type"": ""face trials"", ""responses"": ""{\""Q0\"":7}"", ""task_payment"": 1, ""task_version"": 1, ""internal_node_id"": ""0.0-3.0-0.0-8.0"", ""time_elapsed"": 86808, ""imgName"": ""/static/images/modifAE_linspace/aggressive/136248_0.446969696969697.png"", ""questions"": ""[{\""prompt\"":\""<p>How <b>aggressive</b> does this person look to <b>most people</b>? Rate from 1-9</p>\"",\""labels\"":[\""1 <br/><b>Not aggressive at all</b>\"",\""2\"",\""3\"",\""4\"",\""5\"",\""6\"",\""7\"",\""8\"",\""9  <br/><b>Extremely aggressive</b>\""],\""required\"":true}]"", ""task_unique_trial"": 100, ""task_name"": ""aggressive-modifae-single"", ""trial_index"": 21, ""isRepeat"": 0}"
ABL3H3O3BI8ZD:3IUZPWIU1QEZ1B5ULFEENBFIX08WKE,22,1548040292783,"{""rt"": 2534, ""trial_type"": ""face-likert-amanda"", ""debug_mode"": ""live"", ""task_type"": ""face trials"", ""responses"": ""{\""Q0\"":5}"", ""task_payment"": 1, ""task_version"": 1, ""internal_node_id"": ""0.0-3.0-0.0-9.0"", ""time_elapsed"": 89342, ""imgName"": ""/static/images/modifAE_linspace/aggressive/136212_-0.09848484848484851.png"", ""questions"": ""[{\""prompt\"":\""<p>How <b>aggressive</b> does this person look to <b>most people</b>? Rate from 1-9</p>\"",\""labels\"":[\""1 <br/><b>Not aggressive at all</b>\"",\""2\"",\""3\"",\""4\"",\""5\"",\""6\"",\""7\"",\""8\"",\""9  <br/><b>Extremely aggressive</b>\""],\""required\"":true}]"", ""task_unique_trial"": 100, ""task_name"": ""aggressive-modifae-single"", ""trial_index"": 22, ""isRepeat"": 0}"
ABL3H3O3BI8ZD:3IUZPWIU1QEZ1B5ULFEENBFIX08WKE,23,1548040293787,"{""rt"": null, ""trial_type"": ""html-keyboard-response"", ""task_unique_trial"": 100, ""stimulus"": ""<p>Good job!</p>"", ""task_version"": 1, ""internal_node_id"": ""0.0-3.0-1.0"", ""task_payment"": 1, ""time_elapsed"": 90346, ""debug_mode"": ""live"", ""key_press"": null, ""task_name"": ""aggressive-modifae-single"", ""trial_index"": 23}"
ABL3H3O3BI8ZD:3IUZPWIU1QEZ1B5ULFEENBFIX08WKE,24,1548040295484,"{""rt"": 1696, ""trial_type"": ""face-likert-amanda"", ""debug_mode"": ""live"", ""task_type"": ""face trials"", ""responses"": ""{\""Q0\"":4}"", ""task_payment"": 1, ""task_version"": 1, ""internal_node_id"": ""0.0-4.0-0.0-0.0"", ""time_elapsed"": 92043, ""imgName"": ""/static/images/modifAE_linspace/aggressive/136258_0.5984848484848486.png"", ""questions"": ""[{\""prompt\"":\""<p>How <b>aggressive</b> does this person look to <b>most people</b>? Rate from 1-9</p>\"",\""labels\"":[\""1 <br/><b>Not aggressive at all</b>\"",\""2\"",\""3\"",\""4\"",\""5\"",\""6\"",\""7\"",\""8\"",\""9  <br/><b>Extremely aggressive</b>\""],\""required\"":true}]"", ""task_unique_trial"": 100, ""task_name"": ""aggressive-modifae-single"", ""trial_index"": 24, ""isRepeat"": 0}"
ABL3H3O3BI8ZD:3IUZPWIU1QEZ1B5ULFEENBFIX08WKE,25,1548040296519,"{""rt"": 1034, ""trial_type"": ""face-likert-amanda"", ""debug_mode"": ""live"", ""task_type"": ""face trials"", ""responses"": ""{\""Q0\"":4}"", ""task_payment"": 1, ""task_version"": 1, ""internal_node_id"": ""0.0-4.0-0.0-1.0"", ""time_elapsed"": 93078, ""imgName"": ""/static/images/modifAE_linspace/aggressive/136219_0.007575757575757569.png"", ""questions"": ""[{\""prompt\"":\""<p>How <b>aggressive</b> does this person look to <b>most people</b>? Rate from 1-9</p>\"",\""labels\"":[\""1 <br/><b>Not aggressive at all</b>\"",\""2\"",\""3\"",\""4\"",\""5\"",\""6\"",\""7\"",\""8\"",\""9  <br/><b>Extremely aggressive</b>\""],\""required\"":true}]"", ""task_unique_trial"": 100, ""task_name"": ""aggressive-modifae-single"", ""trial_index"": 25, ""isRepeat"": 0}"
ABL3H3O3BI8ZD:3IUZPWIU1QEZ1B5ULFEENBFIX08WKE,26,1548040297598,"{""rt"": 1078, ""trial_type"": ""face-likert-amanda"", ""debug_mode"": ""live"", ""task_type"": ""face trials"", ""responses"": ""{\""Q0\"":4}"", ""task_payment"": 1, ""task_version"": 1, ""internal_node_id"": ""0.0-4.0-0.0-2.0"", ""time_elapsed"": 94157, ""imgName"": ""/static/images/modifAE_linspace/aggressive/136178_-0.6136363636363636.png"", ""questions"": ""[{\""prompt\"":\""<p>How <b>aggressive</b> does this person look to <b>most people</b>? Rate from 1-9</p>\"",\""labels\"":[\""1 <br/><b>Not aggressive at all</b>\"",\""2\"",\""3\"",\""4\"",\""5\"",\""6\"",\""7\"",\""8\"",\""9  <br/><b>Extremely aggressive</b>\""],\""required\"":true}]"", ""task_unique_trial"": 100, ""task_name"": ""aggressive-modifae-single"", ""trial_index"": 26, ""isRepeat"": 0}"
ABL3H3O3BI8ZD:3IUZPWIU1QEZ1B5ULFEENBFIX08WKE,27,1548040302144,"{""rt"": 4544, ""trial_type"": ""face-likert-amanda"", ""debug_mode"": ""live"", ""task_type"": ""face trials"", ""responses"": ""{\""Q0\"":4}"", ""task_payment"": 1, ""task_version"": 1, ""internal_node_id"": ""0.0-4.0-0.0-3.0"", ""time_elapsed"": 98703, ""imgName"": ""/static/images/modifAE_linspace/aggressive/136226_0.11363636363636365.png"", ""questions"": ""[{\""prompt\"":\""<p>How <b>aggressive</b> does this person look to <b>most people</b>? Rate from 1-9</p>\"",\""labels\"":[\""1 <br/><b>Not aggressive at all</b>\"",\""2\"",\""3\"",\""4\"",\""5\"",\""6\"",\""7\"",\""8\"",\""9  <br/><b>Extremely aggressive</b>\""],\""required\"":true}]"", ""task_unique_trial"": 100, ""task_name"": ""aggressive-modifae-single"", ""trial_index"": 27, ""isRepeat"": 0}"
ABL3H3O3BI8ZD:3IUZPWIU1QEZ1B5ULFEENBFIX08WKE,28,1548040303899,"{""rt"": 1754, ""trial_type"": ""face-likert-amanda"", ""debug_mode"": ""live"", ""task_type"": ""face trials"", ""responses"": ""{\""Q0\"":5}"", ""task_payment"": 1, ""task_version"": 1, ""internal_node_id"": ""0.0-4.0-0.0-4.0"", ""time_elapsed"": 100458, ""imgName"": ""/static/images/modifAE_linspace/aggressive/136245_0.4015151515151516.png"", ""questions"": ""[{\""prompt\"":\""<p>How <b>aggressive</b> does this person look to <b>most people</b>? Rate from 1-9</p>\"",\""labels\"":[\""1 <br/><b>Not aggressive at all</b>\"",\""2\"",\""3\"",\""4\"",\""5\"",\""6\"",\""7\"",\""8\"",\""9  <br/><b>Extremely aggressive</b>\""],\""required\"":true}]"", ""task_unique_trial"": 100, ""task_name"": ""aggressive-modifae-single"", ""trial_index"": 28, ""isRepeat"": 0}"
ABL3H3O3BI8ZD:3IUZPWIU1QEZ1B5ULFEENBFIX08WKE,29,1548040305339,"{""rt"": 1439, ""trial_type"": ""face-likert-amanda"", ""debug_mode"": ""live"", ""task_type"": ""face trials"", ""responses"": ""{\""Q0\"":6}"", ""task_payment"": 1, ""task_version"": 1, ""internal_node_id"": ""0.0-4.0-0.0-5.0"", ""time_elapsed"": 101898, ""imgName"": ""/static/images/modifAE_linspace/aggressive/136245_0.4015151515151516.png"", ""questions"": ""[{\""prompt\"":\""<p>How <b>aggressive</b> does this person look to <b>most people</b>? Rate from 1-9</p>\"",\""labels\"":[\""1 <br/><b>Not aggressive at all</b>\"",\""2\"",\""3\"",\""4\"",\""5\"",\""6\"",\""7\"",\""8\"",\""9  <br/><b>Extremely aggressive</b>\""],\""required\"":true}]"", ""task_unique_trial"": 100, ""task_name"": ""aggressive-modifae-single"", ""trial_index"": 29, ""isRepeat"": 0}"
ABL3H3O3BI8ZD:3IUZPWIU1QEZ1B5ULFEENBFIX08WKE,30,1548040306509,"{""rt"": 1169, ""trial_type"": ""face-likert-amanda"", ""debug_mode"": ""live"", ""task_type"": ""face trials"", ""responses"": ""{\""Q0\"":6}"", ""task_payment"": 1, ""task_version"": 1, ""internal_node_id"": ""0.0-4.0-0.0-6.0"", ""time_elapsed"": 103068, ""imgName"": ""/static/images/modifAE_linspace/aggressive/136225_0.09848484848484851.png"", ""questions"": ""[{\""prompt\"":\""<p>How <b>aggressive</b> does this person look to <b>most people</b>? Rate from 1-9</p>\"",\""labels\"":[\""1 <br/><b>Not aggressive at all</b>\"",\""2\"",\""3\"",\""4\"",\""5\"",\""6\"",\""7\"",\""8\"",\""9  <br/><b>Extremely aggressive</b>\""],\""required\"":true}]"", ""task_unique_trial"": 100, ""task_name"": ""aggressive-modifae-single"", ""trial_index"": 30, ""isRepeat"": 0}"
ABL3H3O3BI8ZD:3IUZPWIU1QEZ1B5ULFEENBFIX08WKE,31,1548040307605,"{""rt"": 1094, ""trial_type"": ""face-likert-amanda"", ""debug_mode"": ""live"", ""task_type"": ""face trials"", ""responses"": ""{\""Q0\"":6}"", ""task_payment"": 1, ""task_version"": 1, ""internal_node_id"": ""0.0-4.0-0.0-7.0"", ""time_elapsed"": 104164, ""imgName"": ""/static/images/modifAE_linspace/aggressive/136236_0.26515151515151514.png"", ""questions"": ""[{\""prompt\"":\""<p>How <b>aggressive</b> does this person look to <b>most people</b>? Rate from 1-9</p>\"",\""labels\"":[\""1 <br/><b>Not aggressive at all</b>\"",\""2\"",\""3\"",\""4\"",\""5\"",\""6\"",\""7\"",\""8\"",\""9  <br/><b>Extremely aggressive</b>\""],\""required\"":true}]"", ""task_unique_trial"": 100, ""task_name"": ""aggressive-modifae-single"", ""trial_index"": 31, ""isRepeat"": 0}"
ABL3H3O3BI8ZD:3IUZPWIU1QEZ1B5ULFEENBFIX08WKE,32,1548040308699,"{""rt"": 1093, ""trial_type"": ""face-likert-amanda"", ""debug_mode"": ""live"", ""task_type"": ""face trials"", ""responses"": ""{\""Q0\"":6}"", ""task_payment"": 1, ""task_version"": 1, ""internal_node_id"": ""0.0-4.0-0.0-8.0"", ""time_elapsed"": 105258, ""imgName"": ""/static/images/modifAE_linspace/aggressive/136230_0.1742424242424243.png"", ""questions"": ""[{\""prompt\"":\""<p>How <b>aggressive</b> does this person look to <b>most people</b>? Rate from 1-9</p>\"",\""labels\"":[\""1 <br/><b>Not aggressive at all</b>\"",\""2\"",\""3\"",\""4\"",\""5\"",\""6\"",\""7\"",\""8\"",\""9  <br/><b>Extremely aggressive</b>\""],\""required\"":true}]"", ""task_unique_trial"": 100, ""task_name"": ""aggressive-modifae-single"", ""trial_index"": 32, ""isRepeat"": 0}"
ABL3H3O3BI8ZD:3IUZPWIU1QEZ1B5ULFEENBFIX08WKE,33,1548040309810,"{""rt"": 1109, ""trial_type"": ""face-likert-amanda"", ""debug_mode"": ""live"", ""task_type"": ""face trials"", ""responses"": ""{\""Q0\"":6}"", ""task_payment"": 1, ""task_version"": 1, ""internal_node_id"": ""0.0-4.0-0.0-9.0"", ""time_elapsed"": 106369, ""imgName"": ""/static/images/modifAE_linspace/aggressive/136205_-0.20454545454545459.png"", ""questions"": ""[{\""prompt\"":\""<p>How <b>aggressive</b> does this person look to <b>most people</b>? Rate from 1-9</p>\"",\""labels\"":[\""1 <br/><b>Not aggressive at all</b>\"",\""2\"",\""3\"",\""4\"",\""5\"",\""6\"",\""7\"",\""8\"",\""9  <br/><b>Extremely aggressive</b>\""],\""required\"":true}]"", ""task_unique_trial"": 100, ""task_name"": ""aggressive-modifae-single"", ""trial_index"": 33, ""isRepeat"": 0}"
ABL3H3O3BI8ZD:3IUZPWIU1QEZ1B5ULFEENBFIX08WKE,34,1548040310812,"{""rt"": null, ""trial_type"": ""html-keyboard-response"", ""task_unique_trial"": 100, ""stimulus"": ""<p>Good job!</p>"", ""task_version"": 1, ""internal_node_id"": ""0.0-4.0-1.0"", ""task_payment"": 1, ""time_elapsed"": 107371, ""debug_mode"": ""live"", ""key_press"": null, ""task_name"": ""aggressive-modifae-single"", ""trial_index"": 34}"
ABL3H3O3BI8ZD:3IUZPWIU1QEZ1B5ULFEENBFIX08WKE,35,1548040311880,"{""rt"": 1066, ""trial_type"": ""face-likert-amanda"", ""debug_mode"": ""live"", ""task_type"": ""face trials"", ""responses"": ""{\""Q0\"":6}"", ""task_payment"": 1, ""task_version"": 1, ""internal_node_id"": ""0.0-5.0-0.0-0.0"", ""time_elapsed"": 108439, ""imgName"": ""/static/images/modifAE_linspace/aggressive/136183_-0.5378787878787878.png"", ""questions"": ""[{\""prompt\"":\""<p>How <b>aggressive</b> does this person look to <b>most people</b>? Rate from 1-9</p>\"",\""labels\"":[\""1 <br/><b>Not aggressive at all</b>\"",\""2\"",\""3\"",\""4\"",\""5\"",\""6\"",\""7\"",\""8\"",\""9  <br/><b>Extremely aggressive</b>\""],\""required\"":true}]"", ""task_unique_trial"": 100, ""task_name"": ""aggressive-modifae-single"", ""trial_index"": 35, ""isRepeat"": 0}"
ABL3H3O3BI8ZD:3IUZPWIU1QEZ1B5ULFEENBFIX08WKE,36,1548040313034,"{""rt"": 1153, ""trial_type"": ""face-likert-amanda"", ""debug_mode"": ""live"", ""task_type"": ""face trials"", ""responses"": ""{\""Q0\"":6}"", ""task_payment"": 1, ""task_version"": 1, ""internal_node_id"": ""0.0-5.0-0.0-1.0"", ""time_elapsed"": 109593, ""imgName"": ""/static/images/modifAE_linspace/aggressive/136176_-0.6439393939393939.png"", ""questions"": ""[{\""prompt\"":\""<p>How <b>aggressive</b> does this person look to <b>most people</b>? Rate from 1-9</p>\"",\""labels\"":[\""1 <br/><b>Not aggressive at all</b>\"",\""2\"",\""3\"",\""4\"",\""5\"",\""6\"",\""7\"",\""8\"",\""9  <br/><b>Extremely aggressive</b>\""],\""required\"":true}]"", ""task_unique_trial"": 100, ""task_name"": ""aggressive-modifae-single"", ""trial_index"": 36, ""isRepeat"": 0}"
ABL3H3O3BI8ZD:3IUZPWIU1QEZ1B5ULFEENBFIX08WKE,37,1548040314325,"{""rt"": 1290, ""trial_type"": ""face-likert-amanda"", ""debug_mode"": ""live"", ""task_type"": ""face trials"", ""responses"": ""{\""Q0\"":6}"", ""task_payment"": 1, ""task_version"": 1, ""internal_node_id"": ""0.0-5.0-0.0-2.0"", ""time_elapsed"": 110884, ""imgName"": ""/static/images/modifAE_linspace/aggressive/136169_-0.75.png"", ""questions"": ""[{\""prompt\"":\""<p>How <b>aggressive</b> does this person look to <b>most people</b>? Rate from 1-9</p>\"",\""labels\"":[\""1 <br/><b>Not aggressive at all</b>\"",\""2\"",\""3\"",\""4\"",\""5\"",\""6\"",\""7\"",\""8\"",\""9  <br/><b>Extremely aggressive</b>\""],\""required\"":true}]"", ""task_unique_trial"": 100, ""task_name"": ""aggressive-modifae-single"", ""trial_index"": 37, ""isRepeat"": 0}"
ABL3H3O3BI8ZD:3IUZPWIU1QEZ1B5ULFEENBFIX08WKE,38,1548040319904,"{""rt"": 5579, ""trial_type"": ""face-likert-amanda"", ""debug_mode"": ""live"", ""task_type"": ""face trials"", ""responses"": ""{\""Q0\"":6}"", ""task_payment"": 1, ""task_version"": 1, ""internal_node_id"": ""0.0-5.0-0.0-3.0"", ""time_elapsed"": 116463, ""imgName"": ""/static/images/modifAE_linspace/aggressive/136215_-0.05303030303030298.png"", ""questions"": ""[{\""prompt\"":\""<p>How <b>aggressive</b> does this person look to <b>most people</b>? Rate from 1-9</p>\"",\""labels\"":[\""1 <br/><b>Not aggressive at all</b>\"",\""2\"",\""3\"",\""4\"",\""5\"",\""6\"",\""7\"",\""8\"",\""9  <br/><b>Extremely aggressive</b>\""],\""required\"":true}]"", ""task_unique_trial"": 100, ""task_name"": ""aggressive-modifae-single"", ""trial_index"": 38, ""isRepeat"": 0}"
ABL3H3O3BI8ZD:3IUZPWIU1QEZ1B5ULFEENBFIX08WKE,39,1548040320939,"{""rt"": 1033, ""trial_type"": ""face-likert-amanda"", ""debug_mode"": ""live"", ""task_type"": ""face trials"", ""responses"": ""{\""Q0\"":6}"", ""task_payment"": 1, ""task_version"": 1, ""internal_node_id"": ""0.0-5.0-0.0-4.0"", ""time_elapsed"": 117498, ""imgName"": ""/static/images/modifAE_linspace/aggressive/136195_-0.3560606060606061.png"", ""questions"": ""[{\""prompt\"":\""<p>How <b>aggressive</b> does this person look to <b>most people</b>? Rate from 1-9</p>\"",\""labels\"":[\""1 <br/><b>Not aggressive at all</b>\"",\""2\"",\""3\"",\""4\"",\""5\"",\""6\"",\""7\"",\""8\"",\""9  <br/><b>Extremely aggressive</b>\""],\""required\"":true}]"", ""task_unique_trial"": 100, ""task_name"": ""aggressive-modifae-single"", ""trial_index"": 39, ""isRepeat"": 0}"
ABL3H3O3BI8ZD:3IUZPWIU1QEZ1B5ULFEENBFIX08WKE,40,1548040322034,"{""rt"": 1094, ""trial_type"": ""face-likert-amanda"", ""debug_mode"": ""live"", ""task_type"": ""face trials"", ""responses"": ""{\""Q0\"":6}"", ""task_payment"": 1, ""task_version"": 1, ""internal_node_id"": ""0.0-5.0-0.0-5.0"", ""time_elapsed"": 118593, ""imgName"": ""/static/images/modifAE_linspace/aggressive/136212_-0.09848484848484851.png"", ""questions"": ""[{\""prompt\"":\""<p>How <b>aggressive</b> does this person look to <b>most people</b>? Rate from 1-9</p>\"",\""labels\"":[\""1 <br/><b>Not aggressive at all</b>\"",\""2\"",\""3\"",\""4\"",\""5\"",\""6\"",\""7\"",\""8\"",\""9  <br/><b>Extremely aggressive</b>\""],\""required\"":true}]"", ""task_unique_trial"": 100, ""task_name"": ""aggressive-modifae-single"", ""trial_index"": 40, ""isRepeat"": 0}"
ABL3H3O3BI8ZD:3IUZPWIU1QEZ1B5ULFEENBFIX08WKE,41,1548040326205,"{""rt"": 4169, ""trial_type"": ""face-likert-amanda"", ""debug_mode"": ""live"", ""task_type"": ""face trials"", ""responses"": ""{\""Q0\"":6}"", ""task_payment"": 1, ""task_version"": 1, ""internal_node_id"": ""0.0-5.0-0.0-6.0"", ""time_elapsed"": 122764, ""imgName"": ""/static/images/modifAE_linspace/aggressive/136256_0.5681818181818181.png"", ""questions"": ""[{\""prompt\"":\""<p>How <b>aggressive</b> does this person look to <b>most people</b>? Rate from 1-9</p>\"",\""labels\"":[\""1 <br/><b>Not aggressive at all</b>\"",\""2\"",\""3\"",\""4\"",\""5\"",\""6\"",\""7\"",\""8\"",\""9  <br/><b>Extremely aggressive</b>\""],\""required\"":true}]"", ""task_unique_trial"": 100, ""task_name"": ""aggressive-modifae-single"", ""trial_index"": 41, ""isRepeat"": 0}"
ABL3H3O3BI8ZD:3IUZPWIU1QEZ1B5ULFEENBFIX08WKE,42,1548040327224,"{""rt"": 1019, ""trial_type"": ""face-likert-amanda"", ""debug_mode"": ""live"", ""task_type"": ""face trials"", ""responses"": ""{\""Q0\"":6}"", ""task_payment"": 1, ""task_version"": 1, ""internal_node_id"": ""0.0-5.0-0.0-7.0"", ""time_elapsed"": 123783, ""imgName"": ""/static/images/modifAE_linspace/aggressive/136207_-0.1742424242424242.png"", ""questions"": ""[{\""prompt\"":\""<p>How <b>aggressive</b> does this person look to <b>most people</b>? Rate from 1-9</p>\"",\""labels\"":[\""1 <br/><b>Not aggressive at all</b>\"",\""2\"",\""3\"",\""4\"",\""5\"",\""6\"",\""7\"",\""8\"",\""9  <br/><b>Extremely aggressive</b>\""],\""required\"":true}]"", ""task_unique_trial"": 100, ""task_name"": ""aggressive-modifae-single"", ""trial_index"": 42, ""isRepeat"": 0}"
ABL3H3O3BI8ZD:3IUZPWIU1QEZ1B5ULFEENBFIX08WKE,43,1548040328364,"{""rt"": 1138, ""trial_type"": ""face-likert-amanda"", ""debug_mode"": ""live"", ""task_type"": ""face trials"", ""responses"": ""{\""Q0\"":6}"", ""task_payment"": 1, ""task_version"": 1, ""internal_node_id"": ""0.0-5.0-0.0-8.0"", ""time_elapsed"": 124923, ""imgName"": ""/static/images/modifAE_linspace/aggressive/136231_0.18939393939393945.png"", ""questions"": ""[{\""prompt\"":\""<p>How <b>aggressive</b> does this person look to <b>most people</b>? Rate from 1-9</p>\"",\""labels\"":[\""1 <br/><b>Not aggressive at all</b>\"",\""2\"",\""3\"",\""4\"",\""5\"",\""6\"",\""7\"",\""8\"",\""9  <br/><b>Extremely aggressive</b>\""],\""required\"":true}]"", ""task_unique_trial"": 100, ""task_name"": ""aggressive-modifae-single"", ""trial_index"": 43, ""isRepeat"": 0}"
ABL3H3O3BI8ZD:3IUZPWIU1QEZ1B5ULFEENBFIX08WKE,44,1548040329609,"{""rt"": 1243, ""trial_type"": ""face-likert-amanda"", ""debug_mode"": ""live"", ""task_type"": ""face trials"", ""responses"": ""{\""Q0\"":6}"", ""task_payment"": 1, ""task_version"": 1, ""internal_node_id"": ""0.0-5.0-0.0-9.0"", ""time_elapsed"": 126168, ""imgName"": ""/static/images/modifAE_linspace/aggressive/136194_-0.3712121212121212.png"", ""questions"": ""[{\""prompt\"":\""<p>How <b>aggressive</b> does this person look to <b>most people</b>? Rate from 1-9</p>\"",\""labels\"":[\""1 <br/><b>Not aggressive at all</b>\"",\""2\"",\""3\"",\""4\"",\""5\"",\""6\"",\""7\"",\""8\"",\""9  <br/><b>Extremely aggressive</b>\""],\""required\"":true}]"", ""task_unique_trial"": 100, ""task_name"": ""aggressive-modifae-single"", ""trial_index"": 44, ""isRepeat"": 0}"
ABL3H3O3BI8ZD:3IUZPWIU1QEZ1B5ULFEENBFIX08WKE,45,1548040331111,"{""rt"": null, ""trial_type"": ""html-keyboard-response"", ""task_unique_trial"": 100, ""stimulus"": ""<p>Good job!</p>"", ""task_version"": 1, ""internal_node_id"": ""0.0-5.0-1.0"", ""task_payment"": 1, ""time_elapsed"": 127670, ""debug_mode"": ""live"", ""key_press"": null, ""task_name"": ""aggressive-modifae-single"", ""trial_index"": 45}"
ABL3H3O3BI8ZD:3IUZPWIU1QEZ1B5ULFEENBFIX08WKE,46,1548040332400,"{""rt"": 1288, ""trial_type"": ""face-likert-amanda"", ""debug_mode"": ""live"", ""task_type"": ""face trials"", ""responses"": ""{\""Q0\"":6}"", ""task_payment"": 1, ""task_version"": 1, ""internal_node_id"": ""0.0-6.0-0.0-0.0"", ""time_elapsed"": 128959, ""imgName"": ""/static/images/modifAE_linspace/aggressive/136237_0.2803030303030303.png"", ""questions"": ""[{\""prompt\"":\""<p>How <b>aggressive</b> does this person look to <b>most people</b>? Rate from 1-9</p>\"",\""labels\"":[\""1 <br/><b>Not aggressive at all</b>\"",\""2\"",\""3\"",\""4\"",\""5\"",\""6\"",\""7\"",\""8\"",\""9  <br/><b>Extremely aggressive</b>\""],\""required\"":true}]"", ""task_unique_trial"": 100, ""task_name"": ""aggressive-modifae-single"", ""trial_index"": 46, ""isRepeat"": 0}"
ABL3H3O3BI8ZD:3IUZPWIU1QEZ1B5ULFEENBFIX08WKE,47,1548040333615,"{""rt"": 1213, ""trial_type"": ""face-likert-amanda"", ""debug_mode"": ""live"", ""task_type"": ""face trials"", ""responses"": ""{\""Q0\"":6}"", ""task_payment"": 1, ""task_version"": 1, ""internal_node_id"": ""0.0-6.0-0.0-1.0"", ""time_elapsed"": 130174, ""imgName"": ""/static/images/modifAE_linspace/aggressive/136251_0.49242424242424243.png"", ""questions"": ""[{\""prompt\"":\""<p>How <b>aggressive</b> does this person look to <b>most people</b>? Rate from 1-9</p>\"",\""labels\"":[\""1 <br/><b>Not aggressive at all</b>\"",\""2\"",\""3\"",\""4\"",\""5\"",\""6\"",\""7\"",\""8\"",\""9  <br/><b>Extremely aggressive</b>\""],\""required\"":true}]"", ""task_unique_trial"": 100, ""task_name"": ""aggressive-modifae-single"", ""trial_index"": 47, ""isRepeat"": 0}"
ABL3H3O3BI8ZD:3IUZPWIU1QEZ1B5ULFEENBFIX08WKE,48,1548040334754,"{""rt"": 1139, ""trial_type"": ""face-likert-amanda"", ""debug_mode"": ""live"", ""task_type"": ""face trials"", ""responses"": ""{\""Q0\"":6}"", ""task_payment"": 1, ""task_version"": 1, ""internal_node_id"": ""0.0-6.0-0.0-2.0"", ""time_elapsed"": 131313, ""imgName"": ""/static/images/modifAE_linspace/aggressive/136180_-0.5833333333333333.png"", ""questions"": ""[{\""prompt\"":\""<p>How <b>aggressive</b> does this person look to <b>most people</b>? Rate from 1-9</p>\"",\""labels\"":[\""1 <br/><b>Not aggressive at all</b>\"",\""2\"",\""3\"",\""4\"",\""5\"",\""6\"",\""7\"",\""8\"",\""9  <br/><b>Extremely aggressive</b>\""],\""required\"":true}]"", ""task_unique_trial"": 100, ""task_name"": ""aggressive-modifae-single"", ""trial_index"": 48, ""isRepeat"": 0}"
ABL3H3O3BI8ZD:3IUZPWIU1QEZ1B5ULFEENBFIX08WKE,49,1548040335849,"{""rt"": 1094, ""trial_type"": ""face-likert-amanda"", ""debug_mode"": ""live"", ""task_type"": ""face trials"", ""responses"": ""{\""Q0\"":6}"", ""task_payment"": 1, ""task_version"": 1, ""internal_node_id"": ""0.0-6.0-0.0-3.0"", ""time_elapsed"": 132408, ""imgName"": ""/static/images/modifAE_linspace/aggressive/136240_0.3257575757575757.png"", ""questions"": ""[{\""prompt\"":\""<p>How <b>aggressive</b> does this person look to <b>most people</b>? Rate from 1-9</p>\"",\""labels\"":[\""1 <br/><b>Not aggressive at all</b>\"",\""2\"",\""3\"",\""4\"",\""5\"",\""6\"",\""7\"",\""8\"",\""9  <br/><b>Extremely aggressive</b>\""],\""required\"":true}]"", ""task_unique_trial"": 100, ""task_name"": ""aggressive-modifae-single"", ""trial_index"": 49, ""isRepeat"": 0}"
ABL3H3O3BI8ZD:3IUZPWIU1QEZ1B5ULFEENBFIX08WKE,50,1548040336960,"{""rt"": 1109, ""trial_type"": ""face-likert-amanda"", ""debug_mode"": ""live"", ""task_type"": ""face trials"", ""responses"": ""{\""Q0\"":6}"", ""task_payment"": 1, ""task_version"": 1, ""internal_node_id"": ""0.0-6.0-0.0-4.0"", ""time_elapsed"": 133519, ""imgName"": ""/static/images/modifAE_linspace/aggressive/136238_0.2954545454545454.png"", ""questions"": ""[{\""prompt\"":\""<p>How <b>aggressive</b> does this person look to <b>most people</b>? Rate from 1-9</p>\"",\""labels\"":[\""1 <br/><b>Not aggressive at all</b>\"",\""2\"",\""3\"",\""4\"",\""5\"",\""6\"",\""7\"",\""8\"",\""9  <br/><b>Extremely aggressive</b>\""],\""required\"":true}]"", ""task_unique_trial"": 100, ""task_name"": ""aggressive-modifae-single"", ""trial_index"": 50, ""isRepeat"": 0}"
ABL3H3O3BI8ZD:3IUZPWIU1QEZ1B5ULFEENBFIX08WKE,51,1548040338069,"{""rt"": 1109, ""trial_type"": ""face-likert-amanda"", ""debug_mode"": ""live"", ""task_type"": ""face trials"", ""responses"": ""{\""Q0\"":6}"", ""task_payment"": 1, ""task_version"": 1, ""internal_node_id"": ""0.0-6.0-0.0-5.0"", ""time_elapsed"": 134628, ""imgName"": ""/static/images/modifAE_linspace/aggressive/136249_0.46212121212121215.png"", ""questions"": ""[{\""prompt\"":\""<p>How <b>aggressive</b> does this person look to <b>most people</b>? Rate from 1-9</p>\"",\""labels\"":[\""1 <br/><b>Not aggressive at all</b>\"",\""2\"",\""3\"",\""4\"",\""5\"",\""6\"",\""7\"",\""8\"",\""9  <br/><b>Extremely aggressive</b>\""],\""required\"":true}]"", ""task_unique_trial"": 100, ""task_name"": ""aggressive-modifae-single"", ""trial_index"": 51, ""isRepeat"": 0}"
ABL3H3O3BI8ZD:3IUZPWIU1QEZ1B5ULFEENBFIX08WKE,52,1548040339105,"{""rt"": 1034, ""trial_type"": ""face-likert-amanda"", ""debug_mode"": ""live"", ""task_type"": ""face trials"", ""responses"": ""{\""Q0\"":6}"", ""task_payment"": 1, ""task_version"": 1, ""internal_node_id"": ""0.0-6.0-0.0-6.0"", ""time_elapsed"": 135664, ""imgName"": ""/static/images/modifAE_linspace/aggressive/136253_0.5227272727272727.png"", ""questions"": ""[{\""prompt\"":\""<p>How <b>aggressive</b> does this person look to <b>most people</b>? Rate from 1-9</p>\"",\""labels\"":[\""1 <br/><b>Not aggressive at all</b>\"",\""2\"",\""3\"",\""4\"",\""5\"",\""6\"",\""7\"",\""8\"",\""9  <br/><b>Extremely aggressive</b>\""],\""required\"":true}]"", ""task_unique_trial"": 100, ""task_name"": ""aggressive-modifae-single"", ""trial_index"": 52, ""isRepeat"": 0}"
ABL3H3O3BI8ZD:3IUZPWIU1QEZ1B5ULFEENBFIX08WKE,53,1548040340304,"{""rt"": 1199, ""trial_type"": ""face-likert-amanda"", ""debug_mode"": ""live"", ""task_type"": ""face trials"", ""responses"": ""{\""Q0\"":6}"", ""task_payment"": 1, ""task_version"": 1, ""internal_node_id"": ""0.0-6.0-0.0-7.0"", ""time_elapsed"": 136863, ""imgName"": ""/static/images/modifAE_linspace/aggressive/136263_0.6742424242424243.png"", ""questions"": ""[{\""prompt\"":\""<p>How <b>aggressive</b> does this person look to <b>most people</b>? Rate from 1-9</p>\"",\""labels\"":[\""1 <br/><b>Not aggressive at all</b>\"",\""2\"",\""3\"",\""4\"",\""5\"",\""6\"",\""7\"",\""8\"",\""9  <br/><b>Extremely aggressive</b>\""],\""required\"":true}]"", ""task_unique_trial"": 100, ""task_name"": ""aggressive-modifae-single"", ""trial_index"": 53, ""isRepeat"": 0}"
ABL3H3O3BI8ZD:3IUZPWIU1QEZ1B5ULFEENBFIX08WKE,54,1548040341385,"{""rt"": 1078, ""trial_type"": ""face-likert-amanda"", ""debug_mode"": ""live"", ""task_type"": ""face trials"", ""responses"": ""{\""Q0\"":6}"", ""task_payment"": 1, ""task_version"": 1, ""internal_node_id"": ""0.0-6.0-0.0-8.0"", ""time_elapsed"": 137943, ""imgName"": ""/static/images/modifAE_linspace/aggressive/136194_-0.3712121212121212.png"", ""questions"": ""[{\""prompt\"":\""<p>How <b>aggressive</b> does this person look to <b>most people</b>? Rate from 1-9</p>\"",\""labels\"":[\""1 <br/><b>Not aggressive at all</b>\"",\""2\"",\""3\"",\""4\"",\""5\"",\""6\"",\""7\"",\""8\"",\""9  <br/><b>Extremely aggressive</b>\""],\""required\"":true}]"", ""task_unique_trial"": 100, ""task_name"": ""aggressive-modifae-single"", ""trial_index"": 54, ""isRepeat"": 0}"
ABL3H3O3BI8ZD:3IUZPWIU1QEZ1B5ULFEENBFIX08WKE,55,1548040342494,"{""rt"": 1108, ""trial_type"": ""face-likert-amanda"", ""debug_mode"": ""live"", ""task_type"": ""face trials"", ""responses"": ""{\""Q0\"":6}"", ""task_payment"": 1, ""task_version"": 1, ""internal_node_id"": ""0.0-6.0-0.0-9.0"", ""time_elapsed"": 139053, ""imgName"": ""/static/images/modifAE_linspace/aggressive/136200_-0.2803030303030303.png"", ""questions"": ""[{\""prompt\"":\""<p>How <b>aggressive</b> does this person look to <b>most people</b>? Rate from 1-9</p>\"",\""labels\"":[\""1 <br/><b>Not aggressive at all</b>\"",\""2\"",\""3\"",\""4\"",\""5\"",\""6\"",\""7\"",\""8\"",\""9  <br/><b>Extremely aggressive</b>\""],\""required\"":true}]"", ""task_unique_trial"": 100, ""task_name"": ""aggressive-modifae-single"", ""trial_index"": 55, ""isRepeat"": 0}"
ABL3H3O3BI8ZD:3IUZPWIU1QEZ1B5ULFEENBFIX08WKE,56,1548040344498,"{""rt"": null, ""trial_type"": ""html-keyboard-response"", ""task_unique_trial"": 100, ""stimulus"": ""<p>Good job!</p>"", ""task_version"": 1, ""internal_node_id"": ""0.0-6.0-1.0"", ""task_payment"": 1, ""time_elapsed"": 141057, ""debug_mode"": ""live"", ""key_press"": null, ""task_name"": ""aggressive-modifae-single"", ""trial_index"": 56}"
ABL3H3O3BI8ZD:3IUZPWIU1QEZ1B5ULFEENBFIX08WKE,57,1548040347175,"{""rt"": 2675, ""trial_type"": ""face-likert-amanda"", ""debug_mode"": ""live"", ""task_type"": ""face trials"", ""responses"": ""{\""Q0\"":6}"", ""task_payment"": 1, ""task_version"": 1, ""internal_node_id"": ""0.0-7.0-0.0-0.0"", ""time_elapsed"": 143734, ""imgName"": ""/static/images/modifAE_linspace/aggressive/136183_-0.5378787878787878.png"", ""questions"": ""[{\""prompt\"":\""<p>How <b>aggressive</b> does this person look to <b>most people</b>? Rate from 1-9</p>\"",\""labels\"":[\""1 <br/><b>Not aggressive at all</b>\"",\""2\"",\""3\"",\""4\"",\""5\"",\""6\"",\""7\"",\""8\"",\""9  <br/><b>Extremely aggressive</b>\""],\""required\"":true}]"", ""task_unique_trial"": 100, ""task_name"": ""aggressive-modifae-single"", ""trial_index"": 57, ""isRepeat"": 0}"
ABL3H3O3BI8ZD:3IUZPWIU1QEZ1B5ULFEENBFIX08WKE,58,1548040348480,"{""rt"": 1305, ""trial_type"": ""face-likert-amanda"", ""debug_mode"": ""live"", ""task_type"": ""face trials"", ""responses"": ""{\""Q0\"":6}"", ""task_payment"": 1, ""task_version"": 1, ""internal_node_id"": ""0.0-7.0-0.0-1.0"", ""time_elapsed"": 145039, ""imgName"": ""/static/images/modifAE_linspace/aggressive/136193_-0.38636363636363635.png"", ""questions"": ""[{\""prompt\"":\""<p>How <b>aggressive</b> does this person look to <b>most people</b>? Rate from 1-9</p>\"",\""labels\"":[\""1 <br/><b>Not aggressive at all</b>\"",\""2\"",\""3\"",\""4\"",\""5\"",\""6\"",\""7\"",\""8\"",\""9  <br/><b>Extremely aggressive</b>\""],\""required\"":true}]"", ""task_unique_trial"": 100, ""task_name"": ""aggressive-modifae-single"", ""trial_index"": 58, ""isRepeat"": 0}"
ABL3H3O3BI8ZD:3IUZPWIU1QEZ1B5ULFEENBFIX08WKE,59,1548040349800,"{""rt"": 1318, ""trial_type"": ""face-likert-amanda"", ""debug_mode"": ""live"", ""task_type"": ""face trials"", ""responses"": ""{\""Q0\"":6}"", ""task_payment"": 1, ""task_version"": 1, ""internal_node_id"": ""0.0-7.0-0.0-2.0"", ""time_elapsed"": 146359, ""imgName"": ""/static/images/modifAE_linspace/aggressive/136235_0.25.png"", ""questions"": ""[{\""prompt\"":\""<p>How <b>aggressive</b> does this person look to <b>most people</b>? Rate from 1-9</p>\"",\""labels\"":[\""1 <br/><b>Not aggressive at all</b>\"",\""2\"",\""3\"",\""4\"",\""5\"",\""6\"",\""7\"",\""8\"",\""9  <br/><b>Extremely aggressive</b>\""],\""required\"":true}]"", ""task_unique_trial"": 100, ""task_name"": ""aggressive-modifae-single"", ""trial_index"": 59, ""isRepeat"": 0}"
ABL3H3O3BI8ZD:3IUZPWIU1QEZ1B5ULFEENBFIX08WKE,60,1548040350985,"{""rt"": 1183, ""trial_type"": ""face-likert-amanda"", ""debug_mode"": ""live"", ""task_type"": ""face trials"", ""responses"": ""{\""Q0\"":6}"", ""task_payment"": 1, ""task_version"": 1, ""internal_node_id"": ""0.0-7.0-0.0-3.0"", ""time_elapsed"": 147544, ""imgName"": ""/static/images/modifAE_linspace/aggressive/136249_0.46212121212121215.png"", ""questions"": ""[{\""prompt\"":\""<p>How <b>aggressive</b> does this person look to <b>most people</b>? Rate from 1-9</p>\"",\""labels\"":[\""1 <br/><b>Not aggressive at all</b>\"",\""2\"",\""3\"",\""4\"",\""5\"",\""6\"",\""7\"",\""8\"",\""9  <br/><b>Extremely aggressive</b>\""],\""required\"":true}]"", ""task_unique_trial"": 100, ""task_name"": ""aggressive-modifae-single"", ""trial_index"": 60, ""isRepeat"": 0}"
ABL3H3O3BI8ZD:3IUZPWIU1QEZ1B5ULFEENBFIX08WKE,61,1548040352244,"{""rt"": 1258, ""trial_type"": ""face-likert-amanda"", ""debug_mode"": ""live"", ""task_type"": ""face trials"", ""responses"": ""{\""Q0\"":6}"", ""task_payment"": 1, ""task_version"": 1, ""internal_node_id"": ""0.0-7.0-0.0-4.0"", ""time_elapsed"": 148803, ""imgName"": ""/static/images/modifAE_linspace/aggressive/136242_0.3560606060606062.png"", ""questions"": ""[{\""prompt\"":\""<p>How <b>aggressive</b> does this person look to <b>most people</b>? Rate from 1-9</p>\"",\""labels\"":[\""1 <br/><b>Not aggressive at all</b>\"",\""2\"",\""3\"",\""4\"",\""5\"",\""6\"",\""7\"",\""8\"",\""9  <br/><b>Extremely aggressive</b>\""],\""required\"":true}]"", ""task_unique_trial"": 100, ""task_name"": ""aggressive-modifae-single"", ""trial_index"": 61, ""isRepeat"": 0}"
ABL3H3O3BI8ZD:3IUZPWIU1QEZ1B5ULFEENBFIX08WKE,62,1548040353384,"{""rt"": 1139, ""trial_type"": ""face-likert-amanda"", ""debug_mode"": ""live"", ""task_type"": ""face trials"", ""responses"": ""{\""Q0\"":6}"", ""task_payment"": 1, ""task_version"": 1, ""internal_node_id"": ""0.0-7.0-0.0-5.0"", ""time_elapsed"": 149943, ""imgName"": ""/static/images/modifAE_linspace/aggressive/136254_0.5378787878787878.png"", ""questions"": ""[{\""prompt\"":\""<p>How <b>aggressive</b> does this person look to <b>most people</b>? Rate from 1-9</p>\"",\""labels\"":[\""1 <br/><b>Not aggressive at all</b>\"",\""2\"",\""3\"",\""4\"",\""5\"",\""6\"",\""7\"",\""8\"",\""9  <br/><b>Extremely aggressive</b>\""],\""required\"":true}]"", ""task_unique_trial"": 100, ""task_name"": ""aggressive-modifae-single"", ""trial_index"": 62, ""isRepeat"": 0}"
ABL3H3O3BI8ZD:3IUZPWIU1QEZ1B5ULFEENBFIX08WKE,63,1548040354600,"{""rt"": 1215, ""trial_type"": ""face-likert-amanda"", ""debug_mode"": ""live"", ""task_type"": ""face trials"", ""responses"": ""{\""Q0\"":6}"", ""task_payment"": 1, ""task_version"": 1, ""internal_node_id"": ""0.0-7.0-0.0-6.0"", ""time_elapsed"": 151159, ""imgName"": ""/static/images/modifAE_linspace/aggressive/136175_-0.6590909090909091.png"", ""questions"": ""[{\""prompt\"":\""<p>How <b>aggressive</b> does this person look to <b>most people</b>? Rate from 1-9</p>\"",\""labels\"":[\""1 <br/><b>Not aggressive at all</b>\"",\""2\"",\""3\"",\""4\"",\""5\"",\""6\"",\""7\"",\""8\"",\""9  <br/><b>Extremely aggressive</b>\""],\""required\"":true}]"", ""task_unique_trial"": 100, ""task_name"": ""aggressive-modifae-single"", ""trial_index"": 63, ""isRepeat"": 0}"
ABL3H3O3BI8ZD:3IUZPWIU1QEZ1B5ULFEENBFIX08WKE,64,1548040355785,"{""rt"": 1183, ""trial_type"": ""face-likert-amanda"", ""debug_mode"": ""live"", ""task_type"": ""face trials"", ""responses"": ""{\""Q0\"":6}"", ""task_payment"": 1, ""task_version"": 1, ""internal_node_id"": ""0.0-7.0-0.0-7.0"", ""time_elapsed"": 152344, ""imgName"": ""/static/images/modifAE_linspace/aggressive/136262_0.6590909090909092.png"", ""questions"": ""[{\""prompt\"":\""<p>How <b>aggressive</b> does this person look to <b>most people</b>? Rate from 1-9</p>\"",\""labels\"":[\""1 <br/><b>Not aggressive at all</b>\"",\""2\"",\""3\"",\""4\"",\""5\"",\""6\"",\""7\"",\""8\"",\""9  <br/><b>Extremely aggressive</b>\""],\""required\"":true}]"", ""task_unique_trial"": 100, ""task_name"": ""aggressive-modifae-single"", ""trial_index"": 64, ""isRepeat"": 0}"
ABL3H3O3BI8ZD:3IUZPWIU1QEZ1B5ULFEENBFIX08WKE,65,1548040356970,"{""rt"": 1184, ""trial_type"": ""face-likert-amanda"", ""debug_mode"": ""live"", ""task_type"": ""face trials"", ""responses"": ""{\""Q0\"":6}"", ""task_payment"": 1, ""task_version"": 1, ""internal_node_id"": ""0.0-7.0-0.0-8.0"", ""time_elapsed"": 153529, ""imgName"": ""/static/images/modifAE_linspace/aggressive/136257_0.5833333333333335.png"", ""questions"": ""[{\""prompt\"":\""<p>How <b>aggressive</b> does this person look to <b>most people</b>? Rate from 1-9</p>\"",\""labels\"":[\""1 <br/><b>Not aggressive at all</b>\"",\""2\"",\""3\"",\""4\"",\""5\"",\""6\"",\""7\"",\""8\"",\""9  <br/><b>Extremely aggressive</b>\""],\""required\"":true}]"", ""task_unique_trial"": 100, ""task_name"": ""aggressive-modifae-single"", ""trial_index"": 65, ""isRepeat"": 0}"
ABL3H3O3BI8ZD:3IUZPWIU1QEZ1B5ULFEENBFIX08WKE,66,1548040358095,"{""rt"": 1123, ""trial_type"": ""face-likert-amanda"", ""debug_mode"": ""live"", ""task_type"": ""face trials"", ""responses"": ""{\""Q0\"":6}"", ""task_payment"": 1, ""task_version"": 1, ""internal_node_id"": ""0.0-7.0-0.0-9.0"", ""time_elapsed"": 154654, ""imgName"": ""/static/images/modifAE_linspace/aggressive/136260_0.6287878787878789.png"", ""questions"": ""[{\""prompt\"":\""<p>How <b>aggressive</b> does this person look to <b>most people</b>? Rate from 1-9</p>\"",\""labels\"":[\""1 <br/><b>Not aggressive at all</b>\"",\""2\"",\""3\"",\""4\"",\""5\"",\""6\"",\""7\"",\""8\"",\""9  <br/><b>Extremely aggressive</b>\""],\""required\"":true}]"", ""task_unique_trial"": 100, ""task_name"": ""aggressive-modifae-single"", ""trial_index"": 66, ""isRepeat"": 0}"
ABL3H3O3BI8ZD:3IUZPWIU1QEZ1B5ULFEENBFIX08WKE,67,1548040359100,"{""rt"": null, ""trial_type"": ""html-keyboard-response"", ""task_unique_trial"": 100, ""stimulus"": ""<p>Good job!</p>"", ""task_version"": 1, ""internal_node_id"": ""0.0-7.0-1.0"", ""task_payment"": 1, ""time_elapsed"": 155659, ""debug_mode"": ""live"", ""key_press"": null, ""task_name"": ""aggressive-modifae-single"", ""trial_index"": 67}"
ABL3H3O3BI8ZD:3IUZPWIU1QEZ1B5ULFEENBFIX08WKE,68,1548040360270,"{""rt"": 1169, ""trial_type"": ""face-likert-amanda"", ""debug_mode"": ""live"", ""task_type"": ""face trials"", ""responses"": ""{\""Q0\"":6}"", ""task_payment"": 1, ""task_version"": 1, ""internal_node_id"": ""0.0-8.0-0.0-0.0"", ""time_elapsed"": 156828, ""imgName"": ""/static/images/modifAE_linspace/aggressive/136202_-0.25.png"", ""questions"": ""[{\""prompt\"":\""<p>How <b>aggressive</b> does this person look to <b>most people</b>? Rate from 1-9</p>\"",\""labels\"":[\""1 <br/><b>Not aggressive at all</b>\"",\""2\"",\""3\"",\""4\"",\""5\"",\""6\"",\""7\"",\""8\"",\""9  <br/><b>Extremely aggressive</b>\""],\""required\"":true}]"", ""task_unique_trial"": 100, ""task_name"": ""aggressive-modifae-single"", ""trial_index"": 68, ""isRepeat"": 0}"
ABL3H3O3BI8ZD:3IUZPWIU1QEZ1B5ULFEENBFIX08WKE,69,1548040361500,"{""rt"": 1229, ""trial_type"": ""face-likert-amanda"", ""debug_mode"": ""live"", ""task_type"": ""face trials"", ""responses"": ""{\""Q0\"":6}"", ""task_payment"": 1, ""task_version"": 1, ""internal_node_id"": ""0.0-8.0-0.0-1.0"", ""time_elapsed"": 158059, ""imgName"": ""/static/images/modifAE_linspace/aggressive/136178_-0.6136363636363636.png"", ""questions"": ""[{\""prompt\"":\""<p>How <b>aggressive</b> does this person look to <b>most people</b>? Rate from 1-9</p>\"",\""labels\"":[\""1 <br/><b>Not aggressive at all</b>\"",\""2\"",\""3\"",\""4\"",\""5\"",\""6\"",\""7\"",\""8\"",\""9  <br/><b>Extremely aggressive</b>\""],\""required\"":true}]"", ""task_unique_trial"": 100, ""task_name"": ""aggressive-modifae-single"", ""trial_index"": 69, ""isRepeat"": 0}"
ABL3H3O3BI8ZD:3IUZPWIU1QEZ1B5ULFEENBFIX08WKE,70,1548040362700,"{""rt"": 1198, ""trial_type"": ""face-likert-amanda"", ""debug_mode"": ""live"", ""task_type"": ""face trials"", ""responses"": ""{\""Q0\"":6}"", ""task_payment"": 1, ""task_version"": 1, ""internal_node_id"": ""0.0-8.0-0.0-2.0"", ""time_elapsed"": 159259, ""imgName"": ""/static/images/modifAE_linspace/aggressive/136247_0.4318181818181819.png"", ""questions"": ""[{\""prompt\"":\""<p>How <b>aggressive</b> does this person look to <b>most people</b>? Rate from 1-9</p>\"",\""labels\"":[\""1 <br/><b>Not aggressive at all</b>\"",\""2\"",\""3\"",\""4\"",\""5\"",\""6\"",\""7\"",\""8\"",\""9  <br/><b>Extremely aggressive</b>\""],\""required\"":true}]"", ""task_unique_trial"": 100, ""task_name"": ""aggressive-modifae-single"", ""trial_index"": 70, ""isRepeat"": 0}"
ABL3H3O3BI8ZD:3IUZPWIU1QEZ1B5ULFEENBFIX08WKE,71,1548040363885,"{""rt"": 1183, ""trial_type"": ""face-likert-amanda"", ""debug_mode"": ""live"", ""task_type"": ""face trials"", ""responses"": ""{\""Q0\"":6}"", ""task_payment"": 1, ""task_version"": 1, ""internal_node_id"": ""0.0-8.0-0.0-3.0"", ""time_elapsed"": 160444, ""imgName"": ""/static/images/modifAE_linspace/aggressive/136193_-0.38636363636363635.png"", ""questions"": ""[{\""prompt\"":\""<p>How <b>aggressive</b> does this person look to <b>most people</b>? Rate from 1-9</p>\"",\""labels\"":[\""1 <br/><b>Not aggressive at all</b>\"",\""2\"",\""3\"",\""4\"",\""5\"",\""6\"",\""7\"",\""8\"",\""9  <br/><b>Extremely aggressive</b>\""],\""required\"":true}]"", ""task_unique_trial"": 100, ""task_name"": ""aggressive-modifae-single"", ""trial_index"": 71, ""isRepeat"": 0}"
ABL3H3O3BI8ZD:3IUZPWIU1QEZ1B5ULFEENBFIX08WKE,72,1548040365084,"{""rt"": 1199, ""trial_type"": ""face-likert-amanda"", ""debug_mode"": ""live"", ""task_type"": ""face trials"", ""responses"": ""{\""Q0\"":6}"", ""task_payment"": 1, ""task_version"": 1, ""internal_node_id"": ""0.0-8.0-0.0-4.0"", ""time_elapsed"": 161643, ""imgName"": ""/static/images/modifAE_linspace/aggressive/136257_0.5833333333333335.png"", ""questions"": ""[{\""prompt\"":\""<p>How <b>aggressive</b> does this person look to <b>most people</b>? Rate from 1-9</p>\"",\""labels\"":[\""1 <br/><b>Not aggressive at all</b>\"",\""2\"",\""3\"",\""4\"",\""5\"",\""6\"",\""7\"",\""8\"",\""9  <br/><b>Extremely aggressive</b>\""],\""required\"":true}]"", ""task_unique_trial"": 100, ""task_name"": ""aggressive-modifae-single"", ""trial_index"": 72, ""isRepeat"": 0}"
ABL3H3O3BI8ZD:3IUZPWIU1QEZ1B5ULFEENBFIX08WKE,73,1548040366315,"{""rt"": 1229, ""trial_type"": ""face-likert-amanda"", ""debug_mode"": ""live"", ""task_type"": ""face trials"", ""responses"": ""{\""Q0\"":6}"", ""task_payment"": 1, ""task_version"": 1, ""internal_node_id"": ""0.0-8.0-0.0-5.0"", ""time_elapsed"": 162874, ""imgName"": ""/static/images/modifAE_linspace/aggressive/136203_-0.23484848484848486.png"", ""questions"": ""[{\""prompt\"":\""<p>How <b>aggressive</b> does this person look to <b>most people</b>? Rate from 1-9</p>\"",\""labels\"":[\""1 <br/><b>Not aggressive at all</b>\"",\""2\"",\""3\"",\""4\"",\""5\"",\""6\"",\""7\"",\""8\"",\""9  <br/><b>Extremely aggressive</b>\""],\""required\"":true}]"", ""task_unique_trial"": 100, ""task_name"": ""aggressive-modifae-single"", ""trial_index"": 73, ""isRepeat"": 0}"
ABL3H3O3BI8ZD:3IUZPWIU1QEZ1B5ULFEENBFIX08WKE,74,1548040367455,"{""rt"": 1140, ""trial_type"": ""face-likert-amanda"", ""debug_mode"": ""live"", ""task_type"": ""face trials"", ""responses"": ""{\""Q0\"":6}"", ""task_payment"": 1, ""task_version"": 1, ""internal_node_id"": ""0.0-8.0-0.0-6.0"", ""time_elapsed"": 164014, ""imgName"": ""/static/images/modifAE_linspace/aggressive/136232_0.20454545454545459.png"", ""questions"": ""[{\""prompt\"":\""<p>How <b>aggressive</b> does this person look to <b>most people</b>? Rate from 1-9</p>\"",\""labels\"":[\""1 <br/><b>Not aggressive at all</b>\"",\""2\"",\""3\"",\""4\"",\""5\"",\""6\"",\""7\"",\""8\"",\""9  <br/><b>Extremely aggressive</b>\""],\""required\"":true}]"", ""task_unique_trial"": 100, ""task_name"": ""aggressive-modifae-single"", ""trial_index"": 74, ""isRepeat"": 0}"
ABL3H3O3BI8ZD:3IUZPWIU1QEZ1B5ULFEENBFIX08WKE,75,1548040368685,"{""rt"": 1229, ""trial_type"": ""face-likert-amanda"", ""debug_mode"": ""live"", ""task_type"": ""face trials"", ""responses"": ""{\""Q0\"":6}"", ""task_payment"": 1, ""task_version"": 1, ""internal_node_id"": ""0.0-8.0-0.0-7.0"", ""time_elapsed"": 165244, ""imgName"": ""/static/images/modifAE_linspace/aggressive/136216_-0.037878787878787845.png"", ""questions"": ""[{\""prompt\"":\""<p>How <b>aggressive</b> does this person look to <b>most people</b>? Rate from 1-9</p>\"",\""labels\"":[\""1 <br/><b>Not aggressive at all</b>\"",\""2\"",\""3\"",\""4\"",\""5\"",\""6\"",\""7\"",\""8\"",\""9  <br/><b>Extremely aggressive</b>\""],\""required\"":true}]"", ""task_unique_trial"": 100, ""task_name"": ""aggressive-modifae-single"", ""trial_index"": 75, ""isRepeat"": 0}"
ABL3H3O3BI8ZD:3IUZPWIU1QEZ1B5ULFEENBFIX08WKE,76,1548040369974,"{""rt"": 1288, ""trial_type"": ""face-likert-amanda"", ""debug_mode"": ""live"", ""task_type"": ""face trials"", ""responses"": ""{\""Q0\"":6}"", ""task_payment"": 1, ""task_version"": 1, ""internal_node_id"": ""0.0-8.0-0.0-8.0"", ""time_elapsed"": 166533, ""imgName"": ""/static/images/modifAE_linspace/aggressive/136176_-0.6439393939393939.png"", ""questions"": ""[{\""prompt\"":\""<p>How <b>aggressive</b> does this person look to <b>most people</b>? Rate from 1-9</p>\"",\""labels\"":[\""1 <br/><b>Not aggressive at all</b>\"",\""2\"",\""3\"",\""4\"",\""5\"",\""6\"",\""7\"",\""8\"",\""9  <br/><b>Extremely aggressive</b>\""],\""required\"":true}]"", ""task_unique_trial"": 100, ""task_name"": ""aggressive-modifae-single"", ""trial_index"": 76, ""isRepeat"": 0}"
ABL3H3O3BI8ZD:3IUZPWIU1QEZ1B5ULFEENBFIX08WKE,77,1548040371159,"{""rt"": 1184, ""trial_type"": ""face-likert-amanda"", ""debug_mode"": ""live"", ""task_type"": ""face trials"", ""responses"": ""{\""Q0\"":6}"", ""task_payment"": 1, ""task_version"": 1, ""internal_node_id"": ""0.0-8.0-0.0-9.0"", ""time_elapsed"": 167718, ""imgName"": ""/static/images/modifAE_linspace/aggressive/136208_-0.15909090909090906.png"", ""questions"": ""[{\""prompt\"":\""<p>How <b>aggressive</b> does this person look to <b>most people</b>? Rate from 1-9</p>\"",\""labels\"":[\""1 <br/><b>Not aggressive at all</b>\"",\""2\"",\""3\"",\""4\"",\""5\"",\""6\"",\""7\"",\""8\"",\""9  <br/><b>Extremely aggressive</b>\""],\""required\"":true}]"", ""task_unique_trial"": 100, ""task_name"": ""aggressive-modifae-single"", ""trial_index"": 77, ""isRepeat"": 0}"
ABL3H3O3BI8ZD:3IUZPWIU1QEZ1B5ULFEENBFIX08WKE,78,1548040372180,"{""rt"": 1020, ""trial_type"": ""html-keyboard-response"", ""task_unique_trial"": 100, ""stimulus"": ""<p>Good job!</p>"", ""task_version"": 1, ""internal_node_id"": ""0.0-8.0-1.0"", ""task_payment"": 1, ""time_elapsed"": 168739, ""debug_mode"": ""live"", ""key_press"": 32, ""task_name"": ""aggressive-modifae-single"", ""trial_index"": 78}"
ABL3H3O3BI8ZD:3IUZPWIU1QEZ1B5ULFEENBFIX08WKE,79,1548040373710,"{""rt"": 1528, ""trial_type"": ""face-likert-amanda"", ""debug_mode"": ""live"", ""task_type"": ""face trials"", ""responses"": ""{\""Q0\"":6}"", ""task_payment"": 1, ""task_version"": 1, ""internal_node_id"": ""0.0-9.0-0.0-0.0"", ""time_elapsed"": 170268, ""imgName"": ""/static/images/modifAE_linspace/aggressive/136203_-0.23484848484848486.png"", ""questions"": ""[{\""prompt\"":\""<p>How <b>aggressive</b> does this person look to <b>most people</b>? Rate from 1-9</p>\"",\""labels\"":[\""1 <br/><b>Not aggressive at all</b>\"",\""2\"",\""3\"",\""4\"",\""5\"",\""6\"",\""7\"",\""8\"",\""9  <br/><b>Extremely aggressive</b>\""],\""required\"":true}]"", ""task_unique_trial"": 100, ""task_name"": ""aggressive-modifae-single"", ""trial_index"": 79, ""isRepeat"": 0}"
ABL3H3O3BI8ZD:3IUZPWIU1QEZ1B5ULFEENBFIX08WKE,80,1548040374955,"{""rt"": 1244, ""trial_type"": ""face-likert-amanda"", ""debug_mode"": ""live"", ""task_type"": ""face trials"", ""responses"": ""{\""Q0\"":6}"", ""task_payment"": 1, ""task_version"": 1, ""internal_node_id"": ""0.0-9.0-0.0-1.0"", ""time_elapsed"": 171514, ""imgName"": ""/static/images/modifAE_linspace/aggressive/136187_-0.4772727272727273.png"", ""questions"": ""[{\""prompt\"":\""<p>How <b>aggressive</b> does this person look to <b>most people</b>? Rate from 1-9</p>\"",\""labels\"":[\""1 <br/><b>Not aggressive at all</b>\"",\""2\"",\""3\"",\""4\"",\""5\"",\""6\"",\""7\"",\""8\"",\""9  <br/><b>Extremely aggressive</b>\""],\""required\"":true}]"", ""task_unique_trial"": 100, ""task_name"": ""aggressive-modifae-single"", ""trial_index"": 80, ""isRepeat"": 0}"
ABL3H3O3BI8ZD:3IUZPWIU1QEZ1B5ULFEENBFIX08WKE,81,1548040376110,"{""rt"": 1154, ""trial_type"": ""face-likert-amanda"", ""debug_mode"": ""live"", ""task_type"": ""face trials"", ""responses"": ""{\""Q0\"":6}"", ""task_payment"": 1, ""task_version"": 1, ""internal_node_id"": ""0.0-9.0-0.0-2.0"", ""time_elapsed"": 172669, ""imgName"": ""/static/images/modifAE_linspace/aggressive/136259_0.6136363636363638.png"", ""questions"": ""[{\""prompt\"":\""<p>How <b>aggressive</b> does this person look to <b>most people</b>? Rate from 1-9</p>\"",\""labels\"":[\""1 <br/><b>Not aggressive at all</b>\"",\""2\"",\""3\"",\""4\"",\""5\"",\""6\"",\""7\"",\""8\"",\""9  <br/><b>Extremely aggressive</b>\""],\""required\"":true}]"", ""task_unique_trial"": 100, ""task_name"": ""aggressive-modifae-single"", ""trial_index"": 81, ""isRepeat"": 0}"
ABL3H3O3BI8ZD:3IUZPWIU1QEZ1B5ULFEENBFIX08WKE,82,1548040377282,"{""rt"": 1170, ""trial_type"": ""face-likert-amanda"", ""debug_mode"": ""live"", ""task_type"": ""face trials"", ""responses"": ""{\""Q0\"":6}"", ""task_payment"": 1, ""task_version"": 1, ""internal_node_id"": ""0.0-9.0-0.0-3.0"", ""time_elapsed"": 173841, ""imgName"": ""/static/images/modifAE_linspace/aggressive/136253_0.5227272727272727.png"", ""questions"": ""[{\""prompt\"":\""<p>How <b>aggressive</b> does this person look to <b>most people</b>? Rate from 1-9</p>\"",\""labels\"":[\""1 <br/><b>Not aggressive at all</b>\"",\""2\"",\""3\"",\""4\"",\""5\"",\""6\"",\""7\"",\""8\"",\""9  <br/><b>Extremely aggressive</b>\""],\""required\"":true}]"", ""task_unique_trial"": 100, ""task_name"": ""aggressive-modifae-single"", ""trial_index"": 82, ""isRepeat"": 0}"
ABL3H3O3BI8ZD:3IUZPWIU1QEZ1B5ULFEENBFIX08WKE,83,1548040378540,"{""rt"": 1258, ""trial_type"": ""face-likert-amanda"", ""debug_mode"": ""live"", ""task_type"": ""face trials"", ""responses"": ""{\""Q0\"":6}"", ""task_payment"": 1, ""task_version"": 1, ""internal_node_id"": ""0.0-9.0-0.0-4.0"", ""time_elapsed"": 175099, ""imgName"": ""/static/images/modifAE_linspace/aggressive/136191_-0.41666666666666663.png"", ""questions"": ""[{\""prompt\"":\""<p>How <b>aggressive</b> does this person look to <b>most people</b>? Rate from 1-9</p>\"",\""labels\"":[\""1 <br/><b>Not aggressive at all</b>\"",\""2\"",\""3\"",\""4\"",\""5\"",\""6\"",\""7\"",\""8\"",\""9  <br/><b>Extremely aggressive</b>\""],\""required\"":true}]"", ""task_unique_trial"": 100, ""task_name"": ""aggressive-modifae-single"", ""trial_index"": 83, ""isRepeat"": 0}"
ABL3H3O3BI8ZD:3IUZPWIU1QEZ1B5ULFEENBFIX08WKE,84,1548040380700,"{""rt"": 2159, ""trial_type"": ""face-likert-amanda"", ""debug_mode"": ""live"", ""task_type"": ""face trials"", ""responses"": ""{\""Q0\"":7}"", ""task_payment"": 1, ""task_version"": 1, ""internal_node_id"": ""0.0-9.0-0.0-5.0"", ""time_elapsed"": 177259, ""imgName"": ""/static/images/modifAE_linspace/aggressive/136192_-0.4015151515151515.png"", ""questions"": ""[{\""prompt\"":\""<p>How <b>aggressive</b> does this person look to <b>most people</b>? Rate from 1-9</p>\"",\""labels\"":[\""1 <br/><b>Not aggressive at all</b>\"",\""2\"",\""3\"",\""4\"",\""5\"",\""6\"",\""7\"",\""8\"",\""9  <br/><b>Extremely aggressive</b>\""],\""required\"":true}]"", ""task_unique_trial"": 100, ""task_name"": ""aggressive-modifae-single"", ""trial_index"": 84, ""isRepeat"": 0}"
ABL3H3O3BI8ZD:3IUZPWIU1QEZ1B5ULFEENBFIX08WKE,85,1548040381766,"{""rt"": 1064, ""trial_type"": ""face-likert-amanda"", ""debug_mode"": ""live"", ""task_type"": ""face trials"", ""responses"": ""{\""Q0\"":7}"", ""task_payment"": 1, ""task_version"": 1, ""internal_node_id"": ""0.0-9.0-0.0-6.0"", ""time_elapsed"": 178325, ""imgName"": ""/static/images/modifAE_linspace/aggressive/136199_-0.2954545454545454.png"", ""questions"": ""[{\""prompt\"":\""<p>How <b>aggressive</b> does this person look to <b>most people</b>? Rate from 1-9</p>\"",\""labels\"":[\""1 <br/><b>Not aggressive at all</b>\"",\""2\"",\""3\"",\""4\"",\""5\"",\""6\"",\""7\"",\""8\"",\""9  <br/><b>Extremely aggressive</b>\""],\""required\"":true}]"", ""task_unique_trial"": 100, ""task_name"": ""aggressive-modifae-single"", ""trial_index"": 85, ""isRepeat"": 0}"
ABL3H3O3BI8ZD:3IUZPWIU1QEZ1B5ULFEENBFIX08WKE,86,1548040382905,"{""rt"": 1138, ""trial_type"": ""face-likert-amanda"", ""debug_mode"": ""live"", ""task_type"": ""face trials"", ""responses"": ""{\""Q0\"":7}"", ""task_payment"": 1, ""task_version"": 1, ""internal_node_id"": ""0.0-9.0-0.0-7.0"", ""time_elapsed"": 179464, ""imgName"": ""/static/images/modifAE_linspace/aggressive/136185_-0.5075757575757576.png"", ""questions"": ""[{\""prompt\"":\""<p>How <b>aggressive</b> does this person look to <b>most people</b>? Rate from 1-9</p>\"",\""labels\"":[\""1 <br/><b>Not aggressive at all</b>\"",\""2\"",\""3\"",\""4\"",\""5\"",\""6\"",\""7\"",\""8\"",\""9  <br/><b>Extremely aggressive</b>\""],\""required\"":true}]"", ""task_unique_trial"": 100, ""task_name"": ""aggressive-modifae-single"", ""trial_index"": 86, ""isRepeat"": 0}"
ABL3H3O3BI8ZD:3IUZPWIU1QEZ1B5ULFEENBFIX08WKE,87,1548040389310,"{""rt"": 6403, ""trial_type"": ""face-likert-amanda"", ""debug_mode"": ""live"", ""task_type"": ""face trials"", ""responses"": ""{\""Q0\"":8}"", ""task_payment"": 1, ""task_version"": 1, ""internal_node_id"": ""0.0-9.0-0.0-8.0"", ""time_elapsed"": 185869, ""imgName"": ""/static/images/modifAE_linspace/aggressive/136179_-0.5984848484848485.png"", ""questions"": ""[{\""prompt\"":\""<p>How <b>aggressive</b> does this person look to <b>most people</b>? Rate from 1-9</p>\"",\""labels\"":[\""1 <br/><b>Not aggressive at all</b>\"",\""2\"",\""3\"",\""4\"",\""5\"",\""6\"",\""7\"",\""8\"",\""9  <br/><b>Extremely aggressive</b>\""],\""required\"":true}]"", ""task_unique_trial"": 100, ""task_name"": ""aggressive-modifae-single"", ""trial_index"": 87, ""isRepeat"": 0}"
ABL3H3O3BI8ZD:3IUZPWIU1QEZ1B5ULFEENBFIX08WKE,88,1548040393660,"{""rt"": 4349, ""trial_type"": ""face-likert-amanda"", ""debug_mode"": ""live"", ""task_type"": ""face trials"", ""responses"": ""{\""Q0\"":7}"", ""task_payment"": 1, ""task_version"": 1, ""internal_node_id"": ""0.0-9.0-0.0-9.0"", ""time_elapsed"": 190219, ""imgName"": ""/static/images/modifAE_linspace/aggressive/136181_-0.5681818181818181.png"", ""questions"": ""[{\""prompt\"":\""<p>How <b>aggressive</b> does this person look to <b>most people</b>? Rate from 1-9</p>\"",\""labels\"":[\""1 <br/><b>Not aggressive at all</b>\"",\""2\"",\""3\"",\""4\"",\""5\"",\""6\"",\""7\"",\""8\"",\""9  <br/><b>Extremely aggressive</b>\""],\""required\"":true}]"", ""task_unique_trial"": 100, ""task_name"": ""aggressive-modifae-single"", ""trial_index"": 88, ""isRepeat"": 0}"
ABL3H3O3BI8ZD:3IUZPWIU1QEZ1B5ULFEENBFIX08WKE,89,1548040395662,"{""rt"": null, ""trial_type"": ""html-keyboard-response"", ""task_unique_trial"": 100, ""stimulus"": ""<p>Good job!</p>"", ""task_version"": 1, ""internal_node_id"": ""0.0-9.0-1.0"", ""task_payment"": 1, ""time_elapsed"": 192220, ""debug_mode"": ""live"", ""key_press"": null, ""task_name"": ""aggressive-modifae-single"", ""trial_index"": 89}"
ABL3H3O3BI8ZD:3IUZPWIU1QEZ1B5ULFEENBFIX08WKE,90,1548040399480,"{""rt"": 3817, ""trial_type"": ""face-likert-amanda"", ""debug_mode"": ""live"", ""task_type"": ""face trials"", ""responses"": ""{\""Q0\"":6}"", ""task_payment"": 1, ""task_version"": 1, ""internal_node_id"": ""0.0-10.0-0.0-0.0"", ""time_elapsed"": 196039, ""imgName"": ""/static/images/modifAE_linspace/aggressive/136209_-0.14393939393939392.png"", ""questions"": ""[{\""prompt\"":\""<p>How <b>aggressive</b> does this person look to <b>most people</b>? Rate from 1-9</p>\"",\""labels\"":[\""1 <br/><b>Not aggressive at all</b>\"",\""2\"",\""3\"",\""4\"",\""5\"",\""6\"",\""7\"",\""8\"",\""9  <br/><b>Extremely aggressive</b>\""],\""required\"":true}]"", ""task_unique_trial"": 100, ""task_name"": ""aggressive-modifae-single"", ""trial_index"": 90, ""isRepeat"": 0}"
ABL3H3O3BI8ZD:3IUZPWIU1QEZ1B5ULFEENBFIX08WKE,91,1548040403395,"{""rt"": 3914, ""trial_type"": ""face-likert-amanda"", ""debug_mode"": ""live"", ""task_type"": ""face trials"", ""responses"": ""{\""Q0\"":7}"", ""task_payment"": 1, ""task_version"": 1, ""internal_node_id"": ""0.0-10.0-0.0-1.0"", ""time_elapsed"": 199954, ""imgName"": ""/static/images/modifAE_linspace/aggressive/136255_0.553030303030303.png"", ""questions"": ""[{\""prompt\"":\""<p>How <b>aggressive</b> does this person look to <b>most people</b>? Rate from 1-9</p>\"",\""labels\"":[\""1 <br/><b>Not aggressive at all</b>\"",\""2\"",\""3\"",\""4\"",\""5\"",\""6\"",\""7\"",\""8\"",\""9  <br/><b>Extremely aggressive</b>\""],\""required\"":true}]"", ""task_unique_trial"": 100, ""task_name"": ""aggressive-modifae-single"", ""trial_index"": 91, ""isRepeat"": 0}"
ABL3H3O3BI8ZD:3IUZPWIU1QEZ1B5ULFEENBFIX08WKE,92,1548040404550,"{""rt"": 1154, ""trial_type"": ""face-likert-amanda"", ""debug_mode"": ""live"", ""task_type"": ""face trials"", ""responses"": ""{\""Q0\"":7}"", ""task_payment"": 1, ""task_version"": 1, ""internal_node_id"": ""0.0-10.0-0.0-2.0"", ""time_elapsed"": 201109, ""imgName"": ""/static/images/modifAE_linspace/aggressive/136261_0.643939393939394.png"", ""questions"": ""[{\""prompt\"":\""<p>How <b>aggressive</b> does this person look to <b>most people</b>? Rate from 1-9</p>\"",\""labels\"":[\""1 <br/><b>Not aggressive at all</b>\"",\""2\"",\""3\"",\""4\"",\""5\"",\""6\"",\""7\"",\""8\"",\""9  <br/><b>Extremely aggressive</b>\""],\""required\"":true}]"", ""task_unique_trial"": 100, ""task_name"": ""aggressive-modifae-single"", ""trial_index"": 92, ""isRepeat"": 0}"
ABL3H3O3BI8ZD:3IUZPWIU1QEZ1B5ULFEENBFIX08WKE,93,1548040405556,"{""rt"": 1005, ""trial_type"": ""face-likert-amanda"", ""debug_mode"": ""live"", ""task_type"": ""face trials"", ""responses"": ""{\""Q0\"":7}"", ""task_payment"": 1, ""task_version"": 1, ""internal_node_id"": ""0.0-10.0-0.0-3.0"", ""time_elapsed"": 202115, ""imgName"": ""/static/images/modifAE_linspace/aggressive/136227_0.12878787878787878.png"", ""questions"": ""[{\""prompt\"":\""<p>How <b>aggressive</b> does this person look to <b>most people</b>? Rate from 1-9</p>\"",\""labels\"":[\""1 <br/><b>Not aggressive at all</b>\"",\""2\"",\""3\"",\""4\"",\""5\"",\""6\"",\""7\"",\""8\"",\""9  <br/><b>Extremely aggressive</b>\""],\""required\"":true}]"", ""task_unique_trial"": 100, ""task_name"": ""aggressive-modifae-single"", ""trial_index"": 93, ""isRepeat"": 0}"
ABL3H3O3BI8ZD:3IUZPWIU1QEZ1B5ULFEENBFIX08WKE,94,1548040406635,"{""rt"": 1079, ""trial_type"": ""face-likert-amanda"", ""debug_mode"": ""live"", ""task_type"": ""face trials"", ""responses"": ""{\""Q0\"":7}"", ""task_payment"": 1, ""task_version"": 1, ""internal_node_id"": ""0.0-10.0-0.0-4.0"", ""time_elapsed"": 203194, ""imgName"": ""/static/images/modifAE_linspace/aggressive/136223_0.06818181818181823.png"", ""questions"": ""[{\""prompt\"":\""<p>How <b>aggressive</b> does this person look to <b>most people</b>? Rate from 1-9</p>\"",\""labels\"":[\""1 <br/><b>Not aggressive at all</b>\"",\""2\"",\""3\"",\""4\"",\""5\"",\""6\"",\""7\"",\""8\"",\""9  <br/><b>Extremely aggressive</b>\""],\""required\"":true}]"", ""task_unique_trial"": 100, ""task_name"": ""aggressive-modifae-single"", ""trial_index"": 94, ""isRepeat"": 0}"
ABL3H3O3BI8ZD:3IUZPWIU1QEZ1B5ULFEENBFIX08WKE,95,1548040407805,"{""rt"": 1168, ""trial_type"": ""face-likert-amanda"", ""debug_mode"": ""live"", ""task_type"": ""face trials"", ""responses"": ""{\""Q0\"":7}"", ""task_payment"": 1, ""task_version"": 1, ""internal_node_id"": ""0.0-10.0-0.0-5.0"", ""time_elapsed"": 204364, ""imgName"": ""/static/images/modifAE_linspace/aggressive/136268_0.75.png"", ""questions"": ""[{\""prompt\"":\""<p>How <b>aggressive</b> does this person look to <b>most people</b>? Rate from 1-9</p>\"",\""labels\"":[\""1 <br/><b>Not aggressive at all</b>\"",\""2\"",\""3\"",\""4\"",\""5\"",\""6\"",\""7\"",\""8\"",\""9  <br/><b>Extremely aggressive</b>\""],\""required\"":true}]"", ""task_unique_trial"": 100, ""task_name"": ""aggressive-modifae-single"", ""trial_index"": 95, ""isRepeat"": 0}"
ABL3H3O3BI8ZD:3IUZPWIU1QEZ1B5ULFEENBFIX08WKE,96,1548040408990,"{""rt"": 1184, ""trial_type"": ""face-likert-amanda"", ""debug_mode"": ""live"", ""task_type"": ""face trials"", ""responses"": ""{\""Q0\"":7}"", ""task_payment"": 1, ""task_version"": 1, ""internal_node_id"": ""0.0-10.0-0.0-6.0"", ""time_elapsed"": 205549, ""imgName"": ""/static/images/modifAE_linspace/aggressive/136197_-0.32575757575757575.png"", ""questions"": ""[{\""prompt\"":\""<p>How <b>aggressive</b> does this person look to <b>most people</b>? Rate from 1-9</p>\"",\""labels\"":[\""1 <br/><b>Not aggressive at all</b>\"",\""2\"",\""3\"",\""4\"",\""5\"",\""6\"",\""7\"",\""8\"",\""9  <br/><b>Extremely aggressive</b>\""],\""required\"":true}]"", ""task_unique_trial"": 100, ""task_name"": ""aggressive-modifae-single"", ""trial_index"": 96, ""isRepeat"": 0}"
ABL3H3O3BI8ZD:3IUZPWIU1QEZ1B5ULFEENBFIX08WKE,97,1548040410341,"{""rt"": 1349, ""trial_type"": ""face-likert-amanda"", ""debug_mode"": ""live"", ""task_type"": ""face trials"", ""responses"": ""{\""Q0\"":7}"", ""task_payment"": 1, ""task_version"": 1, ""internal_node_id"": ""0.0-10.0-0.0-7.0"", ""time_elapsed"": 206900, ""imgName"": ""/static/images/modifAE_linspace/aggressive/136266_0.7196969696969697.png"", ""questions"": ""[{\""prompt\"":\""<p>How <b>aggressive</b> does this person look to <b>most people</b>? Rate from 1-9</p>\"",\""labels\"":[\""1 <br/><b>Not aggressive at all</b>\"",\""2\"",\""3\"",\""4\"",\""5\"",\""6\"",\""7\"",\""8\"",\""9  <br/><b>Extremely aggressive</b>\""],\""required\"":true}]"", ""task_unique_trial"": 100, ""task_name"": ""aggressive-modifae-single"", ""trial_index"": 97, ""isRepeat"": 0}"
ABL3H3O3BI8ZD:3IUZPWIU1QEZ1B5ULFEENBFIX08WKE,98,1548040411691,"{""rt"": 1350, ""trial_type"": ""face-likert-amanda"", ""debug_mode"": ""live"", ""task_type"": ""face trials"", ""responses"": ""{\""Q0\"":7}"", ""task_payment"": 1, ""task_version"": 1, ""internal_node_id"": ""0.0-10.0-0.0-8.0"", ""time_elapsed"": 208250, ""imgName"": ""/static/images/modifAE_linspace/aggressive/136224_0.08333333333333337.png"", ""questions"": ""[{\""prompt\"":\""<p>How <b>aggressive</b> does this person look to <b>most people</b>? Rate from 1-9</p>\"",\""labels\"":[\""1 <br/><b>Not aggressive at all</b>\"",\""2\"",\""3\"",\""4\"",\""5\"",\""6\"",\""7\"",\""8\"",\""9  <br/><b>Extremely aggressive</b>\""],\""required\"":true}]"", ""task_unique_trial"": 100, ""task_name"": ""aggressive-modifae-single"", ""trial_index"": 98, ""isRepeat"": 0}"
ABL3H3O3BI8ZD:3IUZPWIU1QEZ1B5ULFEENBFIX08WKE,99,1548040413341,"{""rt"": 1648, ""trial_type"": ""face-likert-amanda"", ""debug_mode"": ""live"", ""task_type"": ""face trials"", ""responses"": ""{\""Q0\"":7}"", ""task_payment"": 1, ""task_version"": 1, ""internal_node_id"": ""0.0-10.0-0.0-9.0"", ""time_elapsed"": 209900, ""imgName"": ""/static/images/modifAE_linspace/aggressive/136264_0.6893939393939394.png"", ""questions"": ""[{\""prompt\"":\""<p>How <b>aggressive</b> does this person look to <b>most people</b>? Rate from 1-9</p>\"",\""labels\"":[\""1 <br/><b>Not aggressive at all</b>\"",\""2\"",\""3\"",\""4\"",\""5\"",\""6\"",\""7\"",\""8\"",\""9  <br/><b>Extremely aggressive</b>\""],\""required\"":true}]"", ""task_unique_trial"": 100, ""task_name"": ""aggressive-modifae-single"", ""trial_index"": 99, ""isRepeat"": 0}"
ABL3H3O3BI8ZD:3IUZPWIU1QEZ1B5ULFEENBFIX08WKE,100,1548040414343,"{""rt"": null, ""trial_type"": ""html-keyboard-response"", ""task_unique_trial"": 100, ""stimulus"": ""<p>Good job!</p>"", ""task_version"": 1, ""internal_node_id"": ""0.0-10.0-1.0"", ""task_payment"": 1, ""time_elapsed"": 210902, ""debug_mode"": ""live"", ""key_press"": null, ""task_name"": ""aggressive-modifae-single"", ""trial_index"": 100}"
ABL3H3O3BI8ZD:3IUZPWIU1QEZ1B5ULFEENBFIX08WKE,101,1548040416791,"{""rt"": 2448, ""trial_type"": ""face-likert-amanda"", ""debug_mode"": ""live"", ""task_type"": ""face trials"", ""responses"": ""{\""Q0\"":7}"", ""task_payment"": 1, ""task_version"": 1, ""internal_node_id"": ""0.0-11.0-0.0-0.0"", ""time_elapsed"": 213350, ""imgName"": ""/static/images/modifAE_linspace/aggressive/136196_-0.3409090909090909.png"", ""questions"": ""[{\""prompt\"":\""<p>How <b>aggressive</b> does this person look to <b>most people</b>? Rate from 1-9</p>\"",\""labels\"":[\""1 <br/><b>Not aggressive at all</b>\"",\""2\"",\""3\"",\""4\"",\""5\"",\""6\"",\""7\"",\""8\"",\""9  <br/><b>Extremely aggressive</b>\""],\""required\"":true}]"", ""task_unique_trial"": 100, ""task_name"": ""aggressive-modifae-single"", ""trial_index"": 101, ""isRepeat"": 0}"
ABL3H3O3BI8ZD:3IUZPWIU1QEZ1B5ULFEENBFIX08WKE,102,1548040419401,"{""rt"": 2609, ""trial_type"": ""face-likert-amanda"", ""debug_mode"": ""live"", ""task_type"": ""face trials"", ""responses"": ""{\""Q0\"":7}"", ""task_payment"": 1, ""task_version"": 1, ""internal_node_id"": ""0.0-11.0-0.0-1.0"", ""time_elapsed"": 215960, ""imgName"": ""/static/images/modifAE_linspace/aggressive/136200_-0.2803030303030303.png"", ""questions"": ""[{\""prompt\"":\""<p>How <b>aggressive</b> does this person look to <b>most people</b>? Rate from 1-9</p>\"",\""labels\"":[\""1 <br/><b>Not aggressive at all</b>\"",\""2\"",\""3\"",\""4\"",\""5\"",\""6\"",\""7\"",\""8\"",\""9  <br/><b>Extremely aggressive</b>\""],\""required\"":true}]"", ""task_unique_trial"": 100, ""task_name"": ""aggressive-modifae-single"", ""trial_index"": 102, ""isRepeat"": 0}"
ABL3H3O3BI8ZD:3IUZPWIU1QEZ1B5ULFEENBFIX08WKE,103,1548040423451,"{""rt"": 4049, ""trial_type"": ""face-likert-amanda"", ""debug_mode"": ""live"", ""task_type"": ""face trials"", ""responses"": ""{\""Q0\"":6}"", ""task_payment"": 1, ""task_version"": 1, ""internal_node_id"": ""0.0-11.0-0.0-2.0"", ""time_elapsed"": 220009, ""imgName"": ""/static/images/modifAE_linspace/aggressive/136229_0.15909090909090917.png"", ""questions"": ""[{\""prompt\"":\""<p>How <b>aggressive</b> does this person look to <b>most people</b>? Rate from 1-9</p>\"",\""labels\"":[\""1 <br/><b>Not aggressive at all</b>\"",\""2\"",\""3\"",\""4\"",\""5\"",\""6\"",\""7\"",\""8\"",\""9  <br/><b>Extremely aggressive</b>\""],\""required\"":true}]"", ""task_unique_trial"": 100, ""task_name"": ""aggressive-modifae-single"", ""trial_index"": 103, ""isRepeat"": 0}"
ABL3H3O3BI8ZD:3IUZPWIU1QEZ1B5ULFEENBFIX08WKE,104,1548040432841,"{""rt"": 9388, ""trial_type"": ""face-likert-amanda"", ""debug_mode"": ""live"", ""task_type"": ""face trials"", ""responses"": ""{\""Q0\"":5}"", ""task_payment"": 1, ""task_version"": 1, ""internal_node_id"": ""0.0-11.0-0.0-3.0"", ""time_elapsed"": 229399, ""imgName"": ""/static/images/modifAE_linspace/aggressive/136250_0.4772727272727273.png"", ""questions"": ""[{\""prompt\"":\""<p>How <b>aggressive</b> does this person look to <b>most people</b>? Rate from 1-9</p>\"",\""labels\"":[\""1 <br/><b>Not aggressive at all</b>\"",\""2\"",\""3\"",\""4\"",\""5\"",\""6\"",\""7\"",\""8\"",\""9  <br/><b>Extremely aggressive</b>\""],\""required\"":true}]"", ""task_unique_trial"": 100, ""task_name"": ""aggressive-modifae-single"", ""trial_index"": 104, ""isRepeat"": 0}"
ABL3H3O3BI8ZD:3IUZPWIU1QEZ1B5ULFEENBFIX08WKE,105,1548040444676,"{""rt"": 11833, ""trial_type"": ""face-likert-amanda"", ""debug_mode"": ""live"", ""task_type"": ""face trials"", ""responses"": ""{\""Q0\"":4}"", ""task_payment"": 1, ""task_version"": 1, ""internal_node_id"": ""0.0-11.0-0.0-4.0"", ""time_elapsed"": 241235, ""imgName"": ""/static/images/modifAE_linspace/aggressive/136180_-0.5833333333333333.png"", ""questions"": ""[{\""prompt\"":\""<p>How <b>aggressive</b> does this person look to <b>most people</b>? Rate from 1-9</p>\"",\""labels\"":[\""1 <br/><b>Not aggressive at all</b>\"",\""2\"",\""3\"",\""4\"",\""5\"",\""6\"",\""7\"",\""8\"",\""9  <br/><b>Extremely aggressive</b>\""],\""required\"":true}]"", ""task_unique_trial"": 100, ""task_name"": ""aggressive-modifae-single"", ""trial_index"": 105, ""isRepeat"": 0}"
ABL3H3O3BI8ZD:3IUZPWIU1QEZ1B5ULFEENBFIX08WKE,106,1548040448381,"{""rt"": 3705, ""trial_type"": ""face-likert-amanda"", ""debug_mode"": ""live"", ""task_type"": ""face trials"", ""responses"": ""{\""Q0\"":5}"", ""task_payment"": 1, ""task_version"": 1, ""internal_node_id"": ""0.0-11.0-0.0-5.0"", ""time_elapsed"": 244940, ""imgName"": ""/static/images/modifAE_linspace/aggressive/136210_-0.12878787878787878.png"", ""questions"": ""[{\""prompt\"":\""<p>How <b>aggressive</b> does this person look to <b>most people</b>? Rate from 1-9</p>\"",\""labels\"":[\""1 <br/><b>Not aggressive at all</b>\"",\""2\"",\""3\"",\""4\"",\""5\"",\""6\"",\""7\"",\""8\"",\""9  <br/><b>Extremely aggressive</b>\""],\""required\"":true}]"", ""task_unique_trial"": 100, ""task_name"": ""aggressive-modifae-single"", ""trial_index"": 106, ""isRepeat"": 0}"
ABL3H3O3BI8ZD:3IUZPWIU1QEZ1B5ULFEENBFIX08WKE,107,1548040456451,"{""rt"": 8068, ""trial_type"": ""face-likert-amanda"", ""debug_mode"": ""live"", ""task_type"": ""face trials"", ""responses"": ""{\""Q0\"":5}"", ""task_payment"": 1, ""task_version"": 1, ""internal_node_id"": ""0.0-11.0-0.0-6.0"", ""time_elapsed"": 253010, ""imgName"": ""/static/images/modifAE_linspace/aggressive/136266_0.7196969696969697.png"", ""questions"": ""[{\""prompt\"":\""<p>How <b>aggressive</b> does this person look to <b>most people</b>? Rate from 1-9</p>\"",\""labels\"":[\""1 <br/><b>Not aggressive at all</b>\"",\""2\"",\""3\"",\""4\"",\""5\"",\""6\"",\""7\"",\""8\"",\""9  <br/><b>Extremely aggressive</b>\""],\""required\"":true}]"", ""task_unique_trial"": 100, ""task_name"": ""aggressive-modifae-single"", ""trial_index"": 107, ""isRepeat"": 0}"
ABL3H3O3BI8ZD:3IUZPWIU1QEZ1B5ULFEENBFIX08WKE,108,1548040457621,"{""rt"": 1170, ""trial_type"": ""face-likert-amanda"", ""debug_mode"": ""live"", ""task_type"": ""face trials"", ""responses"": ""{\""Q0\"":5}"", ""task_payment"": 1, ""task_version"": 1, ""internal_node_id"": ""0.0-11.0-0.0-7.0"", ""time_elapsed"": 254180, ""imgName"": ""/static/images/modifAE_linspace/aggressive/136258_0.5984848484848486.png"", ""questions"": ""[{\""prompt\"":\""<p>How <b>aggressive</b> does this person look to <b>most people</b>? Rate from 1-9</p>\"",\""labels\"":[\""1 <br/><b>Not aggressive at all</b>\"",\""2\"",\""3\"",\""4\"",\""5\"",\""6\"",\""7\"",\""8\"",\""9  <br/><b>Extremely aggressive</b>\""],\""required\"":true}]"", ""task_unique_trial"": 100, ""task_name"": ""aggressive-modifae-single"", ""trial_index"": 108, ""isRepeat"": 0}"
ABL3H3O3BI8ZD:3IUZPWIU1QEZ1B5ULFEENBFIX08WKE,109,1548040462031,"{""rt"": 4410, ""trial_type"": ""face-likert-amanda"", ""debug_mode"": ""live"", ""task_type"": ""face trials"", ""responses"": ""{\""Q0\"":6}"", ""task_payment"": 1, ""task_version"": 1, ""internal_node_id"": ""0.0-11.0-0.0-8.0"", ""time_elapsed"": 258590, ""imgName"": ""/static/images/modifAE_linspace/aggressive/136177_-0.6287878787878788.png"", ""questions"": ""[{\""prompt\"":\""<p>How <b>aggressive</b> does this person look to <b>most people</b>? Rate from 1-9</p>\"",\""labels\"":[\""1 <br/><b>Not aggressive at all</b>\"",\""2\"",\""3\"",\""4\"",\""5\"",\""6\"",\""7\"",\""8\"",\""9  <br/><b>Extremely aggressive</b>\""],\""required\"":true}]"", ""task_unique_trial"": 100, ""task_name"": ""aggressive-modifae-single"", ""trial_index"": 109, ""isRepeat"": 0}"
ABL3H3O3BI8ZD:3IUZPWIU1QEZ1B5ULFEENBFIX08WKE,110,1548040465196,"{""rt"": 3163, ""trial_type"": ""face-likert-amanda"", ""debug_mode"": ""live"", ""task_type"": ""face trials"", ""responses"": ""{\""Q0\"":6}"", ""task_payment"": 1, ""task_version"": 1, ""internal_node_id"": ""0.0-11.0-0.0-9.0"", ""time_elapsed"": 261755, ""imgName"": ""/static/images/modifAE_linspace/aggressive/136233_0.21969696969696972.png"", ""questions"": ""[{\""prompt\"":\""<p>How <b>aggressive</b> does this person look to <b>most people</b>? Rate from 1-9</p>\"",\""labels\"":[\""1 <br/><b>Not aggressive at all</b>\"",\""2\"",\""3\"",\""4\"",\""5\"",\""6\"",\""7\"",\""8\"",\""9  <br/><b>Extremely aggressive</b>\""],\""required\"":true}]"", ""task_unique_trial"": 100, ""task_name"": ""aggressive-modifae-single"", ""trial_index"": 110, ""isRepeat"": 0}"
ABL3H3O3BI8ZD:3IUZPWIU1QEZ1B5ULFEENBFIX08WKE,111,1548040467198,"{""rt"": null, ""trial_type"": ""html-keyboard-response"", ""task_unique_trial"": 100, ""stimulus"": ""<p>Good job!</p>"", ""task_version"": 1, ""internal_node_id"": ""0.0-11.0-1.0"", ""task_payment"": 1, ""time_elapsed"": 263757, ""debug_mode"": ""live"", ""key_press"": null, ""task_name"": ""aggressive-modifae-single"", ""trial_index"": 111}"
ABL3H3O3BI8ZD:3IUZPWIU1QEZ1B5ULFEENBFIX08WKE,112,1548040469307,"{""rt"": 2108, ""trial_type"": ""survey-text-req"", ""task_type"": ""feedback for HIT"", ""responses"": ""{\""Q0\"":\""\""}"", ""task_payment"": 1, ""task_version"": 1, ""internal_node_id"": ""0.0-12.0"", ""time_elapsed"": 265866, ""debug_mode"": ""live"", ""task_name"": ""aggressive-modifae-single"", ""task_unique_trial"": 100, ""trial_index"": 112}"
AHNMLY8QCTPGB:3SLE99ER0PK22365QPLSNCQAR83ZBN,0,1548040641558,"{""rt"": 62609, ""trial_type"": ""instructions"", ""view_history"": ""[{\""page_index\"":0,\""viewing_time\"":14737},{\""page_index\"":1,\""viewing_time\"":17535},{\""page_index\"":2,\""viewing_time\"":30336}]"", ""task_type"": ""instruction"", ""task_payment"": 1, ""task_version"": 1, ""internal_node_id"": ""0.0-0.0"", ""time_elapsed"": 62617, ""debug_mode"": ""live"", ""task_name"": ""aggressive-modifae-single"", ""task_unique_trial"": 100, ""trial_index"": 0}"
AHNMLY8QCTPGB:3SLE99ER0PK22365QPLSNCQAR83ZBN,1,1548040686796,"{""rt"": 45216, ""trial_type"": ""survey-multi-choice"", ""task_type"": ""demographic-multichoice"", ""responses"": ""{\""Q0\"":\""26-35\"",\""Q1\"":\""Male\"",\""Q2\"":\""No\"",\""Q3\"":\""1\"",\""Q4\"":\""Asian\"",\""Q5\"":\""Bachelor&#8217;s degree (e.g. BA, BS) or above\"",\""Q6\"":\""$75,000 and above\""}"", ""task_payment"": 1, ""task_version"": 1, ""time_elapsed"": 107855, ""sanity_check_1_continue"": true, ""random_num"": 1, ""debug_mode"": ""live"", ""questions"": ""[{\""prompt\"":\""What is your age?\"",\""options\"":[\""Under 18\"",\""18-25\"",\""26-35\"",\""36-45\"",\""46-55\"",\""56+\""],\""required\"":true},{\""prompt\"":\""What is your gender?\"",\""options\"":[\""Male\"",\""Female\"",\""Other/Prefer not to say\""],\""required\"":true},{\""prompt\"":\""Are you of Hispanic, Latino, or Spanish origin?\"",\""options\"":[\""Yes\"",\""No\""],\""required\"":true},{\""prompt\"":\""Please choose the option that matches the number here: 1\"",\""options\"":[\""1\"",\""2\"",\""3\"",\""4\""],\""required\"":true},{\""prompt\"":\""How would you describe yourself?\"",\""options\"":[\""American Indian or Alaskan Native\"",\""Asian\"",\""Black or African-American\"",\""Native Hawaiian or Other Pacific Islander\"",\""White\""],\""required\"":true},{\""prompt\"":\""What is the highest degree or level of school you have completed? (If you&#8217;re currently enrolled in school, please indicate the highest degree you have received)\"",\""options\"":[\""Less than a high school diploma\"",\""High school degree or equivalent (e.g. GED)\"",\""Some college, no degree\"",\""Associate degree (e.g. AA, AS)\"",\""Bachelor&#8217;s degree (e.g. BA, BS) or above\""],\""required\"":true},{\""prompt\"":\""What is the total income of all members of your household?\"",\""options\"":[\""Less than $20,000\"",\""$20,000  - $49,999\"",\""$50,000 - $74,999\"",\""$75,000 and above\""],\""required\"":true}]"", ""internal_node_id"": ""0.0-1.0-0.0"", ""task_unique_trial"": 100, ""task_name"": ""aggressive-modifae-single"", ""trial_index"": 1}"
AHNMLY8QCTPGB:3SLE99ER0PK22365QPLSNCQAR83ZBN,2,1548040696255,"{""rt"": 9456, ""trial_type"": ""face-likert-amanda"", ""debug_mode"": ""live"", ""task_type"": ""face trials"", ""responses"": ""{\""Q0\"":0}"", ""task_payment"": 1, ""task_version"": 1, ""internal_node_id"": ""0.0-2.0-0.0-0.0"", ""time_elapsed"": 117315, ""imgName"": ""/static/images/modifAE_linspace/aggressive/136232_0.20454545454545459.png"", ""questions"": ""[{\""prompt\"":\""<p>How <b>aggressive</b> does this person look to <b>most people</b>? Rate from 1-9</p>\"",\""labels\"":[\""1 <br/><b>Not aggressive at all</b>\"",\""2\"",\""3\"",\""4\"",\""5\"",\""6\"",\""7\"",\""8\"",\""9  <br/><b>Extremely aggressive</b>\""],\""required\"":true}]"", ""task_unique_trial"": 100, ""task_name"": ""aggressive-modifae-single"", ""trial_index"": 2, ""isRepeat"": 0}"
AHNMLY8QCTPGB:3SLE99ER0PK22365QPLSNCQAR83ZBN,3,1548040703597,"{""rt"": 7338, ""trial_type"": ""face-likert-amanda"", ""debug_mode"": ""live"", ""task_type"": ""face trials"", ""responses"": ""{\""Q0\"":1}"", ""task_payment"": 1, ""task_version"": 1, ""internal_node_id"": ""0.0-2.0-0.0-1.0"", ""time_elapsed"": 124657, ""imgName"": ""/static/images/modifAE_linspace/aggressive/136257_0.5833333333333335.png"", ""questions"": ""[{\""prompt\"":\""<p>How <b>aggressive</b> does this person look to <b>most people</b>? Rate from 1-9</p>\"",\""labels\"":[\""1 <br/><b>Not aggressive at all</b>\"",\""2\"",\""3\"",\""4\"",\""5\"",\""6\"",\""7\"",\""8\"",\""9  <br/><b>Extremely aggressive</b>\""],\""required\"":true}]"", ""task_unique_trial"": 100, ""task_name"": ""aggressive-modifae-single"", ""trial_index"": 3, ""isRepeat"": 0}"
AHNMLY8QCTPGB:3SLE99ER0PK22365QPLSNCQAR83ZBN,4,1548040712676,"{""rt"": 9076, ""trial_type"": ""face-likert-amanda"", ""debug_mode"": ""live"", ""task_type"": ""face trials"", ""responses"": ""{\""Q0\"":6}"", ""task_payment"": 1, ""task_version"": 1, ""internal_node_id"": ""0.0-2.0-0.0-2.0"", ""time_elapsed"": 133736, ""imgName"": ""/static/images/modifAE_linspace/aggressive/136183_-0.5378787878787878.png"", ""questions"": ""[{\""prompt\"":\""<p>How <b>aggressive</b> does this person look to <b>most people</b>? Rate from 1-9</p>\"",\""labels\"":[\""1 <br/><b>Not aggressive at all</b>\"",\""2\"",\""3\"",\""4\"",\""5\"",\""6\"",\""7\"",\""8\"",\""9  <br/><b>Extremely aggressive</b>\""],\""required\"":true}]"", ""task_unique_trial"": 100, ""task_name"": ""aggressive-modifae-single"", ""trial_index"": 4, ""isRepeat"": 0}"
AHNMLY8QCTPGB:3SLE99ER0PK22365QPLSNCQAR83ZBN,5,1548040719886,"{""rt"": 7207, ""trial_type"": ""face-likert-amanda"", ""debug_mode"": ""live"", ""task_type"": ""face trials"", ""responses"": ""{\""Q0\"":0}"", ""task_payment"": 1, ""task_version"": 1, ""internal_node_id"": ""0.0-2.0-0.0-3.0"", ""time_elapsed"": 140945, ""imgName"": ""/static/images/modifAE_linspace/aggressive/136266_0.7196969696969697.png"", ""questions"": ""[{\""prompt\"":\""<p>How <b>aggressive</b> does this person look to <b>most people</b>? Rate from 1-9</p>\"",\""labels\"":[\""1 <br/><b>Not aggressive at all</b>\"",\""2\"",\""3\"",\""4\"",\""5\"",\""6\"",\""7\"",\""8\"",\""9  <br/><b>Extremely aggressive</b>\""],\""required\"":true}]"", ""task_unique_trial"": 100, ""task_name"": ""aggressive-modifae-single"", ""trial_index"": 5, ""isRepeat"": 0}"
AHNMLY8QCTPGB:3SLE99ER0PK22365QPLSNCQAR83ZBN,6,1548040726517,"{""rt"": 6628, ""trial_type"": ""face-likert-amanda"", ""debug_mode"": ""live"", ""task_type"": ""face trials"", ""responses"": ""{\""Q0\"":6}"", ""task_payment"": 1, ""task_version"": 1, ""internal_node_id"": ""0.0-2.0-0.0-4.0"", ""time_elapsed"": 147577, ""imgName"": ""/static/images/modifAE_linspace/aggressive/136231_0.18939393939393945.png"", ""questions"": ""[{\""prompt\"":\""<p>How <b>aggressive</b> does this person look to <b>most people</b>? Rate from 1-9</p>\"",\""labels\"":[\""1 <br/><b>Not aggressive at all</b>\"",\""2\"",\""3\"",\""4\"",\""5\"",\""6\"",\""7\"",\""8\"",\""9  <br/><b>Extremely aggressive</b>\""],\""required\"":true}]"", ""task_unique_trial"": 100, ""task_name"": ""aggressive-modifae-single"", ""trial_index"": 6, ""isRepeat"": 0}"
AHNMLY8QCTPGB:3SLE99ER0PK22365QPLSNCQAR83ZBN,7,1548040729917,"{""rt"": 3397, ""trial_type"": ""face-likert-amanda"", ""debug_mode"": ""live"", ""task_type"": ""face trials"", ""responses"": ""{\""Q0\"":0}"", ""task_payment"": 1, ""task_version"": 1, ""internal_node_id"": ""0.0-2.0-0.0-5.0"", ""time_elapsed"": 150977, ""imgName"": ""/static/images/modifAE_linspace/aggressive/136255_0.553030303030303.png"", ""questions"": ""[{\""prompt\"":\""<p>How <b>aggressive</b> does this person look to <b>most people</b>? Rate from 1-9</p>\"",\""labels\"":[\""1 <br/><b>Not aggressive at all</b>\"",\""2\"",\""3\"",\""4\"",\""5\"",\""6\"",\""7\"",\""8\"",\""9  <br/><b>Extremely aggressive</b>\""],\""required\"":true}]"", ""task_unique_trial"": 100, ""task_name"": ""aggressive-modifae-single"", ""trial_index"": 7, ""isRepeat"": 0}"
AHNMLY8QCTPGB:3SLE99ER0PK22365QPLSNCQAR83ZBN,8,1548040733789,"{""rt"": 3868, ""trial_type"": ""face-likert-amanda"", ""debug_mode"": ""live"", ""task_type"": ""face trials"", ""responses"": ""{\""Q0\"":4}"", ""task_payment"": 1, ""task_version"": 1, ""internal_node_id"": ""0.0-2.0-0.0-6.0"", ""time_elapsed"": 154849, ""imgName"": ""/static/images/modifAE_linspace/aggressive/136208_-0.15909090909090906.png"", ""questions"": ""[{\""prompt\"":\""<p>How <b>aggressive</b> does this person look to <b>most people</b>? Rate from 1-9</p>\"",\""labels\"":[\""1 <br/><b>Not aggressive at all</b>\"",\""2\"",\""3\"",\""4\"",\""5\"",\""6\"",\""7\"",\""8\"",\""9  <br/><b>Extremely aggressive</b>\""],\""required\"":true}]"", ""task_unique_trial"": 100, ""task_name"": ""aggressive-modifae-single"", ""trial_index"": 8, ""isRepeat"": 0}"
AHNMLY8QCTPGB:3SLE99ER0PK22365QPLSNCQAR83ZBN,9,1548040737341,"{""rt"": 3550, ""trial_type"": ""face-likert-amanda"", ""debug_mode"": ""live"", ""task_type"": ""face trials"", ""responses"": ""{\""Q0\"":1}"", ""task_payment"": 1, ""task_version"": 1, ""internal_node_id"": ""0.0-2.0-0.0-7.0"", ""time_elapsed"": 158401, ""imgName"": ""/static/images/modifAE_linspace/aggressive/136180_-0.5833333333333333.png"", ""questions"": ""[{\""prompt\"":\""<p>How <b>aggressive</b> does this person look to <b>most people</b>? Rate from 1-9</p>\"",\""labels\"":[\""1 <br/><b>Not aggressive at all</b>\"",\""2\"",\""3\"",\""4\"",\""5\"",\""6\"",\""7\"",\""8\"",\""9  <br/><b>Extremely aggressive</b>\""],\""required\"":true}]"", ""task_unique_trial"": 100, ""task_name"": ""aggressive-modifae-single"", ""trial_index"": 9, ""isRepeat"": 0}"
