,Id,trial,rt,trial_type,internal_node_id,time_elapsed,trial_index,responses,view_history,prompt,required,labels,options,horizontal
0,debugC9Q0J2:debugRW0BVN,1540317457046,3138,instructions,0.0-0.0,3141,0,,"[{""page_index"":0,""viewing_time"":3138}]",,,,,
1,debugC9Q0J2:debugRW0BVN,1540317468282,11233,face-prisdil-continuous,0.0-1.0,14378,1,"{""slider_value"":""62""}",,"You can see the other person&#8217;s picture, but they cannot see yours. SPECIFY QUESTION HERE:",True,,"['Play A', 'Play B']",False
2,debugC9Q0J2:debugRW0BVN,1540317473819,5534,face-multi-choice,0.0-2.0,19915,2,"{""Q0"":""Play A""}",,Would you:,True,,"['Play A', 'Play B']",False
3,debugC9Q0J2:debugRW0BVN,1540317476192,2370,face-likert,0.0-3.0,22288,3,"{""Q0"":8}",,How willing or unwilling do you think this person is to take risks?,True,"['0 (Completely unwilling to take risks)', '1', '2', '3', '4', '5', '6', '7', '8', '9', '10 (Very willing to take risks)']",,
4,debugC9Q0J2:debugRW0BVN,1540317482323,6131,face-likert,0.0-4.0,28419,4,"{""Q0"":7}",,How willing do you think this person is to give up something that is beneficial for them today in order to benefit more in the future?,True,"['0 (Completely unwilling to do so)', '1', '2', '3', '4', '5', '6', '7', '8', '9', '10 (Very willing to do so)']",,
5,debugC9Q0J2:debugRW0BVN,1540317485700,3376,face-likert,0.0-5.0,31796,5,"{""Q0"":2}",,How willing do you think this person is to give to good causes without expecting anything in return?,True,"['0 (Completely unwilling to do so)', '1', '2', '3', '4', '5', '6', '7', '8', '9', '10 (Very willing to do so)']",,
6,debugC9Q0J2:debugRW0BVN,1540317487774,2073,face-likert,0.0-6.0,33870,6,"{""Q0"":7}",,<i>Please tell us how well you think the following statement describes this person:</i> they assume that people have only the best intentions.,True,"['0 (Does not describe them at all)', '1', '2', '3', '4', '5', '6', '7', '8', '9', '10 (Describes them perfectly)']",,
7,debugC9Q0J2:debugRW0BVN,1540317490406,2630,face-likert,0.0-7.0,36502,7,"{""Q0"":7}",,"How willing do you think this person is to punish someone who treats <b>them</b> unfairly, even if there may be costs to themselves?",True,"['0 (Completely unwilling to do so)', '1', '2', '3', '4', '5', '6', '7', '8', '9', '10 (Very willing to do so)']",,
8,debugC9Q0J2:debugRW0BVN,1540317493621,3215,face-likert,0.0-8.0,39717,8,"{""Q0"":8}",,<i>Please tell us how well you think the following statement describes this person:</i> when someone does them a favor they are willing to return it.,True,"['0 (Does not describe them at all)', '1', '2', '3', '4', '5', '6', '7', '8', '9', '10 (Describes them perfectly)']",,
9,debugC9Q0J2:debugRW0BVN,1540317498584,4961,face-likert,0.0-9.0,44680,9,"{""Q0"":6}",,"How attractive (i.e., appealing to the senses through beauty, form, character, etc) is this person?",True,"['1 (not at all)', '2', '3', '4', '5', '6', '7', '8', '9 (very)']",,
10,debugC9Q0J2:debugRW0BVN,1540317538020,39433,face-prisdil-continuous,0.0-10.0,84116,10,"{""slider_value"":""63""}",,"You can see the other person&#8217;s picture, but they cannot see yours. SPECIFY QUESTION HERE:",True,,"['Play A', 'Play B']",False
11,debugC9Q0J2:debugRW0BVN,1540317543024,5002,face-multi-choice,0.0-11.0,89120,11,"{""Q0"":""Play A""}",,Would you:,True,,"['Play A', 'Play B']",False
12,debugC9Q0J2:debugRW0BVN,1540317547823,4796,face-likert,0.0-12.0,93919,12,"{""Q0"":7}",,How willing or unwilling do you think this person is to take risks?,True,"['0 (Completely unwilling to take risks)', '1', '2', '3', '4', '5', '6', '7', '8', '9', '10 (Very willing to take risks)']",,
13,debugC9Q0J2:debugRW0BVN,1540317554950,7127,face-likert,0.0-13.0,101046,13,"{""Q0"":3}",,How willing do you think this person is to give up something that is beneficial for them today in order to benefit more in the future?,True,"['0 (Completely unwilling to do so)', '1', '2', '3', '4', '5', '6', '7', '8', '9', '10 (Very willing to do so)']",,
14,debugC9Q0J2:debugRW0BVN,1540317560847,5895,face-likert,0.0-14.0,106943,14,"{""Q0"":8}",,How willing do you think this person is to give to good causes without expecting anything in return?,True,"['0 (Completely unwilling to do so)', '1', '2', '3', '4', '5', '6', '7', '8', '9', '10 (Very willing to do so)']",,
15,debugC9Q0J2:debugRW0BVN,1540317566126,5277,face-likert,0.0-15.0,112222,15,"{""Q0"":8}",,<i>Please tell us how well you think the following statement describes this person:</i> they assume that people have only the best intentions.,True,"['0 (Does not describe them at all)', '1', '2', '3', '4', '5', '6', '7', '8', '9', '10 (Describes them perfectly)']",,
16,debugC9Q0J2:debugRW0BVN,1540317570348,4221,face-likert,0.0-16.0,116444,16,"{""Q0"":8}",,"How willing do you think this person is to punish someone who treats <b>them</b> unfairly, even if there may be costs to themselves?",True,"['0 (Completely unwilling to do so)', '1', '2', '3', '4', '5', '6', '7', '8', '9', '10 (Very willing to do so)']",,
17,debugC9Q0J2:debugRW0BVN,1540317582279,11928,face-likert,0.0-17.0,128375,17,"{""Q0"":7}",,<i>Please tell us how well you think the following statement describes this person:</i> when someone does them a favor they are willing to return it.,True,"['0 (Does not describe them at all)', '1', '2', '3', '4', '5', '6', '7', '8', '9', '10 (Describes them perfectly)']",,
18,debugC9Q0J2:debugRW0BVN,1540317586348,4069,face-likert,0.0-18.0,132444,18,"{""Q0"":6}",,"How attractive (i.e., appealing to the senses through beauty, form, character, etc) is this person?",True,"['1 (not at all)', '2', '3', '4', '5', '6', '7', '8', '9 (very)']",,
19,debugG056JE:debugCOYUIT,1541028825405,23955,instructions,0.0-0.0,23958,0,,"[{""page_index"":0,""viewing_time"":23954}]",,,,,
20,debugG056JE:debugCOYUIT,1541028826782,1377,instructions,0.0-1.0,25335,1,,"[{""page_index"":0,""viewing_time"":1377}]",,,,,
21,debugG056JE:debugCOYUIT,1541028837070,10284,face-multi-choice,0.0-2.0,35623,2,"{""Q0"":""Play B""}",,What do you think the other person will choose?,True,"['I think he/she will definitely choose A', '2', '3', '4', '5', '6', '7', '8', '9 (very)', 'I think he/she will definitely choose B']","['Play A', 'Play B']",False
22,debugG056JE:debugCOYUIT,1541028840752,3681,face-multi-choice,0.0-3.0,39305,3,"{""Q0"":""Play A""}",,What do you think the other person will choose?,True,"['I think he/she will definitely choose A', '2', '3', '4', '5', '6', '7', '8', '9 (very)', 'I think he/she will definitely choose B']","['Play A', 'Play B']",False
23,debugG056JE:debugCOYUIT,1541028843396,2639,face-prisdil-continuous,0.0-4.0,41949,4,"{""slider_value"":""50""}",,"You can see the other person&#8217;s picture, but they cannot see yours. SPECIFY QUESTION HERE:",True,,"['Play A', 'Play B']",False
24,debugG056JE:debugCOYUIT,1541028845963,2565,face-multi-choice,0.0-5.0,44516,5,"{""Q0"":""Play B""}",,Would you:,True,,"['Play A', 'Play B']",False
25,debugG056JE:debugCOYUIT,1541028848408,2442,face-likert,0.0-6.0,46961,6,"{""Q0"":7}",,How willing or unwilling do you think this person is to take risks?,True,"['0 (Completely unwilling to take risks)', '1', '2', '3', '4', '5', '6', '7', '8', '9', '10 (Very willing to take risks)']",,
26,debugG056JE:debugCOYUIT,1541028850090,1680,face-likert,0.0-7.0,48642,7,"{""Q0"":6}",,How willing do you think this person is to give up something that is beneficial for them today in order to benefit more in the future?,True,"['0 (Completely unwilling to do so)', '1', '2', '3', '4', '5', '6', '7', '8', '9', '10 (Very willing to do so)']",,
27,debugG056JE:debugCOYUIT,1541028851733,1642,face-likert,0.0-8.0,50286,8,"{""Q0"":4}",,How willing do you think this person is to give to good causes without expecting anything in return?,True,"['0 (Completely unwilling to do so)', '1', '2', '3', '4', '5', '6', '7', '8', '9', '10 (Very willing to do so)']",,
28,debugG056JE:debugCOYUIT,1541028857786,6051,face-likert,0.0-9.0,56339,9,"{""Q0"":2}",,<i>Please tell us how well you think the following statement describes this person:</i> they assume that people have only the best intentions.,True,"['0 (Does not describe them at all)', '1', '2', '3', '4', '5', '6', '7', '8', '9', '10 (Describes them perfectly)']",,
29,debugG056JE:debugCOYUIT,1541028861462,3675,face-likert,0.0-10.0,60015,10,"{""Q0"":8}",,"How willing do you think this person is to punish someone who treats <b>them</b> unfairly, even if there may be costs to themselves?",True,"['0 (Completely unwilling to do so)', '1', '2', '3', '4', '5', '6', '7', '8', '9', '10 (Very willing to do so)']",,
30,debugG056JE:debugCOYUIT,1541028863329,1864,face-likert,0.0-11.0,61882,11,"{""Q0"":5}",,<i>Please tell us how well you think the following statement describes this person:</i> when someone does them a favor they are willing to return it.,True,"['0 (Does not describe them at all)', '1', '2', '3', '4', '5', '6', '7', '8', '9', '10 (Describes them perfectly)']",,
31,debugG056JE:debugCOYUIT,1541028865101,1770,face-likert,0.0-12.0,63654,12,"{""Q0"":2}",,"How attractive (i.e., appealing to the senses through beauty, form, character, etc) is this person?",True,"['1 (not at all)', '2', '3', '4', '5', '6', '7', '8', '9 (very)']",,
32,debugG056JE:debugCOYUIT,1541028871698,6594,face-prisdil-continuous,0.0-13.0,70251,13,"{""slider_value"":""50""}",,"You can see the other person&#8217;s picture, but they cannot see yours. SPECIFY QUESTION HERE:",True,,"['Play A', 'Play B']",False
33,debugG056JE:debugCOYUIT,1541028873829,2130,face-multi-choice,0.0-14.0,72382,14,"{""Q0"":""Play B""}",,Would you:,True,,"['Play A', 'Play B']",False
34,debugG056JE:debugCOYUIT,1541028880194,6363,face-likert,0.0-15.0,78747,15,"{""Q0"":7}",,How willing or unwilling do you think this person is to take risks?,True,"['0 (Completely unwilling to take risks)', '1', '2', '3', '4', '5', '6', '7', '8', '9', '10 (Very willing to take risks)']",,
35,debugG056JE:debugCOYUIT,1541028882849,2655,face-likert,0.0-16.0,81402,16,"{""Q0"":2}",,How willing do you think this person is to give up something that is beneficial for them today in order to benefit more in the future?,True,"['0 (Completely unwilling to do so)', '1', '2', '3', '4', '5', '6', '7', '8', '9', '10 (Very willing to do so)']",,
36,debugG056JE:debugCOYUIT,1541028885134,2283,face-likert,0.0-17.0,83687,17,"{""Q0"":7}",,How willing do you think this person is to give to good causes without expecting anything in return?,True,"['0 (Completely unwilling to do so)', '1', '2', '3', '4', '5', '6', '7', '8', '9', '10 (Very willing to do so)']",,
37,debugG056JE:debugCOYUIT,1541028886806,1671,face-likert,0.0-18.0,85359,18,"{""Q0"":4}",,<i>Please tell us how well you think the following statement describes this person:</i> they assume that people have only the best intentions.,True,"['0 (Does not describe them at all)', '1', '2', '3', '4', '5', '6', '7', '8', '9', '10 (Describes them perfectly)']",,
38,debugG056JE:debugCOYUIT,1541028888235,1428,face-likert,0.0-19.0,86788,19,"{""Q0"":5}",,"How willing do you think this person is to punish someone who treats <b>them</b> unfairly, even if there may be costs to themselves?",True,"['0 (Completely unwilling to do so)', '1', '2', '3', '4', '5', '6', '7', '8', '9', '10 (Very willing to do so)']",,
39,debugG056JE:debugCOYUIT,1541028890271,2035,face-likert,0.0-20.0,88824,20,"{""Q0"":5}",,<i>Please tell us how well you think the following statement describes this person:</i> when someone does them a favor they are willing to return it.,True,"['0 (Does not describe them at all)', '1', '2', '3', '4', '5', '6', '7', '8', '9', '10 (Describes them perfectly)']",,
40,debugG056JE:debugCOYUIT,1541028893289,3016,face-likert,0.0-21.0,91842,21,"{""Q0"":2}",,"How attractive (i.e., appealing to the senses through beauty, form, character, etc) is this person?",True,"['1 (not at all)', '2', '3', '4', '5', '6', '7', '8', '9 (very)']",,
41,debugO5S0SO:debugFENK7R,1541204587213,3541,face-likert,0.0-0.0,3544,0,"{""Q0"":8}",,How willing or unwilling do you think this person is to take risks?,True,"['0 (Completely unwilling to take risks)', '1', '2', '3', '4', '5', '6', '7', '8', '9', '10 (Very willing to take risks)']",,
42,debugO5S0SO:debugFENK7R,1541204597052,9837,face-likert,0.0-1.0,13383,1,"{""Q0"":7}",,How willing or unwilling do you think this person is to take risks?,True,"['0 (Completely unwilling to take risks)', '1', '2', '3', '4', '5', '6', '7', '8', '9', '10 (Very willing to take risks)']",,
43,debugAPDDQI:debugU8E81D,1541465183739,16593,instructions,0.0-0.0,16594,0,,"[{""page_index"":0,""viewing_time"":16592}]",,,,,
44,debugAPDDQI:debugU8E81D,1541465248372,64625,survey-multi-choice,0.0-1.0,81228,1,"{""Q0"":""26-35"",""Q1"":""Female"",""Q2"":""Asian"",""Q3"":""Master&#8217;s degree"",""Q4"":""4""}",,What is your age?,True,,"['Under 18', '18-25', '26-35', '36-45', 'Over 46']",
45,debugAPDDQI:debugU8E81D,1541465316380,68006,face-likert,0.0-2.0,149236,2,"{""Q0"":5}",,How willing or unwilling do you think this person is to take risks?,True,"['0 (Completely unwilling to take risks)', '1', '2', '3', '4', '5', '6', '7', '8', '9', '10 (Very willing to take risks)']",,
46,debugAPDDQI:debugU8E81D,1541465327554,11172,face-likert,0.0-3.0,160410,3,"{""Q0"":4}",,How willing or unwilling do you think this person is to take risks?,True,"['0 (Completely unwilling to take risks)', '1', '2', '3', '4', '5', '6', '7', '8', '9', '10 (Very willing to take risks)']",,
47,debugAPDDQI:debugU8E81D,1541465330631,3075,face-likert,0.0-4.0,163487,4,"{""Q0"":6}",,How willing or unwilling do you think this person is to take risks?,True,"['0 (Completely unwilling to take risks)', '1', '2', '3', '4', '5', '6', '7', '8', '9', '10 (Very willing to take risks)']",,
48,debugAPDDQI:debugU8E81D,1541465333923,3292,face-likert,0.0-5.0,166779,5,"{""Q0"":7}",,How willing or unwilling do you think this person is to take risks?,True,"['0 (Completely unwilling to take risks)', '1', '2', '3', '4', '5', '6', '7', '8', '9', '10 (Very willing to take risks)']",,
49,debugAPDDQI:debugU8E81D,1541465336953,3028,face-likert,0.0-6.0,169809,6,"{""Q0"":7}",,How willing or unwilling do you think this person is to take risks?,True,"['0 (Completely unwilling to take risks)', '1', '2', '3', '4', '5', '6', '7', '8', '9', '10 (Very willing to take risks)']",,
50,debugAPDDQI:debugU8E81D,1541465340780,3825,face-likert,0.0-7.0,173636,7,"{""Q0"":7}",,How willing or unwilling do you think this person is to take risks?,True,"['0 (Completely unwilling to take risks)', '1', '2', '3', '4', '5', '6', '7', '8', '9', '10 (Very willing to take risks)']",,
51,debugAPDDQI:debugU8E81D,1541465344450,3669,face-likert,0.0-8.0,177306,8,"{""Q0"":4}",,How willing or unwilling do you think this person is to take risks?,True,"['0 (Completely unwilling to take risks)', '1', '2', '3', '4', '5', '6', '7', '8', '9', '10 (Very willing to take risks)']",,
52,debugAPDDQI:debugU8E81D,1541465348750,4298,face-likert,0.0-9.0,181606,9,"{""Q0"":7}",,How willing or unwilling do you think this person is to take risks?,True,"['0 (Completely unwilling to take risks)', '1', '2', '3', '4', '5', '6', '7', '8', '9', '10 (Very willing to take risks)']",,
53,debugAPDDQI:debugU8E81D,1541465351753,3002,face-likert,0.0-10.0,184609,10,"{""Q0"":8}",,How willing or unwilling do you think this person is to take risks?,True,"['0 (Completely unwilling to take risks)', '1', '2', '3', '4', '5', '6', '7', '8', '9', '10 (Very willing to take risks)']",,
54,debugAPDDQI:debugU8E81D,1541465354748,2994,face-likert,0.0-11.0,187604,11,"{""Q0"":5}",,How willing or unwilling do you think this person is to take risks?,True,"['0 (Completely unwilling to take risks)', '1', '2', '3', '4', '5', '6', '7', '8', '9', '10 (Very willing to take risks)']",,
55,debugAPDDQI:debugU8E81D,1541465358338,3588,face-likert,0.0-12.0,191194,12,"{""Q0"":5}",,How willing or unwilling do you think this person is to take risks?,True,"['0 (Completely unwilling to take risks)', '1', '2', '3', '4', '5', '6', '7', '8', '9', '10 (Very willing to take risks)']",,
56,debugAPDDQI:debugU8E81D,1541465361758,3419,face-likert,0.0-13.0,194614,13,"{""Q0"":4}",,How willing or unwilling do you think this person is to take risks?,True,"['0 (Completely unwilling to take risks)', '1', '2', '3', '4', '5', '6', '7', '8', '9', '10 (Very willing to take risks)']",,
57,debugAPDDQI:debugU8E81D,1541465366556,4796,face-likert,0.0-14.0,199412,14,"{""Q0"":4}",,How willing or unwilling do you think this person is to take risks?,True,"['0 (Completely unwilling to take risks)', '1', '2', '3', '4', '5', '6', '7', '8', '9', '10 (Very willing to take risks)']",,
58,debugAPDDQI:debugU8E81D,1541465373376,6820,face-likert,0.0-15.0,206232,15,"{""Q0"":6}",,How willing or unwilling do you think this person is to take risks?,True,"['0 (Completely unwilling to take risks)', '1', '2', '3', '4', '5', '6', '7', '8', '9', '10 (Very willing to take risks)']",,
59,debugAPDDQI:debugU8E81D,1541465379286,5908,face-likert,0.0-16.0,212142,16,"{""Q0"":6}",,How willing or unwilling do you think this person is to take risks?,True,"['0 (Completely unwilling to take risks)', '1', '2', '3', '4', '5', '6', '7', '8', '9', '10 (Very willing to take risks)']",,
60,debugAPDDQI:debugU8E81D,1541465383934,4646,face-likert,0.0-17.0,216790,17,"{""Q0"":6}",,How willing or unwilling do you think this person is to take risks?,True,"['0 (Completely unwilling to take risks)', '1', '2', '3', '4', '5', '6', '7', '8', '9', '10 (Very willing to take risks)']",,
61,debugAPDDQI:debugU8E81D,1541465386364,2429,face-likert,0.0-18.0,219219,18,"{""Q0"":6}",,How willing or unwilling do you think this person is to take risks?,True,"['0 (Completely unwilling to take risks)', '1', '2', '3', '4', '5', '6', '7', '8', '9', '10 (Very willing to take risks)']",,
62,debugAPDDQI:debugU8E81D,1541465389624,3258,face-likert,0.0-19.0,222480,19,"{""Q0"":4}",,How willing or unwilling do you think this person is to take risks?,True,"['0 (Completely unwilling to take risks)', '1', '2', '3', '4', '5', '6', '7', '8', '9', '10 (Very willing to take risks)']",,
63,debugAPDDQI:debugU8E81D,1541465393229,3604,face-likert,0.0-20.0,226085,20,"{""Q0"":7}",,How willing or unwilling do you think this person is to take risks?,True,"['0 (Completely unwilling to take risks)', '1', '2', '3', '4', '5', '6', '7', '8', '9', '10 (Very willing to take risks)']",,
64,debugAPDDQI:debugU8E81D,1541465396074,2844,face-likert,0.0-21.0,228930,21,"{""Q0"":8}",,How willing or unwilling do you think this person is to take risks?,True,"['0 (Completely unwilling to take risks)', '1', '2', '3', '4', '5', '6', '7', '8', '9', '10 (Very willing to take risks)']",,
65,debugAPDDQI:debugU8E81D,1541465402020,5945,face-likert,0.0-22.0,234876,22,"{""Q0"":6}",,How willing or unwilling do you think this person is to take risks?,True,"['0 (Completely unwilling to take risks)', '1', '2', '3', '4', '5', '6', '7', '8', '9', '10 (Very willing to take risks)']",,
66,debugAPDDQI:debugU8E81D,1541465405557,3534,face-likert,0.0-23.0,238413,23,"{""Q0"":7}",,How willing or unwilling do you think this person is to take risks?,True,"['0 (Completely unwilling to take risks)', '1', '2', '3', '4', '5', '6', '7', '8', '9', '10 (Very willing to take risks)']",,
67,debugAPDDQI:debugU8E81D,1541465408082,2525,face-likert,0.0-24.0,240938,24,"{""Q0"":5}",,How willing or unwilling do you think this person is to take risks?,True,"['0 (Completely unwilling to take risks)', '1', '2', '3', '4', '5', '6', '7', '8', '9', '10 (Very willing to take risks)']",,
68,debugAPDDQI:debugU8E81D,1541465410626,2543,face-likert,0.0-25.0,243482,25,"{""Q0"":4}",,How willing or unwilling do you think this person is to take risks?,True,"['0 (Completely unwilling to take risks)', '1', '2', '3', '4', '5', '6', '7', '8', '9', '10 (Very willing to take risks)']",,
69,debugAPDDQI:debugU8E81D,1541465414263,3635,face-likert,0.0-26.0,247119,26,"{""Q0"":5}",,How willing or unwilling do you think this person is to take risks?,True,"['0 (Completely unwilling to take risks)', '1', '2', '3', '4', '5', '6', '7', '8', '9', '10 (Very willing to take risks)']",,
70,debugAPDDQI:debugU8E81D,1541465416779,2515,face-likert,0.0-27.0,249635,27,"{""Q0"":4}",,How willing or unwilling do you think this person is to take risks?,True,"['0 (Completely unwilling to take risks)', '1', '2', '3', '4', '5', '6', '7', '8', '9', '10 (Very willing to take risks)']",,
71,debugAPDDQI:debugU8E81D,1541465421741,4959,face-likert,0.0-28.0,254597,28,"{""Q0"":4}",,How willing or unwilling do you think this person is to take risks?,True,"['0 (Completely unwilling to take risks)', '1', '2', '3', '4', '5', '6', '7', '8', '9', '10 (Very willing to take risks)']",,
72,debugAPDDQI:debugU8E81D,1541465428050,6307,face-likert,0.0-29.0,260906,29,"{""Q0"":3}",,How willing or unwilling do you think this person is to take risks?,True,"['0 (Completely unwilling to take risks)', '1', '2', '3', '4', '5', '6', '7', '8', '9', '10 (Very willing to take risks)']",,
73,debugAPDDQI:debugU8E81D,1541465431916,3864,face-likert,0.0-30.0,264772,30,"{""Q0"":6}",,How willing or unwilling do you think this person is to take risks?,True,"['0 (Completely unwilling to take risks)', '1', '2', '3', '4', '5', '6', '7', '8', '9', '10 (Very willing to take risks)']",,
74,debugAPDDQI:debugU8E81D,1541465437090,5172,face-likert,0.0-31.0,269945,31,"{""Q0"":6}",,How willing or unwilling do you think this person is to take risks?,True,"['0 (Completely unwilling to take risks)', '1', '2', '3', '4', '5', '6', '7', '8', '9', '10 (Very willing to take risks)']",,
75,debugAPDDQI:debugU8E81D,1541465441230,4138,face-likert,0.0-32.0,274086,32,"{""Q0"":5}",,How willing or unwilling do you think this person is to take risks?,True,"['0 (Completely unwilling to take risks)', '1', '2', '3', '4', '5', '6', '7', '8', '9', '10 (Very willing to take risks)']",,
76,debugAPDDQI:debugU8E81D,1541465444280,3050,face-likert,0.0-33.0,277136,33,"{""Q0"":6}",,How willing or unwilling do you think this person is to take risks?,True,"['0 (Completely unwilling to take risks)', '1', '2', '3', '4', '5', '6', '7', '8', '9', '10 (Very willing to take risks)']",,
77,debugAPDDQI:debugU8E81D,1541465452825,8542,face-likert,0.0-34.0,285680,34,"{""Q0"":6}",,How willing or unwilling do you think this person is to take risks?,True,"['0 (Completely unwilling to take risks)', '1', '2', '3', '4', '5', '6', '7', '8', '9', '10 (Very willing to take risks)']",,
78,debugAPDDQI:debugU8E81D,1541465457749,4924,face-likert,0.0-35.0,290605,35,"{""Q0"":6}",,How willing or unwilling do you think this person is to take risks?,True,"['0 (Completely unwilling to take risks)', '1', '2', '3', '4', '5', '6', '7', '8', '9', '10 (Very willing to take risks)']",,
79,debugAPDDQI:debugU8E81D,1541465464581,6831,face-likert,0.0-36.0,297437,36,"{""Q0"":5}",,How willing or unwilling do you think this person is to take risks?,True,"['0 (Completely unwilling to take risks)', '1', '2', '3', '4', '5', '6', '7', '8', '9', '10 (Very willing to take risks)']",,
80,debugAPDDQI:debugU8E81D,1541465469851,5267,face-likert,0.0-37.0,302707,37,"{""Q0"":3}",,How willing or unwilling do you think this person is to take risks?,True,"['0 (Completely unwilling to take risks)', '1', '2', '3', '4', '5', '6', '7', '8', '9', '10 (Very willing to take risks)']",,
81,debugAPDDQI:debugU8E81D,1541465472730,2878,face-likert,0.0-38.0,305586,38,"{""Q0"":5}",,How willing or unwilling do you think this person is to take risks?,True,"['0 (Completely unwilling to take risks)', '1', '2', '3', '4', '5', '6', '7', '8', '9', '10 (Very willing to take risks)']",,
82,debugAPDDQI:debugU8E81D,1541465476415,3683,face-likert,0.0-39.0,309271,39,"{""Q0"":7}",,How willing or unwilling do you think this person is to take risks?,True,"['0 (Completely unwilling to take risks)', '1', '2', '3', '4', '5', '6', '7', '8', '9', '10 (Very willing to take risks)']",,
83,debugAPDDQI:debugU8E81D,1541465479653,3236,face-likert,0.0-40.0,312509,40,"{""Q0"":5}",,How willing or unwilling do you think this person is to take risks?,True,"['0 (Completely unwilling to take risks)', '1', '2', '3', '4', '5', '6', '7', '8', '9', '10 (Very willing to take risks)']",,
84,debugAPDDQI:debugU8E81D,1541465484362,4708,face-likert,0.0-41.0,317218,41,"{""Q0"":7}",,How willing or unwilling do you think this person is to take risks?,True,"['0 (Completely unwilling to take risks)', '1', '2', '3', '4', '5', '6', '7', '8', '9', '10 (Very willing to take risks)']",,
85,debugAPDDQI:debugU8E81D,1541465489200,4836,face-likert,0.0-42.0,322056,42,"{""Q0"":7}",,How willing or unwilling do you think this person is to take risks?,True,"['0 (Completely unwilling to take risks)', '1', '2', '3', '4', '5', '6', '7', '8', '9', '10 (Very willing to take risks)']",,
86,debugAPDDQI:debugU8E81D,1541465492222,3020,face-likert,0.0-43.0,325078,43,"{""Q0"":8}",,How willing or unwilling do you think this person is to take risks?,True,"['0 (Completely unwilling to take risks)', '1', '2', '3', '4', '5', '6', '7', '8', '9', '10 (Very willing to take risks)']",,
87,debugAPDDQI:debugU8E81D,1541465502097,9873,face-likert,0.0-44.0,334953,44,"{""Q0"":8}",,How willing or unwilling do you think this person is to take risks?,True,"['0 (Completely unwilling to take risks)', '1', '2', '3', '4', '5', '6', '7', '8', '9', '10 (Very willing to take risks)']",,
88,debugAPDDQI:debugU8E81D,1541465505372,3273,face-likert,0.0-45.0,338228,45,"{""Q0"":8}",,How willing or unwilling do you think this person is to take risks?,True,"['0 (Completely unwilling to take risks)', '1', '2', '3', '4', '5', '6', '7', '8', '9', '10 (Very willing to take risks)']",,
89,debugAPDDQI:debugU8E81D,1541465507623,2251,face-likert,0.0-46.0,340479,46,"{""Q0"":8}",,How willing or unwilling do you think this person is to take risks?,True,"['0 (Completely unwilling to take risks)', '1', '2', '3', '4', '5', '6', '7', '8', '9', '10 (Very willing to take risks)']",,
90,debugAPDDQI:debugU8E81D,1541465510278,2654,face-likert,0.0-47.0,343134,47,"{""Q0"":5}",,How willing or unwilling do you think this person is to take risks?,True,"['0 (Completely unwilling to take risks)', '1', '2', '3', '4', '5', '6', '7', '8', '9', '10 (Very willing to take risks)']",,
91,debugAPDDQI:debugU8E81D,1541465512760,2482,face-likert,0.0-48.0,345616,48,"{""Q0"":6}",,How willing or unwilling do you think this person is to take risks?,True,"['0 (Completely unwilling to take risks)', '1', '2', '3', '4', '5', '6', '7', '8', '9', '10 (Very willing to take risks)']",,
92,debugAPDDQI:debugU8E81D,1541465517344,4581,face-likert,0.0-49.0,350200,49,"{""Q0"":6}",,How willing or unwilling do you think this person is to take risks?,True,"['0 (Completely unwilling to take risks)', '1', '2', '3', '4', '5', '6', '7', '8', '9', '10 (Very willing to take risks)']",,
93,debugAPDDQI:debugU8E81D,1541465519661,2316,face-likert,0.0-50.0,352517,50,"{""Q0"":7}",,How willing or unwilling do you think this person is to take risks?,True,"['0 (Completely unwilling to take risks)', '1', '2', '3', '4', '5', '6', '7', '8', '9', '10 (Very willing to take risks)']",,
94,debugAPDDQI:debugU8E81D,1541465522763,3100,face-likert,0.0-51.0,355619,51,"{""Q0"":7}",,How willing or unwilling do you think this person is to take risks?,True,"['0 (Completely unwilling to take risks)', '1', '2', '3', '4', '5', '6', '7', '8', '9', '10 (Very willing to take risks)']",,
95,debugAPDDQI:debugU8E81D,1541465525420,2654,face-likert,0.0-52.0,358275,52,"{""Q0"":5}",,How willing or unwilling do you think this person is to take risks?,True,"['0 (Completely unwilling to take risks)', '1', '2', '3', '4', '5', '6', '7', '8', '9', '10 (Very willing to take risks)']",,
96,debugAPDDQI:debugU8E81D,1541465530857,5435,face-likert,0.0-53.0,363713,53,"{""Q0"":4}",,How willing or unwilling do you think this person is to take risks?,True,"['0 (Completely unwilling to take risks)', '1', '2', '3', '4', '5', '6', '7', '8', '9', '10 (Very willing to take risks)']",,
97,debugAPDDQI:debugU8E81D,1541465534857,3999,face-likert,0.0-54.0,367713,54,"{""Q0"":4}",,How willing or unwilling do you think this person is to take risks?,True,"['0 (Completely unwilling to take risks)', '1', '2', '3', '4', '5', '6', '7', '8', '9', '10 (Very willing to take risks)']",,
98,debugAPDDQI:debugU8E81D,1541465540466,5607,face-likert,0.0-55.0,373322,55,"{""Q0"":3}",,How willing or unwilling do you think this person is to take risks?,True,"['0 (Completely unwilling to take risks)', '1', '2', '3', '4', '5', '6', '7', '8', '9', '10 (Very willing to take risks)']",,
99,debugAPDDQI:debugU8E81D,1541465543292,2825,face-likert,0.0-56.0,376148,56,"{""Q0"":5}",,How willing or unwilling do you think this person is to take risks?,True,"['0 (Completely unwilling to take risks)', '1', '2', '3', '4', '5', '6', '7', '8', '9', '10 (Very willing to take risks)']",,
100,debugAPDDQI:debugU8E81D,1541465547765,4471,face-likert,0.0-57.0,380621,57,"{""Q0"":6}",,How willing or unwilling do you think this person is to take risks?,True,"['0 (Completely unwilling to take risks)', '1', '2', '3', '4', '5', '6', '7', '8', '9', '10 (Very willing to take risks)']",,
101,debugAPDDQI:debugU8E81D,1541465550382,2615,face-likert,0.0-58.0,383237,58,"{""Q0"":6}",,How willing or unwilling do you think this person is to take risks?,True,"['0 (Completely unwilling to take risks)', '1', '2', '3', '4', '5', '6', '7', '8', '9', '10 (Very willing to take risks)']",,
102,debugAPDDQI:debugU8E81D,1541465554917,4534,face-likert,0.0-59.0,387773,59,"{""Q0"":4}",,How willing or unwilling do you think this person is to take risks?,True,"['0 (Completely unwilling to take risks)', '1', '2', '3', '4', '5', '6', '7', '8', '9', '10 (Very willing to take risks)']",,
103,debugAPDDQI:debugU8E81D,1541465566217,11299,face-likert,0.0-60.0,399073,60,"{""Q0"":5}",,How willing or unwilling do you think this person is to take risks?,True,"['0 (Completely unwilling to take risks)', '1', '2', '3', '4', '5', '6', '7', '8', '9', '10 (Very willing to take risks)']",,
104,debugAPDDQI:debugU8E81D,1541465569121,2903,face-likert,0.0-61.0,401977,61,"{""Q0"":6}",,How willing or unwilling do you think this person is to take risks?,True,"['0 (Completely unwilling to take risks)', '1', '2', '3', '4', '5', '6', '7', '8', '9', '10 (Very willing to take risks)']",,
105,debugAPDDQI:debugU8E81D,1541465574146,5022,face-likert,0.0-62.0,407002,62,"{""Q0"":6}",,How willing or unwilling do you think this person is to take risks?,True,"['0 (Completely unwilling to take risks)', '1', '2', '3', '4', '5', '6', '7', '8', '9', '10 (Very willing to take risks)']",,
106,debugAPDDQI:debugU8E81D,1541465576965,2819,face-likert,0.0-63.0,409821,63,"{""Q0"":6}",,How willing or unwilling do you think this person is to take risks?,True,"['0 (Completely unwilling to take risks)', '1', '2', '3', '4', '5', '6', '7', '8', '9', '10 (Very willing to take risks)']",,
107,debugAPDDQI:debugU8E81D,1541465579392,2424,face-likert,0.0-64.0,412247,64,"{""Q0"":6}",,How willing or unwilling do you think this person is to take risks?,True,"['0 (Completely unwilling to take risks)', '1', '2', '3', '4', '5', '6', '7', '8', '9', '10 (Very willing to take risks)']",,
108,debugAPDDQI:debugU8E81D,1541465581998,2605,face-likert,0.0-65.0,414853,65,"{""Q0"":5}",,How willing or unwilling do you think this person is to take risks?,True,"['0 (Completely unwilling to take risks)', '1', '2', '3', '4', '5', '6', '7', '8', '9', '10 (Very willing to take risks)']",,
109,debugAPDDQI:debugU8E81D,1541465588081,6082,face-likert,0.0-66.0,420936,66,"{""Q0"":6}",,How willing or unwilling do you think this person is to take risks?,True,"['0 (Completely unwilling to take risks)', '1', '2', '3', '4', '5', '6', '7', '8', '9', '10 (Very willing to take risks)']",,
110,debugAPDDQI:debugU8E81D,1541465590301,2218,face-likert,0.0-67.0,423156,67,"{""Q0"":7}",,How willing or unwilling do you think this person is to take risks?,True,"['0 (Completely unwilling to take risks)', '1', '2', '3', '4', '5', '6', '7', '8', '9', '10 (Very willing to take risks)']",,
111,debugAPDDQI:debugU8E81D,1541465597010,6707,face-likert,0.0-68.0,429866,68,"{""Q0"":5}",,How willing or unwilling do you think this person is to take risks?,True,"['0 (Completely unwilling to take risks)', '1', '2', '3', '4', '5', '6', '7', '8', '9', '10 (Very willing to take risks)']",,
112,debugAPDDQI:debugU8E81D,1541465600961,3951,face-likert,0.0-69.0,433817,69,"{""Q0"":6}",,How willing or unwilling do you think this person is to take risks?,True,"['0 (Completely unwilling to take risks)', '1', '2', '3', '4', '5', '6', '7', '8', '9', '10 (Very willing to take risks)']",,
113,debugAPDDQI:debugU8E81D,1541465603726,2763,face-likert,0.0-70.0,436582,70,"{""Q0"":7}",,How willing or unwilling do you think this person is to take risks?,True,"['0 (Completely unwilling to take risks)', '1', '2', '3', '4', '5', '6', '7', '8', '9', '10 (Very willing to take risks)']",,
114,debugAPDDQI:debugU8E81D,1541465606431,2704,face-likert,0.0-71.0,439287,71,"{""Q0"":5}",,How willing or unwilling do you think this person is to take risks?,True,"['0 (Completely unwilling to take risks)', '1', '2', '3', '4', '5', '6', '7', '8', '9', '10 (Very willing to take risks)']",,
115,debugAPDDQI:debugU8E81D,1541465609389,2956,face-likert,0.0-72.0,442245,72,"{""Q0"":4}",,How willing or unwilling do you think this person is to take risks?,True,"['0 (Completely unwilling to take risks)', '1', '2', '3', '4', '5', '6', '7', '8', '9', '10 (Very willing to take risks)']",,
116,debugAPDDQI:debugU8E81D,1541465621970,12579,face-likert,0.0-73.0,454825,73,"{""Q0"":4}",,How willing or unwilling do you think this person is to take risks?,True,"['0 (Completely unwilling to take risks)', '1', '2', '3', '4', '5', '6', '7', '8', '9', '10 (Very willing to take risks)']",,
117,debugAPDDQI:debugU8E81D,1541465627253,5282,face-likert,0.0-74.0,460109,74,"{""Q0"":6}",,How willing or unwilling do you think this person is to take risks?,True,"['0 (Completely unwilling to take risks)', '1', '2', '3', '4', '5', '6', '7', '8', '9', '10 (Very willing to take risks)']",,
118,debugAPDDQI:debugU8E81D,1541465630276,3021,face-likert,0.0-75.0,463132,75,"{""Q0"":6}",,How willing or unwilling do you think this person is to take risks?,True,"['0 (Completely unwilling to take risks)', '1', '2', '3', '4', '5', '6', '7', '8', '9', '10 (Very willing to take risks)']",,
119,debugAPDDQI:debugU8E81D,1541465632822,2545,face-likert,0.0-76.0,465678,76,"{""Q0"":4}",,How willing or unwilling do you think this person is to take risks?,True,"['0 (Completely unwilling to take risks)', '1', '2', '3', '4', '5', '6', '7', '8', '9', '10 (Very willing to take risks)']",,
120,debugAPDDQI:debugU8E81D,1541465636006,3182,face-likert,0.0-77.0,468862,77,"{""Q0"":4}",,How willing or unwilling do you think this person is to take risks?,True,"['0 (Completely unwilling to take risks)', '1', '2', '3', '4', '5', '6', '7', '8', '9', '10 (Very willing to take risks)']",,
121,debugAPDDQI:debugU8E81D,1541465639361,3352,face-likert,0.0-78.0,472215,78,"{""Q0"":3}",,How willing or unwilling do you think this person is to take risks?,True,"['0 (Completely unwilling to take risks)', '1', '2', '3', '4', '5', '6', '7', '8', '9', '10 (Very willing to take risks)']",,
122,debugAPDDQI:debugU8E81D,1541465642346,2983,face-likert,0.0-79.0,475202,79,"{""Q0"":4}",,How willing or unwilling do you think this person is to take risks?,True,"['0 (Completely unwilling to take risks)', '1', '2', '3', '4', '5', '6', '7', '8', '9', '10 (Very willing to take risks)']",,
123,debugAPDDQI:debugU8E81D,1541465646664,4318,face-likert,0.0-80.0,479520,80,"{""Q0"":3}",,How willing or unwilling do you think this person is to take risks?,True,"['0 (Completely unwilling to take risks)', '1', '2', '3', '4', '5', '6', '7', '8', '9', '10 (Very willing to take risks)']",,
124,debugAPDDQI:debugU8E81D,1541465649690,3024,face-likert,0.0-81.0,482546,81,"{""Q0"":7}",,How willing or unwilling do you think this person is to take risks?,True,"['0 (Completely unwilling to take risks)', '1', '2', '3', '4', '5', '6', '7', '8', '9', '10 (Very willing to take risks)']",,
125,debugAPDDQI:debugU8E81D,1541465656064,6372,face-likert,0.0-82.0,488920,82,"{""Q0"":6}",,How willing or unwilling do you think this person is to take risks?,True,"['0 (Completely unwilling to take risks)', '1', '2', '3', '4', '5', '6', '7', '8', '9', '10 (Very willing to take risks)']",,
126,debugAPDDQI:debugU8E81D,1541465662287,6222,face-likert,0.0-83.0,495143,83,"{""Q0"":5}",,How willing or unwilling do you think this person is to take risks?,True,"['0 (Completely unwilling to take risks)', '1', '2', '3', '4', '5', '6', '7', '8', '9', '10 (Very willing to take risks)']",,
127,debugAPDDQI:debugU8E81D,1541465666280,3991,face-likert,0.0-84.0,499136,84,"{""Q0"":8}",,How willing or unwilling do you think this person is to take risks?,True,"['0 (Completely unwilling to take risks)', '1', '2', '3', '4', '5', '6', '7', '8', '9', '10 (Very willing to take risks)']",,
128,debugAPDDQI:debugU8E81D,1541465673667,7386,face-likert,0.0-85.0,506523,85,"{""Q0"":6}",,How willing or unwilling do you think this person is to take risks?,True,"['0 (Completely unwilling to take risks)', '1', '2', '3', '4', '5', '6', '7', '8', '9', '10 (Very willing to take risks)']",,
129,debugAPDDQI:debugU8E81D,1541465676793,3123,face-likert,0.0-86.0,509649,86,"{""Q0"":4}",,How willing or unwilling do you think this person is to take risks?,True,"['0 (Completely unwilling to take risks)', '1', '2', '3', '4', '5', '6', '7', '8', '9', '10 (Very willing to take risks)']",,
130,debugAPDDQI:debugU8E81D,1541465680920,4127,face-likert,0.0-87.0,513776,87,"{""Q0"":4}",,How willing or unwilling do you think this person is to take risks?,True,"['0 (Completely unwilling to take risks)', '1', '2', '3', '4', '5', '6', '7', '8', '9', '10 (Very willing to take risks)']",,
131,debugAPDDQI:debugU8E81D,1541465686950,6029,face-likert,0.0-88.0,519806,88,"{""Q0"":3}",,How willing or unwilling do you think this person is to take risks?,True,"['0 (Completely unwilling to take risks)', '1', '2', '3', '4', '5', '6', '7', '8', '9', '10 (Very willing to take risks)']",,
132,debugAPDDQI:debugU8E81D,1541465691850,4897,face-likert,0.0-89.0,524706,89,"{""Q0"":2}",,How willing or unwilling do you think this person is to take risks?,True,"['0 (Completely unwilling to take risks)', '1', '2', '3', '4', '5', '6', '7', '8', '9', '10 (Very willing to take risks)']",,
133,debugAPDDQI:debugU8E81D,1541465694158,2307,face-likert,0.0-90.0,527014,90,"{""Q0"":3}",,How willing or unwilling do you think this person is to take risks?,True,"['0 (Completely unwilling to take risks)', '1', '2', '3', '4', '5', '6', '7', '8', '9', '10 (Very willing to take risks)']",,
134,debugAPDDQI:debugU8E81D,1541465701085,6925,face-likert,0.0-91.0,533941,91,"{""Q0"":4}",,How willing or unwilling do you think this person is to take risks?,True,"['0 (Completely unwilling to take risks)', '1', '2', '3', '4', '5', '6', '7', '8', '9', '10 (Very willing to take risks)']",,
135,debugAPDDQI:debugU8E81D,1541465705077,3990,face-likert,0.0-92.0,537933,92,"{""Q0"":6}",,How willing or unwilling do you think this person is to take risks?,True,"['0 (Completely unwilling to take risks)', '1', '2', '3', '4', '5', '6', '7', '8', '9', '10 (Very willing to take risks)']",,
136,debugAPDDQI:debugU8E81D,1541465708527,3448,face-likert,0.0-93.0,541383,93,"{""Q0"":6}",,How willing or unwilling do you think this person is to take risks?,True,"['0 (Completely unwilling to take risks)', '1', '2', '3', '4', '5', '6', '7', '8', '9', '10 (Very willing to take risks)']",,
137,debugAPDDQI:debugU8E81D,1541465712773,4244,face-likert,0.0-94.0,545629,94,"{""Q0"":5}",,How willing or unwilling do you think this person is to take risks?,True,"['0 (Completely unwilling to take risks)', '1', '2', '3', '4', '5', '6', '7', '8', '9', '10 (Very willing to take risks)']",,
138,debugAPDDQI:debugU8E81D,1541465716451,3677,face-likert,0.0-95.0,549307,95,"{""Q0"":3}",,How willing or unwilling do you think this person is to take risks?,True,"['0 (Completely unwilling to take risks)', '1', '2', '3', '4', '5', '6', '7', '8', '9', '10 (Very willing to take risks)']",,
139,debugAPDDQI:debugU8E81D,1541465719549,3097,face-likert,0.0-96.0,552405,96,"{""Q0"":4}",,How willing or unwilling do you think this person is to take risks?,True,"['0 (Completely unwilling to take risks)', '1', '2', '3', '4', '5', '6', '7', '8', '9', '10 (Very willing to take risks)']",,
140,debugAPDDQI:debugU8E81D,1541465726548,6997,face-likert,0.0-97.0,559404,97,"{""Q0"":3}",,How willing or unwilling do you think this person is to take risks?,True,"['0 (Completely unwilling to take risks)', '1', '2', '3', '4', '5', '6', '7', '8', '9', '10 (Very willing to take risks)']",,
141,debugAPDDQI:debugU8E81D,1541465731286,4737,face-likert,0.0-98.0,564142,98,"{""Q0"":6}",,How willing or unwilling do you think this person is to take risks?,True,"['0 (Completely unwilling to take risks)', '1', '2', '3', '4', '5', '6', '7', '8', '9', '10 (Very willing to take risks)']",,
142,debugAPDDQI:debugU8E81D,1541465737303,6015,face-likert,0.0-99.0,570159,99,"{""Q0"":6}",,How willing or unwilling do you think this person is to take risks?,True,"['0 (Completely unwilling to take risks)', '1', '2', '3', '4', '5', '6', '7', '8', '9', '10 (Very willing to take risks)']",,
143,debugAPDDQI:debugU8E81D,1541465740271,2966,face-likert,0.0-100.0,573127,100,"{""Q0"":4}",,How willing or unwilling do you think this person is to take risks?,True,"['0 (Completely unwilling to take risks)', '1', '2', '3', '4', '5', '6', '7', '8', '9', '10 (Very willing to take risks)']",,
144,debugAPDDQI:debugU8E81D,1541465746176,5904,face-likert,0.0-101.0,579032,101,"{""Q0"":5}",,How willing or unwilling do you think this person is to take risks?,True,"['0 (Completely unwilling to take risks)', '1', '2', '3', '4', '5', '6', '7', '8', '9', '10 (Very willing to take risks)']",,
145,debugAPDDQI:debugU8E81D,1541465750851,4673,face-likert,0.0-102.0,583707,102,"{""Q0"":3}",,How willing or unwilling do you think this person is to take risks?,True,"['0 (Completely unwilling to take risks)', '1', '2', '3', '4', '5', '6', '7', '8', '9', '10 (Very willing to take risks)']",,
146,debugAPDDQI:debugU8E81D,1541465754017,3165,face-likert,0.0-103.0,586873,103,"{""Q0"":3}",,How willing or unwilling do you think this person is to take risks?,True,"['0 (Completely unwilling to take risks)', '1', '2', '3', '4', '5', '6', '7', '8', '9', '10 (Very willing to take risks)']",,
147,debugAPDDQI:debugU8E81D,1541465757205,3186,face-likert,0.0-104.0,590061,104,"{""Q0"":4}",,How willing or unwilling do you think this person is to take risks?,True,"['0 (Completely unwilling to take risks)', '1', '2', '3', '4', '5', '6', '7', '8', '9', '10 (Very willing to take risks)']",,
148,debugAPDDQI:debugU8E81D,1541465770379,13174,face-likert,0.0-105.0,603235,105,"{""Q0"":8}",,How willing or unwilling do you think this person is to take risks?,True,"['0 (Completely unwilling to take risks)', '1', '2', '3', '4', '5', '6', '7', '8', '9', '10 (Very willing to take risks)']",,
149,debugAPDDQI:debugU8E81D,1541465772763,2383,face-likert,0.0-106.0,605619,106,"{""Q0"":6}",,How willing or unwilling do you think this person is to take risks?,True,"['0 (Completely unwilling to take risks)', '1', '2', '3', '4', '5', '6', '7', '8', '9', '10 (Very willing to take risks)']",,
150,debugAPDDQI:debugU8E81D,1541465777243,4479,face-likert,0.0-107.0,610099,107,"{""Q0"":5}",,How willing or unwilling do you think this person is to take risks?,True,"['0 (Completely unwilling to take risks)', '1', '2', '3', '4', '5', '6', '7', '8', '9', '10 (Very willing to take risks)']",,
151,debugAPDDQI:debugU8E81D,1541465779345,2101,face-likert,0.0-108.0,612201,108,"{""Q0"":6}",,How willing or unwilling do you think this person is to take risks?,True,"['0 (Completely unwilling to take risks)', '1', '2', '3', '4', '5', '6', '7', '8', '9', '10 (Very willing to take risks)']",,
152,debugAPDDQI:debugU8E81D,1541465782322,2975,face-likert,0.0-109.0,615178,109,"{""Q0"":5}",,How willing or unwilling do you think this person is to take risks?,True,"['0 (Completely unwilling to take risks)', '1', '2', '3', '4', '5', '6', '7', '8', '9', '10 (Very willing to take risks)']",,
153,debugAPDDQI:debugU8E81D,1541465786137,3815,face-likert,0.0-110.0,618993,110,"{""Q0"":4}",,How willing or unwilling do you think this person is to take risks?,True,"['0 (Completely unwilling to take risks)', '1', '2', '3', '4', '5', '6', '7', '8', '9', '10 (Very willing to take risks)']",,
154,debugAPDDQI:debugU8E81D,1541465790950,4812,face-likert,0.0-111.0,623806,111,"{""Q0"":3}",,How willing or unwilling do you think this person is to take risks?,True,"['0 (Completely unwilling to take risks)', '1', '2', '3', '4', '5', '6', '7', '8', '9', '10 (Very willing to take risks)']",,
155,debugAPDDQI:debugU8E81D,1541465793357,2406,face-likert,0.0-112.0,626213,112,"{""Q0"":4}",,How willing or unwilling do you think this person is to take risks?,True,"['0 (Completely unwilling to take risks)', '1', '2', '3', '4', '5', '6', '7', '8', '9', '10 (Very willing to take risks)']",,
156,debugAPDDQI:debugU8E81D,1541465796329,2971,face-likert,0.0-113.0,629185,113,"{""Q0"":2}",,How willing or unwilling do you think this person is to take risks?,True,"['0 (Completely unwilling to take risks)', '1', '2', '3', '4', '5', '6', '7', '8', '9', '10 (Very willing to take risks)']",,
157,debugAPDDQI:debugU8E81D,1541465800898,4568,face-likert,0.0-114.0,633754,114,"{""Q0"":3}",,How willing or unwilling do you think this person is to take risks?,True,"['0 (Completely unwilling to take risks)', '1', '2', '3', '4', '5', '6', '7', '8', '9', '10 (Very willing to take risks)']",,
158,debugAPDDQI:debugU8E81D,1541465804439,3540,face-likert,0.0-115.0,637295,115,"{""Q0"":4}",,How willing or unwilling do you think this person is to take risks?,True,"['0 (Completely unwilling to take risks)', '1', '2', '3', '4', '5', '6', '7', '8', '9', '10 (Very willing to take risks)']",,
159,debugAPDDQI:debugU8E81D,1541465808588,4148,face-likert,0.0-116.0,641444,116,"{""Q0"":6}",,How willing or unwilling do you think this person is to take risks?,True,"['0 (Completely unwilling to take risks)', '1', '2', '3', '4', '5', '6', '7', '8', '9', '10 (Very willing to take risks)']",,
160,debugAPDDQI:debugU8E81D,1541465812625,4034,face-likert,0.0-117.0,645481,117,"{""Q0"":6}",,How willing or unwilling do you think this person is to take risks?,True,"['0 (Completely unwilling to take risks)', '1', '2', '3', '4', '5', '6', '7', '8', '9', '10 (Very willing to take risks)']",,
161,debugAPDDQI:debugU8E81D,1541465815018,2392,face-likert,0.0-118.0,647874,118,"{""Q0"":7}",,How willing or unwilling do you think this person is to take risks?,True,"['0 (Completely unwilling to take risks)', '1', '2', '3', '4', '5', '6', '7', '8', '9', '10 (Very willing to take risks)']",,
162,debugAPDDQI:debugU8E81D,1541465820265,5244,face-likert,0.0-119.0,653121,119,"{""Q0"":6}",,How willing or unwilling do you think this person is to take risks?,True,"['0 (Completely unwilling to take risks)', '1', '2', '3', '4', '5', '6', '7', '8', '9', '10 (Very willing to take risks)']",,
163,debugAPDDQI:debugU8E81D,1541465824707,4440,face-likert,0.0-120.0,657563,120,"{""Q0"":7}",,How willing or unwilling do you think this person is to take risks?,True,"['0 (Completely unwilling to take risks)', '1', '2', '3', '4', '5', '6', '7', '8', '9', '10 (Very willing to take risks)']",,
164,debugAPDDQI:debugU8E81D,1541465828685,3976,face-likert,0.0-121.0,661541,121,"{""Q0"":4}",,How willing or unwilling do you think this person is to take risks?,True,"['0 (Completely unwilling to take risks)', '1', '2', '3', '4', '5', '6', '7', '8', '9', '10 (Very willing to take risks)']",,
165,debugAPDDQI:debugU8E81D,1541465832037,3350,face-likert,0.0-122.0,664893,122,"{""Q0"":4}",,How willing or unwilling do you think this person is to take risks?,True,"['0 (Completely unwilling to take risks)', '1', '2', '3', '4', '5', '6', '7', '8', '9', '10 (Very willing to take risks)']",,
