,subId,rt,imgName,rating,trial_index,debug_mode
0,AARRC49LFF1O:3YDGXNSEO113X8K92KBS2EN0I0784Z,7435,127601.jpg,7,2,live
1,AARRC49LFF1O:3YDGXNSEO113X8K92KBS2EN0I0784Z,4104,052930.jpg,6,3,live
2,AARRC49LFF1O:3YDGXNSEO113X8K92KBS2EN0I0784Z,6274,185572.jpg,6,4,live
3,AARRC49LFF1O:3YDGXNSEO113X8K92KBS2EN0I0784Z,4379,164055.jpg,6,5,live
4,AARRC49LFF1O:3YDGXNSEO113X8K92KBS2EN0I0784Z,6275,110519.jpg,6,6,live
5,AARRC49LFF1O:3YDGXNSEO113X8K92KBS2EN0I0784Z,5283,104427.jpg,7,7,live
6,AARRC49LFF1O:3YDGXNSEO113X8K92KBS2EN0I0784Z,5763,030503.jpg,8,8,live
7,AARRC49LFF1O:3YDGXNSEO113X8K92KBS2EN0I0784Z,6122,003560.jpg,5,9,live
8,AARRC49LFF1O:3YDGXNSEO113X8K92KBS2EN0I0784Z,7265,133078.jpg,6,10,live
9,AARRC49LFF1O:3YDGXNSEO113X8K92KBS2EN0I0784Z,3683,033708.jpg,7,11,live
10,AARRC49LFF1O:3YDGXNSEO113X8K92KBS2EN0I0784Z,9699,199097.jpg,8,13,live
11,AARRC49LFF1O:3YDGXNSEO113X8K92KBS2EN0I0784Z,3505,022657.jpg,7,14,live
12,AARRC49LFF1O:3YDGXNSEO113X8K92KBS2EN0I0784Z,5962,110328.jpg,7,15,live
13,AARRC49LFF1O:3YDGXNSEO113X8K92KBS2EN0I0784Z,4177,005221.jpg,7,16,live
14,AARRC49LFF1O:3YDGXNSEO113X8K92KBS2EN0I0784Z,5877,137186.jpg,6,17,live
15,AARRC49LFF1O:3YDGXNSEO113X8K92KBS2EN0I0784Z,4090,110128.jpg,5,18,live
16,AARRC49LFF1O:3YDGXNSEO113X8K92KBS2EN0I0784Z,5258,185318.jpg,8,19,live
17,AARRC49LFF1O:3YDGXNSEO113X8K92KBS2EN0I0784Z,3961,181032.jpg,7,20,live
18,AARRC49LFF1O:3YDGXNSEO113X8K92KBS2EN0I0784Z,6194,058511.jpg,6,21,live
19,AARRC49LFF1O:3YDGXNSEO113X8K92KBS2EN0I0784Z,3858,152865.jpg,7,22,live
20,AARRC49LFF1O:3YDGXNSEO113X8K92KBS2EN0I0784Z,9799,152827.jpg,5,24,live
21,AARRC49LFF1O:3YDGXNSEO113X8K92KBS2EN0I0784Z,6658,118886.jpg,7,25,live
22,AARRC49LFF1O:3YDGXNSEO113X8K92KBS2EN0I0784Z,11865,003560.jpg,6,26,live
23,AARRC49LFF1O:3YDGXNSEO113X8K92KBS2EN0I0784Z,5757,088505.jpg,7,27,live
24,AARRC49LFF1O:3YDGXNSEO113X8K92KBS2EN0I0784Z,4218,027687.jpg,8,28,live
25,AARRC49LFF1O:3YDGXNSEO113X8K92KBS2EN0I0784Z,5787,178434.jpg,7,29,live
26,AARRC49LFF1O:3YDGXNSEO113X8K92KBS2EN0I0784Z,3914,033310.jpg,8,30,live
27,AARRC49LFF1O:3YDGXNSEO113X8K92KBS2EN0I0784Z,6002,182358.jpg,7,31,live
28,AARRC49LFF1O:3YDGXNSEO113X8K92KBS2EN0I0784Z,4587,124386.jpg,6,32,live
29,AARRC49LFF1O:3YDGXNSEO113X8K92KBS2EN0I0784Z,5515,074442.jpg,7,33,live
30,AARRC49LFF1O:3YDGXNSEO113X8K92KBS2EN0I0784Z,5587,159474.jpg,7,35,live
31,AARRC49LFF1O:3YDGXNSEO113X8K92KBS2EN0I0784Z,4147,163429.jpg,7,36,live
32,AARRC49LFF1O:3YDGXNSEO113X8K92KBS2EN0I0784Z,5523,161851.jpg,7,37,live
33,AARRC49LFF1O:3YDGXNSEO113X8K92KBS2EN0I0784Z,6514,186564.jpg,8,38,live
34,AARRC49LFF1O:3YDGXNSEO113X8K92KBS2EN0I0784Z,4435,163099.jpg,7,39,live
35,AARRC49LFF1O:3YDGXNSEO113X8K92KBS2EN0I0784Z,5487,055914.jpg,7,40,live
36,AARRC49LFF1O:3YDGXNSEO113X8K92KBS2EN0I0784Z,5498,033658.jpg,8,41,live
37,AARRC49LFF1O:3YDGXNSEO113X8K92KBS2EN0I0784Z,5266,078330.jpg,7,42,live
38,AARRC49LFF1O:3YDGXNSEO113X8K92KBS2EN0I0784Z,3508,163429.jpg,8,43,live
39,AARRC49LFF1O:3YDGXNSEO113X8K92KBS2EN0I0784Z,8697,022657.jpg,8,44,live
40,AARRC49LFF1O:3YDGXNSEO113X8K92KBS2EN0I0784Z,3640,186784.jpg,8,46,live
41,AARRC49LFF1O:3YDGXNSEO113X8K92KBS2EN0I0784Z,4578,160218.jpg,7,47,live
42,AARRC49LFF1O:3YDGXNSEO113X8K92KBS2EN0I0784Z,3442,114506.jpg,8,48,live
43,AARRC49LFF1O:3YDGXNSEO113X8K92KBS2EN0I0784Z,6162,135747.jpg,7,49,live
44,AARRC49LFF1O:3YDGXNSEO113X8K92KBS2EN0I0784Z,4211,035709.jpg,8,50,live
45,AARRC49LFF1O:3YDGXNSEO113X8K92KBS2EN0I0784Z,7019,108820.jpg,7,51,live
46,AARRC49LFF1O:3YDGXNSEO113X8K92KBS2EN0I0784Z,3605,166652.jpg,8,52,live
47,AARRC49LFF1O:3YDGXNSEO113X8K92KBS2EN0I0784Z,6122,141241.jpg,6,53,live
48,AARRC49LFF1O:3YDGXNSEO113X8K92KBS2EN0I0784Z,4674,197708.jpg,6,54,live
49,AARRC49LFF1O:3YDGXNSEO113X8K92KBS2EN0I0784Z,5882,040498.jpg,7,55,live
50,AARRC49LFF1O:3YDGXNSEO113X8K92KBS2EN0I0784Z,3616,102692.jpg,8,57,live
51,AARRC49LFF1O:3YDGXNSEO113X8K92KBS2EN0I0784Z,4210,159474.jpg,8,58,live
52,AARRC49LFF1O:3YDGXNSEO113X8K92KBS2EN0I0784Z,4451,069096.jpg,6,59,live
53,AARRC49LFF1O:3YDGXNSEO113X8K92KBS2EN0I0784Z,4739,171826.jpg,8,60,live
54,AARRC49LFF1O:3YDGXNSEO113X8K92KBS2EN0I0784Z,4370,027687.jpg,8,61,live
55,AARRC49LFF1O:3YDGXNSEO113X8K92KBS2EN0I0784Z,5106,171257.jpg,7,62,live
56,AARRC49LFF1O:3YDGXNSEO113X8K92KBS2EN0I0784Z,4506,078663.jpg,8,63,live
57,AARRC49LFF1O:3YDGXNSEO113X8K92KBS2EN0I0784Z,5819,122478.jpg,7,64,live
58,AARRC49LFF1O:3YDGXNSEO113X8K92KBS2EN0I0784Z,25683,070908.jpg,8,65,live
59,AARRC49LFF1O:3YDGXNSEO113X8K92KBS2EN0I0784Z,30225,116443.jpg,8,66,live
60,AARRC49LFF1O:3YDGXNSEO113X8K92KBS2EN0I0784Z,6726,070908.jpg,8,68,live
61,AARRC49LFF1O:3YDGXNSEO113X8K92KBS2EN0I0784Z,4131,030503.jpg,8,69,live
62,AARRC49LFF1O:3YDGXNSEO113X8K92KBS2EN0I0784Z,4226,057478.jpg,7,70,live
63,AARRC49LFF1O:3YDGXNSEO113X8K92KBS2EN0I0784Z,5235,016460.jpg,6,71,live
64,AARRC49LFF1O:3YDGXNSEO113X8K92KBS2EN0I0784Z,3982,130873.jpg,8,72,live
65,AARRC49LFF1O:3YDGXNSEO113X8K92KBS2EN0I0784Z,6641,033708.jpg,8,73,live
66,AARRC49LFF1O:3YDGXNSEO113X8K92KBS2EN0I0784Z,5490,048695.jpg,8,74,live
67,AARRC49LFF1O:3YDGXNSEO113X8K92KBS2EN0I0784Z,6970,020874.jpg,7,75,live
68,AARRC49LFF1O:3YDGXNSEO113X8K92KBS2EN0I0784Z,4018,060748.jpg,7,76,live
69,AARRC49LFF1O:3YDGXNSEO113X8K92KBS2EN0I0784Z,9169,114506.jpg,7,77,live
70,AARRC49LFF1O:3YDGXNSEO113X8K92KBS2EN0I0784Z,5094,118886.jpg,8,79,live
71,AARRC49LFF1O:3YDGXNSEO113X8K92KBS2EN0I0784Z,5602,135747.jpg,7,80,live
72,AARRC49LFF1O:3YDGXNSEO113X8K92KBS2EN0I0784Z,8034,103511.jpg,7,81,live
73,AARRC49LFF1O:3YDGXNSEO113X8K92KBS2EN0I0784Z,8133,136091.jpg,7,82,live
74,AARRC49LFF1O:3YDGXNSEO113X8K92KBS2EN0I0784Z,3619,127312.jpg,6,83,live
75,AARRC49LFF1O:3YDGXNSEO113X8K92KBS2EN0I0784Z,6042,040400.jpg,6,84,live
76,AARRC49LFF1O:3YDGXNSEO113X8K92KBS2EN0I0784Z,3785,064300.jpg,7,85,live
77,AARRC49LFF1O:3YDGXNSEO113X8K92KBS2EN0I0784Z,5932,123983.jpg,6,86,live
78,AARRC49LFF1O:3YDGXNSEO113X8K92KBS2EN0I0784Z,5282,189212.jpg,7,87,live
79,AARRC49LFF1O:3YDGXNSEO113X8K92KBS2EN0I0784Z,4330,058057.jpg,8,88,live
80,AARRC49LFF1O:3YDGXNSEO113X8K92KBS2EN0I0784Z,4492,024915.jpg,6,90,live
81,AARRC49LFF1O:3YDGXNSEO113X8K92KBS2EN0I0784Z,4986,160870.jpg,6,91,live
82,AARRC49LFF1O:3YDGXNSEO113X8K92KBS2EN0I0784Z,4331,012976.jpg,7,92,live
83,AARRC49LFF1O:3YDGXNSEO113X8K92KBS2EN0I0784Z,4603,165297.jpg,7,93,live
84,AARRC49LFF1O:3YDGXNSEO113X8K92KBS2EN0I0784Z,4833,020874.jpg,7,94,live
85,AARRC49LFF1O:3YDGXNSEO113X8K92KBS2EN0I0784Z,6814,050840.jpg,8,95,live
86,AARRC49LFF1O:3YDGXNSEO113X8K92KBS2EN0I0784Z,4442,002854.jpg,8,96,live
87,AARRC49LFF1O:3YDGXNSEO113X8K92KBS2EN0I0784Z,4666,199097.jpg,7,97,live
88,AARRC49LFF1O:3YDGXNSEO113X8K92KBS2EN0I0784Z,3305,122478.jpg,7,98,live
89,AARRC49LFF1O:3YDGXNSEO113X8K92KBS2EN0I0784Z,5636,123983.jpg,6,99,live
90,AARRC49LFF1O:3YDGXNSEO113X8K92KBS2EN0I0784Z,3981,128683.jpg,8,101,live
91,AARRC49LFF1O:3YDGXNSEO113X8K92KBS2EN0I0784Z,7426,096298.jpg,6,102,live
92,AARRC49LFF1O:3YDGXNSEO113X8K92KBS2EN0I0784Z,4835,058369.jpg,7,103,live
93,AARRC49LFF1O:3YDGXNSEO113X8K92KBS2EN0I0784Z,4458,009366.jpg,7,104,live
94,AARRC49LFF1O:3YDGXNSEO113X8K92KBS2EN0I0784Z,4657,171257.jpg,8,105,live
95,AARRC49LFF1O:3YDGXNSEO113X8K92KBS2EN0I0784Z,7954,182358.jpg,8,106,live
96,AARRC49LFF1O:3YDGXNSEO113X8K92KBS2EN0I0784Z,3673,133078.jpg,6,107,live
97,AARRC49LFF1O:3YDGXNSEO113X8K92KBS2EN0I0784Z,5195,109934.jpg,6,108,live
98,AARRC49LFF1O:3YDGXNSEO113X8K92KBS2EN0I0784Z,3507,055914.jpg,7,109,live
99,AARRC49LFF1O:3YDGXNSEO113X8K92KBS2EN0I0784Z,4410,069096.jpg,6,110,live
100,ABL3H3O3BI8ZD:3MHW492WW2KHCA5SGHMYGMO8FPTMVD,3213,159474.jpg,6,2,live
101,ABL3H3O3BI8ZD:3MHW492WW2KHCA5SGHMYGMO8FPTMVD,2979,118886.jpg,5,3,live
102,ABL3H3O3BI8ZD:3MHW492WW2KHCA5SGHMYGMO8FPTMVD,4818,109934.jpg,7,4,live
103,ABL3H3O3BI8ZD:3MHW492WW2KHCA5SGHMYGMO8FPTMVD,2746,165297.jpg,6,5,live
104,ABL3H3O3BI8ZD:3MHW492WW2KHCA5SGHMYGMO8FPTMVD,10980,136091.jpg,7,6,live
105,ABL3H3O3BI8ZD:3MHW492WW2KHCA5SGHMYGMO8FPTMVD,3375,030503.jpg,7,7,live
106,ABL3H3O3BI8ZD:3MHW492WW2KHCA5SGHMYGMO8FPTMVD,1318,160218.jpg,6,8,live
107,ABL3H3O3BI8ZD:3MHW492WW2KHCA5SGHMYGMO8FPTMVD,1380,110128.jpg,6,9,live
108,ABL3H3O3BI8ZD:3MHW492WW2KHCA5SGHMYGMO8FPTMVD,1229,185318.jpg,6,10,live
109,ABL3H3O3BI8ZD:3MHW492WW2KHCA5SGHMYGMO8FPTMVD,1138,163099.jpg,6,11,live
110,ABL3H3O3BI8ZD:3MHW492WW2KHCA5SGHMYGMO8FPTMVD,2366,027687.jpg,7,13,live
111,ABL3H3O3BI8ZD:3MHW492WW2KHCA5SGHMYGMO8FPTMVD,1153,005221.jpg,7,14,live
112,ABL3H3O3BI8ZD:3MHW492WW2KHCA5SGHMYGMO8FPTMVD,1168,069096.jpg,7,15,live
113,ABL3H3O3BI8ZD:3MHW492WW2KHCA5SGHMYGMO8FPTMVD,1065,033310.jpg,7,16,live
114,ABL3H3O3BI8ZD:3MHW492WW2KHCA5SGHMYGMO8FPTMVD,1169,057478.jpg,7,17,live
115,ABL3H3O3BI8ZD:3MHW492WW2KHCA5SGHMYGMO8FPTMVD,1063,123983.jpg,7,18,live
116,ABL3H3O3BI8ZD:3MHW492WW2KHCA5SGHMYGMO8FPTMVD,4589,124386.jpg,8,19,live
117,ABL3H3O3BI8ZD:3MHW492WW2KHCA5SGHMYGMO8FPTMVD,4063,166652.jpg,7,20,live
118,ABL3H3O3BI8ZD:3MHW492WW2KHCA5SGHMYGMO8FPTMVD,1589,070908.jpg,6,21,live
119,ABL3H3O3BI8ZD:3MHW492WW2KHCA5SGHMYGMO8FPTMVD,3658,199097.jpg,7,22,live
120,ABL3H3O3BI8ZD:3MHW492WW2KHCA5SGHMYGMO8FPTMVD,1551,163429.jpg,7,24,live
121,ABL3H3O3BI8ZD:3MHW492WW2KHCA5SGHMYGMO8FPTMVD,3974,022657.jpg,6,25,live
122,ABL3H3O3BI8ZD:3MHW492WW2KHCA5SGHMYGMO8FPTMVD,4019,069096.jpg,7,26,live
123,ABL3H3O3BI8ZD:3MHW492WW2KHCA5SGHMYGMO8FPTMVD,1019,182358.jpg,7,27,live
124,ABL3H3O3BI8ZD:3MHW492WW2KHCA5SGHMYGMO8FPTMVD,3899,171257.jpg,6,28,live
125,ABL3H3O3BI8ZD:3MHW492WW2KHCA5SGHMYGMO8FPTMVD,4019,186564.jpg,7,29,live
126,ABL3H3O3BI8ZD:3MHW492WW2KHCA5SGHMYGMO8FPTMVD,4274,002854.jpg,6,30,live
127,ABL3H3O3BI8ZD:3MHW492WW2KHCA5SGHMYGMO8FPTMVD,1080,133078.jpg,6,31,live
128,ABL3H3O3BI8ZD:3MHW492WW2KHCA5SGHMYGMO8FPTMVD,1124,186784.jpg,6,32,live
129,ABL3H3O3BI8ZD:3MHW492WW2KHCA5SGHMYGMO8FPTMVD,1124,058057.jpg,6,33,live
130,ABL3H3O3BI8ZD:3MHW492WW2KHCA5SGHMYGMO8FPTMVD,1073,020874.jpg,6,35,live
131,ABL3H3O3BI8ZD:3MHW492WW2KHCA5SGHMYGMO8FPTMVD,4453,022657.jpg,7,36,live
132,ABL3H3O3BI8ZD:3MHW492WW2KHCA5SGHMYGMO8FPTMVD,1035,033708.jpg,7,37,live
133,ABL3H3O3BI8ZD:3MHW492WW2KHCA5SGHMYGMO8FPTMVD,1080,078330.jpg,7,38,live
134,ABL3H3O3BI8ZD:3MHW492WW2KHCA5SGHMYGMO8FPTMVD,3389,055914.jpg,8,39,live
135,ABL3H3O3BI8ZD:3MHW492WW2KHCA5SGHMYGMO8FPTMVD,1093,009366.jpg,8,40,live
136,ABL3H3O3BI8ZD:3MHW492WW2KHCA5SGHMYGMO8FPTMVD,4874,123983.jpg,7,41,live
137,ABL3H3O3BI8ZD:3MHW492WW2KHCA5SGHMYGMO8FPTMVD,1154,181032.jpg,7,42,live
138,ABL3H3O3BI8ZD:3MHW492WW2KHCA5SGHMYGMO8FPTMVD,5160,040400.jpg,6,43,live
139,ABL3H3O3BI8ZD:3MHW492WW2KHCA5SGHMYGMO8FPTMVD,1048,133078.jpg,6,44,live
140,ABL3H3O3BI8ZD:3MHW492WW2KHCA5SGHMYGMO8FPTMVD,7751,135747.jpg,7,46,live
141,ABL3H3O3BI8ZD:3MHW492WW2KHCA5SGHMYGMO8FPTMVD,5714,110519.jpg,6,47,live
142,ABL3H3O3BI8ZD:3MHW492WW2KHCA5SGHMYGMO8FPTMVD,1379,160870.jpg,6,48,live
143,ABL3H3O3BI8ZD:3MHW492WW2KHCA5SGHMYGMO8FPTMVD,1274,197708.jpg,6,49,live
144,ABL3H3O3BI8ZD:3MHW492WW2KHCA5SGHMYGMO8FPTMVD,1364,040498.jpg,6,50,live
145,ABL3H3O3BI8ZD:3MHW492WW2KHCA5SGHMYGMO8FPTMVD,1230,137186.jpg,6,51,live
146,ABL3H3O3BI8ZD:3MHW492WW2KHCA5SGHMYGMO8FPTMVD,1978,058369.jpg,7,52,live
147,ABL3H3O3BI8ZD:3MHW492WW2KHCA5SGHMYGMO8FPTMVD,1243,096298.jpg,7,53,live
148,ABL3H3O3BI8ZD:3MHW492WW2KHCA5SGHMYGMO8FPTMVD,1095,078663.jpg,7,54,live
149,ABL3H3O3BI8ZD:3MHW492WW2KHCA5SGHMYGMO8FPTMVD,1154,128683.jpg,7,55,live
150,ABL3H3O3BI8ZD:3MHW492WW2KHCA5SGHMYGMO8FPTMVD,1132,024915.jpg,7,57,live
151,ABL3H3O3BI8ZD:3MHW492WW2KHCA5SGHMYGMO8FPTMVD,1514,103511.jpg,7,58,live
152,ABL3H3O3BI8ZD:3MHW492WW2KHCA5SGHMYGMO8FPTMVD,1080,050840.jpg,7,59,live
153,ABL3H3O3BI8ZD:3MHW492WW2KHCA5SGHMYGMO8FPTMVD,1184,104427.jpg,7,60,live
154,ABL3H3O3BI8ZD:3MHW492WW2KHCA5SGHMYGMO8FPTMVD,2069,130873.jpg,7,61,live
155,ABL3H3O3BI8ZD:3MHW492WW2KHCA5SGHMYGMO8FPTMVD,1514,161851.jpg,7,62,live
156,ABL3H3O3BI8ZD:3MHW492WW2KHCA5SGHMYGMO8FPTMVD,1678,135747.jpg,7,63,live
157,ABL3H3O3BI8ZD:3MHW492WW2KHCA5SGHMYGMO8FPTMVD,1409,159474.jpg,7,64,live
158,ABL3H3O3BI8ZD:3MHW492WW2KHCA5SGHMYGMO8FPTMVD,1109,185572.jpg,7,65,live
159,ABL3H3O3BI8ZD:3MHW492WW2KHCA5SGHMYGMO8FPTMVD,1319,060748.jpg,7,66,live
160,ABL3H3O3BI8ZD:3MHW492WW2KHCA5SGHMYGMO8FPTMVD,1072,058511.jpg,7,68,live
161,ABL3H3O3BI8ZD:3MHW492WW2KHCA5SGHMYGMO8FPTMVD,1107,141241.jpg,7,69,live
162,ABL3H3O3BI8ZD:3MHW492WW2KHCA5SGHMYGMO8FPTMVD,1124,102692.jpg,7,70,live
163,ABL3H3O3BI8ZD:3MHW492WW2KHCA5SGHMYGMO8FPTMVD,1379,114506.jpg,6,71,live
164,ABL3H3O3BI8ZD:3MHW492WW2KHCA5SGHMYGMO8FPTMVD,1335,055914.jpg,8,72,live
165,ABL3H3O3BI8ZD:3MHW492WW2KHCA5SGHMYGMO8FPTMVD,4814,171257.jpg,7,73,live
166,ABL3H3O3BI8ZD:3MHW492WW2KHCA5SGHMYGMO8FPTMVD,1049,164055.jpg,7,74,live
167,ABL3H3O3BI8ZD:3MHW492WW2KHCA5SGHMYGMO8FPTMVD,1228,035709.jpg,7,75,live
168,ABL3H3O3BI8ZD:3MHW492WW2KHCA5SGHMYGMO8FPTMVD,1095,108820.jpg,7,76,live
169,ABL3H3O3BI8ZD:3MHW492WW2KHCA5SGHMYGMO8FPTMVD,5623,189212.jpg,7,77,live
170,ABL3H3O3BI8ZD:3MHW492WW2KHCA5SGHMYGMO8FPTMVD,1216,074442.jpg,7,79,live
171,ABL3H3O3BI8ZD:3MHW492WW2KHCA5SGHMYGMO8FPTMVD,1109,110328.jpg,7,80,live
172,ABL3H3O3BI8ZD:3MHW492WW2KHCA5SGHMYGMO8FPTMVD,1349,070908.jpg,7,81,live
173,ABL3H3O3BI8ZD:3MHW492WW2KHCA5SGHMYGMO8FPTMVD,1154,052930.jpg,7,82,live
174,ABL3H3O3BI8ZD:3MHW492WW2KHCA5SGHMYGMO8FPTMVD,1288,152827.jpg,7,83,live
175,ABL3H3O3BI8ZD:3MHW492WW2KHCA5SGHMYGMO8FPTMVD,1244,048695.jpg,7,84,live
176,ABL3H3O3BI8ZD:3MHW492WW2KHCA5SGHMYGMO8FPTMVD,1318,152865.jpg,7,85,live
177,ABL3H3O3BI8ZD:3MHW492WW2KHCA5SGHMYGMO8FPTMVD,1363,088505.jpg,7,86,live
178,ABL3H3O3BI8ZD:3MHW492WW2KHCA5SGHMYGMO8FPTMVD,1319,127601.jpg,7,87,live
179,ABL3H3O3BI8ZD:3MHW492WW2KHCA5SGHMYGMO8FPTMVD,1303,163429.jpg,7,88,live
180,ABL3H3O3BI8ZD:3MHW492WW2KHCA5SGHMYGMO8FPTMVD,1409,012976.jpg,7,90,live
181,ABL3H3O3BI8ZD:3MHW492WW2KHCA5SGHMYGMO8FPTMVD,1273,122478.jpg,7,91,live
182,ABL3H3O3BI8ZD:3MHW492WW2KHCA5SGHMYGMO8FPTMVD,1274,033708.jpg,7,92,live
183,ABL3H3O3BI8ZD:3MHW492WW2KHCA5SGHMYGMO8FPTMVD,1184,003560.jpg,7,93,live
184,ABL3H3O3BI8ZD:3MHW492WW2KHCA5SGHMYGMO8FPTMVD,1349,003560.jpg,7,94,live
185,ABL3H3O3BI8ZD:3MHW492WW2KHCA5SGHMYGMO8FPTMVD,1243,027687.jpg,7,95,live
186,ABL3H3O3BI8ZD:3MHW492WW2KHCA5SGHMYGMO8FPTMVD,1229,033658.jpg,7,96,live
187,ABL3H3O3BI8ZD:3MHW492WW2KHCA5SGHMYGMO8FPTMVD,1334,182358.jpg,7,97,live
188,ABL3H3O3BI8ZD:3MHW492WW2KHCA5SGHMYGMO8FPTMVD,1470,122478.jpg,7,98,live
189,ABL3H3O3BI8ZD:3MHW492WW2KHCA5SGHMYGMO8FPTMVD,1363,178434.jpg,7,99,live
190,ABL3H3O3BI8ZD:3MHW492WW2KHCA5SGHMYGMO8FPTMVD,1515,127312.jpg,7,101,live
191,ABL3H3O3BI8ZD:3MHW492WW2KHCA5SGHMYGMO8FPTMVD,1228,116443.jpg,7,102,live
192,ABL3H3O3BI8ZD:3MHW492WW2KHCA5SGHMYGMO8FPTMVD,1380,114506.jpg,7,103,live
193,ABL3H3O3BI8ZD:3MHW492WW2KHCA5SGHMYGMO8FPTMVD,1304,030503.jpg,7,104,live
194,ABL3H3O3BI8ZD:3MHW492WW2KHCA5SGHMYGMO8FPTMVD,1124,199097.jpg,7,105,live
195,ABL3H3O3BI8ZD:3MHW492WW2KHCA5SGHMYGMO8FPTMVD,1229,016460.jpg,7,106,live
196,ABL3H3O3BI8ZD:3MHW492WW2KHCA5SGHMYGMO8FPTMVD,20623,064300.jpg,6,107,live
197,ABL3H3O3BI8ZD:3MHW492WW2KHCA5SGHMYGMO8FPTMVD,1468,020874.jpg,6,108,live
198,ABL3H3O3BI8ZD:3MHW492WW2KHCA5SGHMYGMO8FPTMVD,1019,118886.jpg,6,109,live
199,ABL3H3O3BI8ZD:3MHW492WW2KHCA5SGHMYGMO8FPTMVD,1229,171826.jpg,6,110,live
200,A3SD02HCW68EUL:3U5NZHP4LT9IFC7L38XMIPRUCFTPHM,15884,069096.jpg,7,2,live
201,A3SD02HCW68EUL:3U5NZHP4LT9IFC7L38XMIPRUCFTPHM,3567,055914.jpg,6,3,live
202,A3SD02HCW68EUL:3U5NZHP4LT9IFC7L38XMIPRUCFTPHM,2203,024915.jpg,6,4,live
203,A3SD02HCW68EUL:3U5NZHP4LT9IFC7L38XMIPRUCFTPHM,1412,027687.jpg,6,5,live
204,A3SD02HCW68EUL:3U5NZHP4LT9IFC7L38XMIPRUCFTPHM,1496,161851.jpg,6,6,live
205,A3SD02HCW68EUL:3U5NZHP4LT9IFC7L38XMIPRUCFTPHM,1950,171257.jpg,6,7,live
206,A3SD02HCW68EUL:3U5NZHP4LT9IFC7L38XMIPRUCFTPHM,1394,003560.jpg,6,8,live
207,A3SD02HCW68EUL:3U5NZHP4LT9IFC7L38XMIPRUCFTPHM,1725,159474.jpg,6,9,live
208,A3SD02HCW68EUL:3U5NZHP4LT9IFC7L38XMIPRUCFTPHM,1560,124386.jpg,6,10,live
209,A3SD02HCW68EUL:3U5NZHP4LT9IFC7L38XMIPRUCFTPHM,1259,164055.jpg,6,11,live
210,A3SD02HCW68EUL:3U5NZHP4LT9IFC7L38XMIPRUCFTPHM,3327,178434.jpg,7,13,live
211,A3SD02HCW68EUL:3U5NZHP4LT9IFC7L38XMIPRUCFTPHM,1360,135747.jpg,7,14,live
212,A3SD02HCW68EUL:3U5NZHP4LT9IFC7L38XMIPRUCFTPHM,1003,127312.jpg,7,15,live
213,A3SD02HCW68EUL:3U5NZHP4LT9IFC7L38XMIPRUCFTPHM,1048,186784.jpg,7,16,live
214,A3SD02HCW68EUL:3U5NZHP4LT9IFC7L38XMIPRUCFTPHM,1168,040498.jpg,7,17,live
215,A3SD02HCW68EUL:3U5NZHP4LT9IFC7L38XMIPRUCFTPHM,1109,070908.jpg,7,18,live
216,A3SD02HCW68EUL:3U5NZHP4LT9IFC7L38XMIPRUCFTPHM,1844,020874.jpg,7,19,live
217,A3SD02HCW68EUL:3U5NZHP4LT9IFC7L38XMIPRUCFTPHM,1514,074442.jpg,7,20,live
218,A3SD02HCW68EUL:3U5NZHP4LT9IFC7L38XMIPRUCFTPHM,1739,166652.jpg,7,21,live
219,A3SD02HCW68EUL:3U5NZHP4LT9IFC7L38XMIPRUCFTPHM,1543,012976.jpg,7,22,live
220,A3SD02HCW68EUL:3U5NZHP4LT9IFC7L38XMIPRUCFTPHM,1574,033310.jpg,7,24,live
221,A3SD02HCW68EUL:3U5NZHP4LT9IFC7L38XMIPRUCFTPHM,5773,165297.jpg,8,25,live
222,A3SD02HCW68EUL:3U5NZHP4LT9IFC7L38XMIPRUCFTPHM,6735,197708.jpg,9,26,live
223,A3SD02HCW68EUL:3U5NZHP4LT9IFC7L38XMIPRUCFTPHM,1212,185318.jpg,9,27,live
224,A3SD02HCW68EUL:3U5NZHP4LT9IFC7L38XMIPRUCFTPHM,1964,160218.jpg,8,28,live
225,A3SD02HCW68EUL:3U5NZHP4LT9IFC7L38XMIPRUCFTPHM,1169,181032.jpg,8,29,live
226,A3SD02HCW68EUL:3U5NZHP4LT9IFC7L38XMIPRUCFTPHM,1109,186564.jpg,8,30,live
227,A3SD02HCW68EUL:3U5NZHP4LT9IFC7L38XMIPRUCFTPHM,1873,110519.jpg,7,31,live
228,A3SD02HCW68EUL:3U5NZHP4LT9IFC7L38XMIPRUCFTPHM,1214,057478.jpg,7,32,live
229,A3SD02HCW68EUL:3U5NZHP4LT9IFC7L38XMIPRUCFTPHM,1124,127601.jpg,7,33,live
230,A3SD02HCW68EUL:3U5NZHP4LT9IFC7L38XMIPRUCFTPHM,3196,033708.jpg,8,35,live
231,A3SD02HCW68EUL:3U5NZHP4LT9IFC7L38XMIPRUCFTPHM,5069,003560.jpg,7,36,live
232,A3SD02HCW68EUL:3U5NZHP4LT9IFC7L38XMIPRUCFTPHM,1064,171826.jpg,7,37,live
233,A3SD02HCW68EUL:3U5NZHP4LT9IFC7L38XMIPRUCFTPHM,4836,033708.jpg,7,38,live
234,A3SD02HCW68EUL:3U5NZHP4LT9IFC7L38XMIPRUCFTPHM,1536,114506.jpg,6,39,live
235,A3SD02HCW68EUL:3U5NZHP4LT9IFC7L38XMIPRUCFTPHM,4514,118886.jpg,7,40,live
236,A3SD02HCW68EUL:3U5NZHP4LT9IFC7L38XMIPRUCFTPHM,1154,199097.jpg,7,41,live
237,A3SD02HCW68EUL:3U5NZHP4LT9IFC7L38XMIPRUCFTPHM,1169,102692.jpg,7,42,live
238,A3SD02HCW68EUL:3U5NZHP4LT9IFC7L38XMIPRUCFTPHM,1124,064300.jpg,7,43,live
239,A3SD02HCW68EUL:3U5NZHP4LT9IFC7L38XMIPRUCFTPHM,1005,160870.jpg,7,44,live
240,A3SD02HCW68EUL:3U5NZHP4LT9IFC7L38XMIPRUCFTPHM,1270,060748.jpg,7,46,live
241,A3SD02HCW68EUL:3U5NZHP4LT9IFC7L38XMIPRUCFTPHM,1142,159474.jpg,7,47,live
242,A3SD02HCW68EUL:3U5NZHP4LT9IFC7L38XMIPRUCFTPHM,1045,055914.jpg,7,48,live
243,A3SD02HCW68EUL:3U5NZHP4LT9IFC7L38XMIPRUCFTPHM,1048,022657.jpg,7,49,live
244,A3SD02HCW68EUL:3U5NZHP4LT9IFC7L38XMIPRUCFTPHM,1215,182358.jpg,7,50,live
245,A3SD02HCW68EUL:3U5NZHP4LT9IFC7L38XMIPRUCFTPHM,1138,110328.jpg,7,51,live
246,A3SD02HCW68EUL:3U5NZHP4LT9IFC7L38XMIPRUCFTPHM,1274,104427.jpg,7,52,live
247,A3SD02HCW68EUL:3U5NZHP4LT9IFC7L38XMIPRUCFTPHM,2293,133078.jpg,6,53,live
248,A3SD02HCW68EUL:3U5NZHP4LT9IFC7L38XMIPRUCFTPHM,1094,185572.jpg,6,54,live
249,A3SD02HCW68EUL:3U5NZHP4LT9IFC7L38XMIPRUCFTPHM,1079,033658.jpg,6,55,live
250,A3SD02HCW68EUL:3U5NZHP4LT9IFC7L38XMIPRUCFTPHM,1122,118886.jpg,6,57,live
251,A3SD02HCW68EUL:3U5NZHP4LT9IFC7L38XMIPRUCFTPHM,1213,122478.jpg,6,58,live
252,A3SD02HCW68EUL:3U5NZHP4LT9IFC7L38XMIPRUCFTPHM,1112,123983.jpg,6,59,live
253,A3SD02HCW68EUL:3U5NZHP4LT9IFC7L38XMIPRUCFTPHM,10736,002854.jpg,7,60,live
254,A3SD02HCW68EUL:3U5NZHP4LT9IFC7L38XMIPRUCFTPHM,1724,163429.jpg,7,61,live
255,A3SD02HCW68EUL:3U5NZHP4LT9IFC7L38XMIPRUCFTPHM,1920,141241.jpg,7,62,live
256,A3SD02HCW68EUL:3U5NZHP4LT9IFC7L38XMIPRUCFTPHM,1349,114506.jpg,6,63,live
257,A3SD02HCW68EUL:3U5NZHP4LT9IFC7L38XMIPRUCFTPHM,4514,163429.jpg,6,64,live
258,A3SD02HCW68EUL:3U5NZHP4LT9IFC7L38XMIPRUCFTPHM,4227,027687.jpg,8,65,live
259,A3SD02HCW68EUL:3U5NZHP4LT9IFC7L38XMIPRUCFTPHM,1244,030503.jpg,8,66,live
260,A3SD02HCW68EUL:3U5NZHP4LT9IFC7L38XMIPRUCFTPHM,1171,040400.jpg,8,68,live
261,A3SD02HCW68EUL:3U5NZHP4LT9IFC7L38XMIPRUCFTPHM,1362,116443.jpg,8,69,live
262,A3SD02HCW68EUL:3U5NZHP4LT9IFC7L38XMIPRUCFTPHM,2203,182358.jpg,8,70,live
263,A3SD02HCW68EUL:3U5NZHP4LT9IFC7L38XMIPRUCFTPHM,1304,128683.jpg,8,71,live
264,A3SD02HCW68EUL:3U5NZHP4LT9IFC7L38XMIPRUCFTPHM,1138,137186.jpg,8,72,live
265,A3SD02HCW68EUL:3U5NZHP4LT9IFC7L38XMIPRUCFTPHM,1108,058057.jpg,8,73,live
266,A3SD02HCW68EUL:3U5NZHP4LT9IFC7L38XMIPRUCFTPHM,1079,135747.jpg,8,74,live
267,A3SD02HCW68EUL:3U5NZHP4LT9IFC7L38XMIPRUCFTPHM,1184,136091.jpg,8,75,live
268,A3SD02HCW68EUL:3U5NZHP4LT9IFC7L38XMIPRUCFTPHM,2338,189212.jpg,7,76,live
269,A3SD02HCW68EUL:3U5NZHP4LT9IFC7L38XMIPRUCFTPHM,1020,130873.jpg,7,77,live
270,A3SD02HCW68EUL:3U5NZHP4LT9IFC7L38XMIPRUCFTPHM,1461,005221.jpg,7,79,live
271,A3SD02HCW68EUL:3U5NZHP4LT9IFC7L38XMIPRUCFTPHM,1064,123983.jpg,7,80,live
272,A3SD02HCW68EUL:3U5NZHP4LT9IFC7L38XMIPRUCFTPHM,28844,133078.jpg,7,81,live
273,A3SD02HCW68EUL:3U5NZHP4LT9IFC7L38XMIPRUCFTPHM,1259,035709.jpg,7,82,live
274,A3SD02HCW68EUL:3U5NZHP4LT9IFC7L38XMIPRUCFTPHM,1349,088505.jpg,7,83,live
275,A3SD02HCW68EUL:3U5NZHP4LT9IFC7L38XMIPRUCFTPHM,1754,050840.jpg,7,84,live
276,A3SD02HCW68EUL:3U5NZHP4LT9IFC7L38XMIPRUCFTPHM,1048,058369.jpg,6,85,live
277,A3SD02HCW68EUL:3U5NZHP4LT9IFC7L38XMIPRUCFTPHM,1243,016460.jpg,6,86,live
278,A3SD02HCW68EUL:3U5NZHP4LT9IFC7L38XMIPRUCFTPHM,1169,109934.jpg,6,87,live
279,A3SD02HCW68EUL:3U5NZHP4LT9IFC7L38XMIPRUCFTPHM,1319,096298.jpg,6,88,live
280,A3SD02HCW68EUL:3U5NZHP4LT9IFC7L38XMIPRUCFTPHM,1710,069096.jpg,6,90,live
281,A3SD02HCW68EUL:3U5NZHP4LT9IFC7L38XMIPRUCFTPHM,1183,103511.jpg,6,91,live
282,A3SD02HCW68EUL:3U5NZHP4LT9IFC7L38XMIPRUCFTPHM,1424,048695.jpg,6,92,live
283,A3SD02HCW68EUL:3U5NZHP4LT9IFC7L38XMIPRUCFTPHM,1544,020874.jpg,6,93,live
284,A3SD02HCW68EUL:3U5NZHP4LT9IFC7L38XMIPRUCFTPHM,1259,110128.jpg,6,94,live
285,A3SD02HCW68EUL:3U5NZHP4LT9IFC7L38XMIPRUCFTPHM,1154,070908.jpg,6,95,live
286,A3SD02HCW68EUL:3U5NZHP4LT9IFC7L38XMIPRUCFTPHM,2323,052930.jpg,7,96,live
287,A3SD02HCW68EUL:3U5NZHP4LT9IFC7L38XMIPRUCFTPHM,1364,152827.jpg,7,97,live
288,A3SD02HCW68EUL:3U5NZHP4LT9IFC7L38XMIPRUCFTPHM,1304,163099.jpg,7,98,live
289,A3SD02HCW68EUL:3U5NZHP4LT9IFC7L38XMIPRUCFTPHM,1259,171257.jpg,7,99,live
290,A3SD02HCW68EUL:3U5NZHP4LT9IFC7L38XMIPRUCFTPHM,1016,078663.jpg,7,101,live
291,A3SD02HCW68EUL:3U5NZHP4LT9IFC7L38XMIPRUCFTPHM,1078,108820.jpg,7,102,live
292,A3SD02HCW68EUL:3U5NZHP4LT9IFC7L38XMIPRUCFTPHM,1454,022657.jpg,7,103,live
293,A3SD02HCW68EUL:3U5NZHP4LT9IFC7L38XMIPRUCFTPHM,1244,199097.jpg,7,104,live
294,A3SD02HCW68EUL:3U5NZHP4LT9IFC7L38XMIPRUCFTPHM,1348,152865.jpg,7,105,live
295,A3SD02HCW68EUL:3U5NZHP4LT9IFC7L38XMIPRUCFTPHM,1289,122478.jpg,7,106,live
296,A3SD02HCW68EUL:3U5NZHP4LT9IFC7L38XMIPRUCFTPHM,1648,058511.jpg,7,107,live
297,A3SD02HCW68EUL:3U5NZHP4LT9IFC7L38XMIPRUCFTPHM,1244,030503.jpg,8,108,live
298,A3SD02HCW68EUL:3U5NZHP4LT9IFC7L38XMIPRUCFTPHM,1214,078330.jpg,8,109,live
299,A3SD02HCW68EUL:3U5NZHP4LT9IFC7L38XMIPRUCFTPHM,1319,009366.jpg,8,110,live
300,A25PFSORDO3SWQ:3DL65MZB8FMN1D7F823ADMVALGMCEF,7165,136091.jpg,5,2,live
301,A25PFSORDO3SWQ:3DL65MZB8FMN1D7F823ADMVALGMCEF,3847,118886.jpg,6,3,live
302,A25PFSORDO3SWQ:3DL65MZB8FMN1D7F823ADMVALGMCEF,7973,078330.jpg,5,4,live
303,A25PFSORDO3SWQ:3DL65MZB8FMN1D7F823ADMVALGMCEF,4024,109934.jpg,4,5,live
304,A25PFSORDO3SWQ:3DL65MZB8FMN1D7F823ADMVALGMCEF,4562,020874.jpg,4,6,live
305,A25PFSORDO3SWQ:3DL65MZB8FMN1D7F823ADMVALGMCEF,3401,122478.jpg,5,7,live
306,A25PFSORDO3SWQ:3DL65MZB8FMN1D7F823ADMVALGMCEF,5068,058057.jpg,6,8,live
307,A25PFSORDO3SWQ:3DL65MZB8FMN1D7F823ADMVALGMCEF,3184,122478.jpg,5,9,live
308,A25PFSORDO3SWQ:3DL65MZB8FMN1D7F823ADMVALGMCEF,3731,135747.jpg,4,10,live
309,A25PFSORDO3SWQ:3DL65MZB8FMN1D7F823ADMVALGMCEF,4865,070908.jpg,7,11,live
310,A25PFSORDO3SWQ:3DL65MZB8FMN1D7F823ADMVALGMCEF,6049,030503.jpg,6,13,live
311,A25PFSORDO3SWQ:3DL65MZB8FMN1D7F823ADMVALGMCEF,3821,186564.jpg,5,14,live
312,A25PFSORDO3SWQ:3DL65MZB8FMN1D7F823ADMVALGMCEF,8827,003560.jpg,7,15,live
313,A25PFSORDO3SWQ:3DL65MZB8FMN1D7F823ADMVALGMCEF,2967,070908.jpg,7,16,live
314,A25PFSORDO3SWQ:3DL65MZB8FMN1D7F823ADMVALGMCEF,3359,035709.jpg,6,17,live
315,A25PFSORDO3SWQ:3DL65MZB8FMN1D7F823ADMVALGMCEF,5808,110519.jpg,7,18,live
316,A25PFSORDO3SWQ:3DL65MZB8FMN1D7F823ADMVALGMCEF,4673,027687.jpg,6,19,live
317,A25PFSORDO3SWQ:3DL65MZB8FMN1D7F823ADMVALGMCEF,6475,022657.jpg,7,20,live
318,A25PFSORDO3SWQ:3DL65MZB8FMN1D7F823ADMVALGMCEF,5491,185572.jpg,7,21,live
319,A25PFSORDO3SWQ:3DL65MZB8FMN1D7F823ADMVALGMCEF,3673,141241.jpg,7,22,live
320,A25PFSORDO3SWQ:3DL65MZB8FMN1D7F823ADMVALGMCEF,3191,003560.jpg,7,24,live
321,A25PFSORDO3SWQ:3DL65MZB8FMN1D7F823ADMVALGMCEF,3721,186784.jpg,7,25,live
322,A25PFSORDO3SWQ:3DL65MZB8FMN1D7F823ADMVALGMCEF,4811,012976.jpg,8,26,live
323,A25PFSORDO3SWQ:3DL65MZB8FMN1D7F823ADMVALGMCEF,4033,164055.jpg,6,27,live
324,A25PFSORDO3SWQ:3DL65MZB8FMN1D7F823ADMVALGMCEF,3893,110328.jpg,7,28,live
325,A25PFSORDO3SWQ:3DL65MZB8FMN1D7F823ADMVALGMCEF,2529,103511.jpg,7,29,live
326,A25PFSORDO3SWQ:3DL65MZB8FMN1D7F823ADMVALGMCEF,4393,088505.jpg,5,30,live
327,A25PFSORDO3SWQ:3DL65MZB8FMN1D7F823ADMVALGMCEF,3689,033708.jpg,6,31,live
328,A25PFSORDO3SWQ:3DL65MZB8FMN1D7F823ADMVALGMCEF,3636,182358.jpg,6,32,live
329,A25PFSORDO3SWQ:3DL65MZB8FMN1D7F823ADMVALGMCEF,2744,060748.jpg,6,33,live
330,A25PFSORDO3SWQ:3DL65MZB8FMN1D7F823ADMVALGMCEF,3174,181032.jpg,6,35,live
331,A25PFSORDO3SWQ:3DL65MZB8FMN1D7F823ADMVALGMCEF,3604,002854.jpg,7,36,live
332,A25PFSORDO3SWQ:3DL65MZB8FMN1D7F823ADMVALGMCEF,3121,058369.jpg,6,37,live
333,A25PFSORDO3SWQ:3DL65MZB8FMN1D7F823ADMVALGMCEF,2991,069096.jpg,6,38,live
334,A25PFSORDO3SWQ:3DL65MZB8FMN1D7F823ADMVALGMCEF,2827,108820.jpg,8,39,live
335,A25PFSORDO3SWQ:3DL65MZB8FMN1D7F823ADMVALGMCEF,3407,165297.jpg,7,40,live
336,A25PFSORDO3SWQ:3DL65MZB8FMN1D7F823ADMVALGMCEF,2748,033708.jpg,6,41,live
337,A25PFSORDO3SWQ:3DL65MZB8FMN1D7F823ADMVALGMCEF,2107,027687.jpg,6,42,live
338,A25PFSORDO3SWQ:3DL65MZB8FMN1D7F823ADMVALGMCEF,3030,009366.jpg,7,43,live
339,A25PFSORDO3SWQ:3DL65MZB8FMN1D7F823ADMVALGMCEF,3437,104427.jpg,6,44,live
340,A25PFSORDO3SWQ:3DL65MZB8FMN1D7F823ADMVALGMCEF,3635,069096.jpg,6,46,live
341,A25PFSORDO3SWQ:3DL65MZB8FMN1D7F823ADMVALGMCEF,2991,123983.jpg,6,47,live
342,A25PFSORDO3SWQ:3DL65MZB8FMN1D7F823ADMVALGMCEF,2849,160870.jpg,6,48,live
343,A25PFSORDO3SWQ:3DL65MZB8FMN1D7F823ADMVALGMCEF,3832,050840.jpg,6,49,live
344,A25PFSORDO3SWQ:3DL65MZB8FMN1D7F823ADMVALGMCEF,2744,118886.jpg,7,50,live
345,A25PFSORDO3SWQ:3DL65MZB8FMN1D7F823ADMVALGMCEF,2374,123983.jpg,6,51,live
346,A25PFSORDO3SWQ:3DL65MZB8FMN1D7F823ADMVALGMCEF,4317,114506.jpg,7,52,live
347,A25PFSORDO3SWQ:3DL65MZB8FMN1D7F823ADMVALGMCEF,4303,161851.jpg,7,53,live
348,A25PFSORDO3SWQ:3DL65MZB8FMN1D7F823ADMVALGMCEF,5324,030503.jpg,7,54,live
349,A25PFSORDO3SWQ:3DL65MZB8FMN1D7F823ADMVALGMCEF,4756,033658.jpg,8,55,live
350,A25PFSORDO3SWQ:3DL65MZB8FMN1D7F823ADMVALGMCEF,3061,152827.jpg,7,57,live
351,A25PFSORDO3SWQ:3DL65MZB8FMN1D7F823ADMVALGMCEF,2646,052930.jpg,7,58,live
352,A25PFSORDO3SWQ:3DL65MZB8FMN1D7F823ADMVALGMCEF,4671,127601.jpg,8,59,live
353,A25PFSORDO3SWQ:3DL65MZB8FMN1D7F823ADMVALGMCEF,7766,166652.jpg,6,60,live
354,A25PFSORDO3SWQ:3DL65MZB8FMN1D7F823ADMVALGMCEF,3770,057478.jpg,6,61,live
355,A25PFSORDO3SWQ:3DL65MZB8FMN1D7F823ADMVALGMCEF,3209,163429.jpg,6,62,live
356,A25PFSORDO3SWQ:3DL65MZB8FMN1D7F823ADMVALGMCEF,3348,102692.jpg,6,63,live
357,A25PFSORDO3SWQ:3DL65MZB8FMN1D7F823ADMVALGMCEF,3087,171826.jpg,6,64,live
358,A25PFSORDO3SWQ:3DL65MZB8FMN1D7F823ADMVALGMCEF,4166,016460.jpg,7,65,live
359,A25PFSORDO3SWQ:3DL65MZB8FMN1D7F823ADMVALGMCEF,3291,096298.jpg,6,66,live
360,A25PFSORDO3SWQ:3DL65MZB8FMN1D7F823ADMVALGMCEF,4213,182358.jpg,5,68,live
361,A25PFSORDO3SWQ:3DL65MZB8FMN1D7F823ADMVALGMCEF,4150,171257.jpg,9,69,live
362,A25PFSORDO3SWQ:3DL65MZB8FMN1D7F823ADMVALGMCEF,3449,199097.jpg,6,70,live
363,A25PFSORDO3SWQ:3DL65MZB8FMN1D7F823ADMVALGMCEF,2838,185318.jpg,7,71,live
364,A25PFSORDO3SWQ:3DL65MZB8FMN1D7F823ADMVALGMCEF,9829,127312.jpg,6,72,live
365,A25PFSORDO3SWQ:3DL65MZB8FMN1D7F823ADMVALGMCEF,6343,055914.jpg,6,73,live
366,A25PFSORDO3SWQ:3DL65MZB8FMN1D7F823ADMVALGMCEF,2565,163099.jpg,7,74,live
367,A25PFSORDO3SWQ:3DL65MZB8FMN1D7F823ADMVALGMCEF,2835,171257.jpg,9,75,live
368,A25PFSORDO3SWQ:3DL65MZB8FMN1D7F823ADMVALGMCEF,2737,064300.jpg,6,76,live
369,A25PFSORDO3SWQ:3DL65MZB8FMN1D7F823ADMVALGMCEF,4199,114506.jpg,7,77,live
370,A25PFSORDO3SWQ:3DL65MZB8FMN1D7F823ADMVALGMCEF,2573,040498.jpg,6,79,live
371,A25PFSORDO3SWQ:3DL65MZB8FMN1D7F823ADMVALGMCEF,3643,116443.jpg,7,80,live
372,A25PFSORDO3SWQ:3DL65MZB8FMN1D7F823ADMVALGMCEF,5039,074442.jpg,6,81,live
373,A25PFSORDO3SWQ:3DL65MZB8FMN1D7F823ADMVALGMCEF,3821,133078.jpg,3,82,live
374,A25PFSORDO3SWQ:3DL65MZB8FMN1D7F823ADMVALGMCEF,4291,152865.jpg,6,83,live
375,A25PFSORDO3SWQ:3DL65MZB8FMN1D7F823ADMVALGMCEF,3024,159474.jpg,7,84,live
376,A25PFSORDO3SWQ:3DL65MZB8FMN1D7F823ADMVALGMCEF,4074,110128.jpg,6,85,live
377,A25PFSORDO3SWQ:3DL65MZB8FMN1D7F823ADMVALGMCEF,4739,137186.jpg,7,86,live
378,A25PFSORDO3SWQ:3DL65MZB8FMN1D7F823ADMVALGMCEF,2825,189212.jpg,7,87,live
379,A25PFSORDO3SWQ:3DL65MZB8FMN1D7F823ADMVALGMCEF,7825,163429.jpg,6,88,live
380,A25PFSORDO3SWQ:3DL65MZB8FMN1D7F823ADMVALGMCEF,7064,135747.jpg,4,90,live
381,A25PFSORDO3SWQ:3DL65MZB8FMN1D7F823ADMVALGMCEF,2541,055914.jpg,6,91,live
382,A25PFSORDO3SWQ:3DL65MZB8FMN1D7F823ADMVALGMCEF,3967,005221.jpg,7,92,live
383,A25PFSORDO3SWQ:3DL65MZB8FMN1D7F823ADMVALGMCEF,3458,160218.jpg,7,93,live
384,A25PFSORDO3SWQ:3DL65MZB8FMN1D7F823ADMVALGMCEF,2835,133078.jpg,3,94,live
385,A25PFSORDO3SWQ:3DL65MZB8FMN1D7F823ADMVALGMCEF,3787,130873.jpg,7,95,live
386,A25PFSORDO3SWQ:3DL65MZB8FMN1D7F823ADMVALGMCEF,2891,124386.jpg,6,96,live
387,A25PFSORDO3SWQ:3DL65MZB8FMN1D7F823ADMVALGMCEF,3353,022657.jpg,7,97,live
388,A25PFSORDO3SWQ:3DL65MZB8FMN1D7F823ADMVALGMCEF,3456,159474.jpg,7,98,live
389,A25PFSORDO3SWQ:3DL65MZB8FMN1D7F823ADMVALGMCEF,2658,078663.jpg,6,99,live
390,A25PFSORDO3SWQ:3DL65MZB8FMN1D7F823ADMVALGMCEF,2917,128683.jpg,7,101,live
391,A25PFSORDO3SWQ:3DL65MZB8FMN1D7F823ADMVALGMCEF,3157,199097.jpg,6,102,live
392,A25PFSORDO3SWQ:3DL65MZB8FMN1D7F823ADMVALGMCEF,3515,020874.jpg,4,103,live
393,A25PFSORDO3SWQ:3DL65MZB8FMN1D7F823ADMVALGMCEF,5611,024915.jpg,7,104,live
394,A25PFSORDO3SWQ:3DL65MZB8FMN1D7F823ADMVALGMCEF,5047,048695.jpg,5,105,live
395,A25PFSORDO3SWQ:3DL65MZB8FMN1D7F823ADMVALGMCEF,4224,178434.jpg,5,106,live
396,A25PFSORDO3SWQ:3DL65MZB8FMN1D7F823ADMVALGMCEF,2676,197708.jpg,6,107,live
397,A25PFSORDO3SWQ:3DL65MZB8FMN1D7F823ADMVALGMCEF,2659,040400.jpg,6,108,live
398,A25PFSORDO3SWQ:3DL65MZB8FMN1D7F823ADMVALGMCEF,3861,033310.jpg,6,109,live
399,A25PFSORDO3SWQ:3DL65MZB8FMN1D7F823ADMVALGMCEF,3979,058511.jpg,6,110,live
400,A2T11H7YI7QPGD:33JKGHPFYE1445WJEQ0765UVTMRMNW,3833,159474.jpg,4,2,live
401,A2T11H7YI7QPGD:33JKGHPFYE1445WJEQ0765UVTMRMNW,1830,088505.jpg,5,3,live
402,A2T11H7YI7QPGD:33JKGHPFYE1445WJEQ0765UVTMRMNW,1193,040498.jpg,7,4,live
403,A2T11H7YI7QPGD:33JKGHPFYE1445WJEQ0765UVTMRMNW,1165,163429.jpg,6,5,live
404,A2T11H7YI7QPGD:33JKGHPFYE1445WJEQ0765UVTMRMNW,1639,020874.jpg,3,6,live
405,A2T11H7YI7QPGD:33JKGHPFYE1445WJEQ0765UVTMRMNW,3507,078663.jpg,5,7,live
406,A2T11H7YI7QPGD:33JKGHPFYE1445WJEQ0765UVTMRMNW,2956,127312.jpg,1,8,live
407,A2T11H7YI7QPGD:33JKGHPFYE1445WJEQ0765UVTMRMNW,1183,181032.jpg,5,9,live
408,A2T11H7YI7QPGD:33JKGHPFYE1445WJEQ0765UVTMRMNW,5365,074442.jpg,4,10,live
409,A2T11H7YI7QPGD:33JKGHPFYE1445WJEQ0765UVTMRMNW,1192,060748.jpg,6,11,live
410,A2T11H7YI7QPGD:33JKGHPFYE1445WJEQ0765UVTMRMNW,1416,133078.jpg,6,13,live
411,A2T11H7YI7QPGD:33JKGHPFYE1445WJEQ0765UVTMRMNW,1279,118886.jpg,5,14,live
412,A2T11H7YI7QPGD:33JKGHPFYE1445WJEQ0765UVTMRMNW,1253,055914.jpg,7,15,live
413,A2T11H7YI7QPGD:33JKGHPFYE1445WJEQ0765UVTMRMNW,1786,164055.jpg,9,16,live
414,A2T11H7YI7QPGD:33JKGHPFYE1445WJEQ0765UVTMRMNW,1375,166652.jpg,3,17,live
415,A2T11H7YI7QPGD:33JKGHPFYE1445WJEQ0765UVTMRMNW,1240,052930.jpg,5,18,live
416,A2T11H7YI7QPGD:33JKGHPFYE1445WJEQ0765UVTMRMNW,1197,128683.jpg,4,19,live
417,A2T11H7YI7QPGD:33JKGHPFYE1445WJEQ0765UVTMRMNW,1223,110128.jpg,7,20,live
418,A2T11H7YI7QPGD:33JKGHPFYE1445WJEQ0765UVTMRMNW,2859,022657.jpg,6,21,live
419,A2T11H7YI7QPGD:33JKGHPFYE1445WJEQ0765UVTMRMNW,1223,186564.jpg,5,22,live
420,A2T11H7YI7QPGD:33JKGHPFYE1445WJEQ0765UVTMRMNW,1483,033658.jpg,4,24,live
421,A2T11H7YI7QPGD:33JKGHPFYE1445WJEQ0765UVTMRMNW,1238,012976.jpg,7,25,live
422,A2T11H7YI7QPGD:33JKGHPFYE1445WJEQ0765UVTMRMNW,1007,165297.jpg,6,26,live
423,A2T11H7YI7QPGD:33JKGHPFYE1445WJEQ0765UVTMRMNW,2686,048695.jpg,8,27,live
424,A2T11H7YI7QPGD:33JKGHPFYE1445WJEQ0765UVTMRMNW,1219,199097.jpg,4,28,live
425,A2T11H7YI7QPGD:33JKGHPFYE1445WJEQ0765UVTMRMNW,1698,122478.jpg,6,29,live
426,A2T11H7YI7QPGD:33JKGHPFYE1445WJEQ0765UVTMRMNW,1441,102692.jpg,8,30,live
427,A2T11H7YI7QPGD:33JKGHPFYE1445WJEQ0765UVTMRMNW,1696,096298.jpg,6,31,live
428,A2T11H7YI7QPGD:33JKGHPFYE1445WJEQ0765UVTMRMNW,2035,133078.jpg,1,32,live
429,A2T11H7YI7QPGD:33JKGHPFYE1445WJEQ0765UVTMRMNW,1542,189212.jpg,4,33,live
430,A2T11H7YI7QPGD:33JKGHPFYE1445WJEQ0765UVTMRMNW,1840,141241.jpg,4,35,live
431,A2T11H7YI7QPGD:33JKGHPFYE1445WJEQ0765UVTMRMNW,1142,033708.jpg,6,36,live
432,A2T11H7YI7QPGD:33JKGHPFYE1445WJEQ0765UVTMRMNW,1103,110328.jpg,5,37,live
433,A2T11H7YI7QPGD:33JKGHPFYE1445WJEQ0765UVTMRMNW,1280,110519.jpg,7,38,live
434,A2T11H7YI7QPGD:33JKGHPFYE1445WJEQ0765UVTMRMNW,1041,003560.jpg,8,39,live
435,A2T11H7YI7QPGD:33JKGHPFYE1445WJEQ0765UVTMRMNW,1302,027687.jpg,7,40,live
436,A2T11H7YI7QPGD:33JKGHPFYE1445WJEQ0765UVTMRMNW,1290,171826.jpg,6,41,live
437,A2T11H7YI7QPGD:33JKGHPFYE1445WJEQ0765UVTMRMNW,1497,058369.jpg,4,42,live
438,A2T11H7YI7QPGD:33JKGHPFYE1445WJEQ0765UVTMRMNW,1060,136091.jpg,7,43,live
439,A2T11H7YI7QPGD:33JKGHPFYE1445WJEQ0765UVTMRMNW,1041,058511.jpg,8,44,live
440,A2T11H7YI7QPGD:33JKGHPFYE1445WJEQ0765UVTMRMNW,1408,002854.jpg,5,46,live
441,A2T11H7YI7QPGD:33JKGHPFYE1445WJEQ0765UVTMRMNW,1247,122478.jpg,6,47,live
442,A2T11H7YI7QPGD:33JKGHPFYE1445WJEQ0765UVTMRMNW,1083,199097.jpg,7,48,live
443,A2T11H7YI7QPGD:33JKGHPFYE1445WJEQ0765UVTMRMNW,1115,159474.jpg,8,49,live
444,A2T11H7YI7QPGD:33JKGHPFYE1445WJEQ0765UVTMRMNW,2332,009366.jpg,1,50,live
445,A2T11H7YI7QPGD:33JKGHPFYE1445WJEQ0765UVTMRMNW,1518,069096.jpg,2,51,live
446,A2T11H7YI7QPGD:33JKGHPFYE1445WJEQ0765UVTMRMNW,1906,130873.jpg,9,52,live
447,A2T11H7YI7QPGD:33JKGHPFYE1445WJEQ0765UVTMRMNW,1138,057478.jpg,8,53,live
448,A2T11H7YI7QPGD:33JKGHPFYE1445WJEQ0765UVTMRMNW,1685,186784.jpg,3,54,live
449,A2T11H7YI7QPGD:33JKGHPFYE1445WJEQ0765UVTMRMNW,1066,020874.jpg,7,55,live
450,A2T11H7YI7QPGD:33JKGHPFYE1445WJEQ0765UVTMRMNW,1195,197708.jpg,6,57,live
451,A2T11H7YI7QPGD:33JKGHPFYE1445WJEQ0765UVTMRMNW,1317,078330.jpg,4,58,live
452,A2T11H7YI7QPGD:33JKGHPFYE1445WJEQ0765UVTMRMNW,1169,024915.jpg,5,59,live
453,A2T11H7YI7QPGD:33JKGHPFYE1445WJEQ0765UVTMRMNW,1313,069096.jpg,5,60,live
454,A2T11H7YI7QPGD:33JKGHPFYE1445WJEQ0765UVTMRMNW,1148,033310.jpg,5,61,live
455,A2T11H7YI7QPGD:33JKGHPFYE1445WJEQ0765UVTMRMNW,1339,116443.jpg,3,62,live
456,A2T11H7YI7QPGD:33JKGHPFYE1445WJEQ0765UVTMRMNW,1134,114506.jpg,4,63,live
457,A2T11H7YI7QPGD:33JKGHPFYE1445WJEQ0765UVTMRMNW,1124,124386.jpg,7,64,live
458,A2T11H7YI7QPGD:33JKGHPFYE1445WJEQ0765UVTMRMNW,1383,118886.jpg,6,65,live
459,A2T11H7YI7QPGD:33JKGHPFYE1445WJEQ0765UVTMRMNW,1151,182358.jpg,5,66,live
460,A2T11H7YI7QPGD:33JKGHPFYE1445WJEQ0765UVTMRMNW,2493,171257.jpg,9,68,live
461,A2T11H7YI7QPGD:33JKGHPFYE1445WJEQ0765UVTMRMNW,1509,182358.jpg,1,69,live
462,A2T11H7YI7QPGD:33JKGHPFYE1445WJEQ0765UVTMRMNW,1713,127601.jpg,8,70,live
463,A2T11H7YI7QPGD:33JKGHPFYE1445WJEQ0765UVTMRMNW,3270,030503.jpg,2,71,live
464,A2T11H7YI7QPGD:33JKGHPFYE1445WJEQ0765UVTMRMNW,1444,152827.jpg,5,72,live
465,A2T11H7YI7QPGD:33JKGHPFYE1445WJEQ0765UVTMRMNW,2295,123983.jpg,6,73,live
466,A2T11H7YI7QPGD:33JKGHPFYE1445WJEQ0765UVTMRMNW,1623,171257.jpg,8,74,live
467,A2T11H7YI7QPGD:33JKGHPFYE1445WJEQ0765UVTMRMNW,1209,103511.jpg,7,75,live
468,A2T11H7YI7QPGD:33JKGHPFYE1445WJEQ0765UVTMRMNW,1665,185318.jpg,2,76,live
469,A2T11H7YI7QPGD:33JKGHPFYE1445WJEQ0765UVTMRMNW,2138,185572.jpg,4,77,live
470,A2T11H7YI7QPGD:33JKGHPFYE1445WJEQ0765UVTMRMNW,2084,123983.jpg,3,79,live
471,A2T11H7YI7QPGD:33JKGHPFYE1445WJEQ0765UVTMRMNW,1589,178434.jpg,8,80,live
472,A2T11H7YI7QPGD:33JKGHPFYE1445WJEQ0765UVTMRMNW,1680,005221.jpg,6,81,live
473,A2T11H7YI7QPGD:33JKGHPFYE1445WJEQ0765UVTMRMNW,1464,152865.jpg,9,82,live
474,A2T11H7YI7QPGD:33JKGHPFYE1445WJEQ0765UVTMRMNW,1701,064300.jpg,4,83,live
475,A2T11H7YI7QPGD:33JKGHPFYE1445WJEQ0765UVTMRMNW,1791,003560.jpg,6,84,live
476,A2T11H7YI7QPGD:33JKGHPFYE1445WJEQ0765UVTMRMNW,1962,070908.jpg,9,85,live
477,A2T11H7YI7QPGD:33JKGHPFYE1445WJEQ0765UVTMRMNW,1886,035709.jpg,7,86,live
478,A2T11H7YI7QPGD:33JKGHPFYE1445WJEQ0765UVTMRMNW,1007,058057.jpg,8,87,live
479,A2T11H7YI7QPGD:33JKGHPFYE1445WJEQ0765UVTMRMNW,1475,135747.jpg,5,88,live
480,A2T11H7YI7QPGD:33JKGHPFYE1445WJEQ0765UVTMRMNW,1210,160870.jpg,7,90,live
481,A2T11H7YI7QPGD:33JKGHPFYE1445WJEQ0765UVTMRMNW,2024,016460.jpg,6,91,live
482,A2T11H7YI7QPGD:33JKGHPFYE1445WJEQ0765UVTMRMNW,1002,070908.jpg,8,92,live
483,A2T11H7YI7QPGD:33JKGHPFYE1445WJEQ0765UVTMRMNW,1331,033708.jpg,5,93,live
484,A2T11H7YI7QPGD:33JKGHPFYE1445WJEQ0765UVTMRMNW,1423,030503.jpg,9,94,live
485,A2T11H7YI7QPGD:33JKGHPFYE1445WJEQ0765UVTMRMNW,1442,135747.jpg,6,95,live
486,A2T11H7YI7QPGD:33JKGHPFYE1445WJEQ0765UVTMRMNW,1008,055914.jpg,8,96,live
487,A2T11H7YI7QPGD:33JKGHPFYE1445WJEQ0765UVTMRMNW,1038,137186.jpg,7,97,live
488,A2T11H7YI7QPGD:33JKGHPFYE1445WJEQ0765UVTMRMNW,1047,104427.jpg,5,98,live
489,A2T11H7YI7QPGD:33JKGHPFYE1445WJEQ0765UVTMRMNW,1480,050840.jpg,3,99,live
490,A2T11H7YI7QPGD:33JKGHPFYE1445WJEQ0765UVTMRMNW,1982,163429.jpg,4,101,live
491,A2T11H7YI7QPGD:33JKGHPFYE1445WJEQ0765UVTMRMNW,1305,040400.jpg,1,102,live
492,A2T11H7YI7QPGD:33JKGHPFYE1445WJEQ0765UVTMRMNW,1322,160218.jpg,2,103,live
493,A2T11H7YI7QPGD:33JKGHPFYE1445WJEQ0765UVTMRMNW,3679,161851.jpg,3,104,live
494,A2T11H7YI7QPGD:33JKGHPFYE1445WJEQ0765UVTMRMNW,2939,108820.jpg,1,105,live
495,A2T11H7YI7QPGD:33JKGHPFYE1445WJEQ0765UVTMRMNW,1603,163099.jpg,2,106,live
496,A2T11H7YI7QPGD:33JKGHPFYE1445WJEQ0765UVTMRMNW,1746,114506.jpg,3,107,live
497,A2T11H7YI7QPGD:33JKGHPFYE1445WJEQ0765UVTMRMNW,1106,109934.jpg,4,108,live
498,A2T11H7YI7QPGD:33JKGHPFYE1445WJEQ0765UVTMRMNW,1176,027687.jpg,7,109,live
499,A2T11H7YI7QPGD:33JKGHPFYE1445WJEQ0765UVTMRMNW,3904,022657.jpg,8,110,live
500,A3JLE2LJ5I17E2:38F71OA9GV3SGDJ2G2HUY0LMRV6MFQ,3061,069096.jpg,6,2,live
501,A3JLE2LJ5I17E2:38F71OA9GV3SGDJ2G2HUY0LMRV6MFQ,1334,123983.jpg,6,3,live
502,A3JLE2LJ5I17E2:38F71OA9GV3SGDJ2G2HUY0LMRV6MFQ,1543,122478.jpg,6,4,live
503,A3JLE2LJ5I17E2:38F71OA9GV3SGDJ2G2HUY0LMRV6MFQ,1574,069096.jpg,6,5,live
504,A3JLE2LJ5I17E2:38F71OA9GV3SGDJ2G2HUY0LMRV6MFQ,1725,058511.jpg,6,6,live
505,A3JLE2LJ5I17E2:38F71OA9GV3SGDJ2G2HUY0LMRV6MFQ,1529,185572.jpg,6,7,live
506,A3JLE2LJ5I17E2:38F71OA9GV3SGDJ2G2HUY0LMRV6MFQ,1529,022657.jpg,6,8,live
507,A3JLE2LJ5I17E2:38F71OA9GV3SGDJ2G2HUY0LMRV6MFQ,1875,130873.jpg,6,9,live
508,A3JLE2LJ5I17E2:38F71OA9GV3SGDJ2G2HUY0LMRV6MFQ,1500,088505.jpg,6,10,live
509,A3JLE2LJ5I17E2:38F71OA9GV3SGDJ2G2HUY0LMRV6MFQ,1396,178434.jpg,6,11,live
510,A3JLE2LJ5I17E2:38F71OA9GV3SGDJ2G2HUY0LMRV6MFQ,1529,189212.jpg,6,13,live
511,A3JLE2LJ5I17E2:38F71OA9GV3SGDJ2G2HUY0LMRV6MFQ,1488,052930.jpg,6,14,live
512,A3JLE2LJ5I17E2:38F71OA9GV3SGDJ2G2HUY0LMRV6MFQ,1404,127312.jpg,6,15,live
513,A3JLE2LJ5I17E2:38F71OA9GV3SGDJ2G2HUY0LMRV6MFQ,1469,058057.jpg,6,16,live
514,A3JLE2LJ5I17E2:38F71OA9GV3SGDJ2G2HUY0LMRV6MFQ,1275,118886.jpg,6,17,live
515,A3JLE2LJ5I17E2:38F71OA9GV3SGDJ2G2HUY0LMRV6MFQ,1394,114506.jpg,6,18,live
516,A3JLE2LJ5I17E2:38F71OA9GV3SGDJ2G2HUY0LMRV6MFQ,1468,035709.jpg,6,19,live
517,A3JLE2LJ5I17E2:38F71OA9GV3SGDJ2G2HUY0LMRV6MFQ,1124,024915.jpg,6,20,live
518,A3JLE2LJ5I17E2:38F71OA9GV3SGDJ2G2HUY0LMRV6MFQ,1454,012976.jpg,6,21,live
519,A3JLE2LJ5I17E2:38F71OA9GV3SGDJ2G2HUY0LMRV6MFQ,1304,159474.jpg,6,22,live
520,A3JLE2LJ5I17E2:38F71OA9GV3SGDJ2G2HUY0LMRV6MFQ,1714,163099.jpg,6,24,live
521,A3JLE2LJ5I17E2:38F71OA9GV3SGDJ2G2HUY0LMRV6MFQ,1364,128683.jpg,6,25,live
522,A3JLE2LJ5I17E2:38F71OA9GV3SGDJ2G2HUY0LMRV6MFQ,1319,033310.jpg,6,26,live
523,A3JLE2LJ5I17E2:38F71OA9GV3SGDJ2G2HUY0LMRV6MFQ,1171,186564.jpg,6,27,live
524,A3JLE2LJ5I17E2:38F71OA9GV3SGDJ2G2HUY0LMRV6MFQ,1723,005221.jpg,6,28,live
525,A3JLE2LJ5I17E2:38F71OA9GV3SGDJ2G2HUY0LMRV6MFQ,1408,003560.jpg,6,29,live
526,A3JLE2LJ5I17E2:38F71OA9GV3SGDJ2G2HUY0LMRV6MFQ,1319,048695.jpg,6,30,live
527,A3JLE2LJ5I17E2:38F71OA9GV3SGDJ2G2HUY0LMRV6MFQ,1364,133078.jpg,6,31,live
528,A3JLE2LJ5I17E2:38F71OA9GV3SGDJ2G2HUY0LMRV6MFQ,4304,122478.jpg,6,32,live
529,A3JLE2LJ5I17E2:38F71OA9GV3SGDJ2G2HUY0LMRV6MFQ,3103,114506.jpg,6,33,live
530,A3JLE2LJ5I17E2:38F71OA9GV3SGDJ2G2HUY0LMRV6MFQ,4609,102692.jpg,7,35,live
531,A3JLE2LJ5I17E2:38F71OA9GV3SGDJ2G2HUY0LMRV6MFQ,2129,108820.jpg,6,36,live
532,A3JLE2LJ5I17E2:38F71OA9GV3SGDJ2G2HUY0LMRV6MFQ,1348,160218.jpg,6,37,live
533,A3JLE2LJ5I17E2:38F71OA9GV3SGDJ2G2HUY0LMRV6MFQ,3942,050840.jpg,7,38,live
534,A3JLE2LJ5I17E2:38F71OA9GV3SGDJ2G2HUY0LMRV6MFQ,1861,133078.jpg,6,39,live
535,A3JLE2LJ5I17E2:38F71OA9GV3SGDJ2G2HUY0LMRV6MFQ,1139,033658.jpg,6,40,live
536,A3JLE2LJ5I17E2:38F71OA9GV3SGDJ2G2HUY0LMRV6MFQ,1019,058369.jpg,6,41,live
537,A3JLE2LJ5I17E2:38F71OA9GV3SGDJ2G2HUY0LMRV6MFQ,4829,182358.jpg,7,42,live
538,A3JLE2LJ5I17E2:38F71OA9GV3SGDJ2G2HUY0LMRV6MFQ,1260,159474.jpg,7,43,live
539,A3JLE2LJ5I17E2:38F71OA9GV3SGDJ2G2HUY0LMRV6MFQ,1184,030503.jpg,7,44,live
540,A3JLE2LJ5I17E2:38F71OA9GV3SGDJ2G2HUY0LMRV6MFQ,1248,003560.jpg,7,46,live
541,A3JLE2LJ5I17E2:38F71OA9GV3SGDJ2G2HUY0LMRV6MFQ,1108,127601.jpg,7,47,live
542,A3JLE2LJ5I17E2:38F71OA9GV3SGDJ2G2HUY0LMRV6MFQ,1048,141241.jpg,7,48,live
543,A3JLE2LJ5I17E2:38F71OA9GV3SGDJ2G2HUY0LMRV6MFQ,1964,171257.jpg,8,49,live
544,A3JLE2LJ5I17E2:38F71OA9GV3SGDJ2G2HUY0LMRV6MFQ,1019,110519.jpg,8,50,live
545,A3JLE2LJ5I17E2:38F71OA9GV3SGDJ2G2HUY0LMRV6MFQ,1079,161851.jpg,8,51,live
546,A3JLE2LJ5I17E2:38F71OA9GV3SGDJ2G2HUY0LMRV6MFQ,1095,002854.jpg,8,52,live
547,A3JLE2LJ5I17E2:38F71OA9GV3SGDJ2G2HUY0LMRV6MFQ,1049,064300.jpg,8,53,live
548,A3JLE2LJ5I17E2:38F71OA9GV3SGDJ2G2HUY0LMRV6MFQ,10085,027687.jpg,8,54,live
549,A3JLE2LJ5I17E2:38F71OA9GV3SGDJ2G2HUY0LMRV6MFQ,1584,163429.jpg,6,55,live
550,A3JLE2LJ5I17E2:38F71OA9GV3SGDJ2G2HUY0LMRV6MFQ,1131,055914.jpg,6,57,live
551,A3JLE2LJ5I17E2:38F71OA9GV3SGDJ2G2HUY0LMRV6MFQ,1184,118886.jpg,6,58,live
552,A3JLE2LJ5I17E2:38F71OA9GV3SGDJ2G2HUY0LMRV6MFQ,1034,197708.jpg,6,59,live
553,A3JLE2LJ5I17E2:38F71OA9GV3SGDJ2G2HUY0LMRV6MFQ,1185,070908.jpg,6,60,live
554,A3JLE2LJ5I17E2:38F71OA9GV3SGDJ2G2HUY0LMRV6MFQ,1003,040400.jpg,6,61,live
555,A3JLE2LJ5I17E2:38F71OA9GV3SGDJ2G2HUY0LMRV6MFQ,3557,016460.jpg,7,62,live
556,A3JLE2LJ5I17E2:38F71OA9GV3SGDJ2G2HUY0LMRV6MFQ,1210,110128.jpg,7,63,live
557,A3JLE2LJ5I17E2:38F71OA9GV3SGDJ2G2HUY0LMRV6MFQ,4095,199097.jpg,8,64,live
558,A3JLE2LJ5I17E2:38F71OA9GV3SGDJ2G2HUY0LMRV6MFQ,1079,136091.jpg,8,65,live
559,A3JLE2LJ5I17E2:38F71OA9GV3SGDJ2G2HUY0LMRV6MFQ,1334,165297.jpg,8,66,live
560,A3JLE2LJ5I17E2:38F71OA9GV3SGDJ2G2HUY0LMRV6MFQ,2421,104427.jpg,8,68,live
561,A3JLE2LJ5I17E2:38F71OA9GV3SGDJ2G2HUY0LMRV6MFQ,1199,171826.jpg,8,69,live
562,A3JLE2LJ5I17E2:38F71OA9GV3SGDJ2G2HUY0LMRV6MFQ,1229,181032.jpg,8,70,live
563,A3JLE2LJ5I17E2:38F71OA9GV3SGDJ2G2HUY0LMRV6MFQ,1154,185318.jpg,8,71,live
564,A3JLE2LJ5I17E2:38F71OA9GV3SGDJ2G2HUY0LMRV6MFQ,5909,199097.jpg,7,72,live
565,A3JLE2LJ5I17E2:38F71OA9GV3SGDJ2G2HUY0LMRV6MFQ,1259,055914.jpg,7,73,live
566,A3JLE2LJ5I17E2:38F71OA9GV3SGDJ2G2HUY0LMRV6MFQ,2684,164055.jpg,7,74,live
567,A3JLE2LJ5I17E2:38F71OA9GV3SGDJ2G2HUY0LMRV6MFQ,1019,060748.jpg,7,75,live
568,A3JLE2LJ5I17E2:38F71OA9GV3SGDJ2G2HUY0LMRV6MFQ,1080,110328.jpg,7,76,live
569,A3JLE2LJ5I17E2:38F71OA9GV3SGDJ2G2HUY0LMRV6MFQ,1245,123983.jpg,7,77,live
570,A3JLE2LJ5I17E2:38F71OA9GV3SGDJ2G2HUY0LMRV6MFQ,1653,182358.jpg,6,79,live
571,A3JLE2LJ5I17E2:38F71OA9GV3SGDJ2G2HUY0LMRV6MFQ,1379,074442.jpg,6,80,live
572,A3JLE2LJ5I17E2:38F71OA9GV3SGDJ2G2HUY0LMRV6MFQ,1064,020874.jpg,6,81,live
573,A3JLE2LJ5I17E2:38F71OA9GV3SGDJ2G2HUY0LMRV6MFQ,1215,033708.jpg,6,82,live
574,A3JLE2LJ5I17E2:38F71OA9GV3SGDJ2G2HUY0LMRV6MFQ,4244,096298.jpg,9,83,live
575,A3JLE2LJ5I17E2:38F71OA9GV3SGDJ2G2HUY0LMRV6MFQ,1274,109934.jpg,9,84,live
576,A3JLE2LJ5I17E2:38F71OA9GV3SGDJ2G2HUY0LMRV6MFQ,1048,030503.jpg,9,85,live
577,A3JLE2LJ5I17E2:38F71OA9GV3SGDJ2G2HUY0LMRV6MFQ,1139,103511.jpg,9,86,live
578,A3JLE2LJ5I17E2:38F71OA9GV3SGDJ2G2HUY0LMRV6MFQ,1064,137186.jpg,9,87,live
579,A3JLE2LJ5I17E2:38F71OA9GV3SGDJ2G2HUY0LMRV6MFQ,1169,152827.jpg,9,88,live
580,A3JLE2LJ5I17E2:38F71OA9GV3SGDJ2G2HUY0LMRV6MFQ,2211,116443.jpg,7,90,live
581,A3JLE2LJ5I17E2:38F71OA9GV3SGDJ2G2HUY0LMRV6MFQ,1424,070908.jpg,7,91,live
582,A3JLE2LJ5I17E2:38F71OA9GV3SGDJ2G2HUY0LMRV6MFQ,1274,135747.jpg,7,92,live
583,A3JLE2LJ5I17E2:38F71OA9GV3SGDJ2G2HUY0LMRV6MFQ,1050,124386.jpg,7,93,live
584,A3JLE2LJ5I17E2:38F71OA9GV3SGDJ2G2HUY0LMRV6MFQ,1005,033708.jpg,7,94,live
585,A3JLE2LJ5I17E2:38F71OA9GV3SGDJ2G2HUY0LMRV6MFQ,4610,078330.jpg,7,95,live
586,A3JLE2LJ5I17E2:38F71OA9GV3SGDJ2G2HUY0LMRV6MFQ,2003,009366.jpg,6,96,live
587,A3JLE2LJ5I17E2:38F71OA9GV3SGDJ2G2HUY0LMRV6MFQ,2084,022657.jpg,7,97,live
588,A3JLE2LJ5I17E2:38F71OA9GV3SGDJ2G2HUY0LMRV6MFQ,1095,078663.jpg,7,98,live
589,A3JLE2LJ5I17E2:38F71OA9GV3SGDJ2G2HUY0LMRV6MFQ,1063,135747.jpg,7,99,live
590,A3JLE2LJ5I17E2:38F71OA9GV3SGDJ2G2HUY0LMRV6MFQ,1042,166652.jpg,7,101,live
591,A3JLE2LJ5I17E2:38F71OA9GV3SGDJ2G2HUY0LMRV6MFQ,1454,186784.jpg,7,102,live
592,A3JLE2LJ5I17E2:38F71OA9GV3SGDJ2G2HUY0LMRV6MFQ,1710,152865.jpg,7,103,live
593,A3JLE2LJ5I17E2:38F71OA9GV3SGDJ2G2HUY0LMRV6MFQ,1724,057478.jpg,7,104,live
594,A3JLE2LJ5I17E2:38F71OA9GV3SGDJ2G2HUY0LMRV6MFQ,4229,020874.jpg,7,105,live
595,A3JLE2LJ5I17E2:38F71OA9GV3SGDJ2G2HUY0LMRV6MFQ,1726,160870.jpg,6,106,live
596,A3JLE2LJ5I17E2:38F71OA9GV3SGDJ2G2HUY0LMRV6MFQ,47789,040498.jpg,8,107,live
597,A3JLE2LJ5I17E2:38F71OA9GV3SGDJ2G2HUY0LMRV6MFQ,2114,163429.jpg,8,108,live
598,A3JLE2LJ5I17E2:38F71OA9GV3SGDJ2G2HUY0LMRV6MFQ,4199,171257.jpg,7,109,live
599,A3JLE2LJ5I17E2:38F71OA9GV3SGDJ2G2HUY0LMRV6MFQ,1064,027687.jpg,7,110,live
600,A3M40SGP17FJJM:3W2LOLRXLDMUTFO8ML480C715ELKRD,6664,005221.jpg,6,2,live
601,A3M40SGP17FJJM:3W2LOLRXLDMUTFO8ML480C715ELKRD,7352,060748.jpg,7,3,live
602,A3M40SGP17FJJM:3W2LOLRXLDMUTFO8ML480C715ELKRD,3021,016460.jpg,5,4,live
603,A3M40SGP17FJJM:3W2LOLRXLDMUTFO8ML480C715ELKRD,4175,058511.jpg,3,5,live
604,A3M40SGP17FJJM:3W2LOLRXLDMUTFO8ML480C715ELKRD,3198,127312.jpg,3,6,live
605,A3M40SGP17FJJM:3W2LOLRXLDMUTFO8ML480C715ELKRD,4447,030503.jpg,6,7,live
606,A3M40SGP17FJJM:3W2LOLRXLDMUTFO8ML480C715ELKRD,3292,074442.jpg,7,8,live
607,A3M40SGP17FJJM:3W2LOLRXLDMUTFO8ML480C715ELKRD,2483,166652.jpg,5,9,live
608,A3M40SGP17FJJM:3W2LOLRXLDMUTFO8ML480C715ELKRD,3710,122478.jpg,2,10,live
609,A3M40SGP17FJJM:3W2LOLRXLDMUTFO8ML480C715ELKRD,3283,135747.jpg,4,11,live
610,A3M40SGP17FJJM:3W2LOLRXLDMUTFO8ML480C715ELKRD,4699,033708.jpg,7,13,live
611,A3M40SGP17FJJM:3W2LOLRXLDMUTFO8ML480C715ELKRD,2934,022657.jpg,8,14,live
612,A3M40SGP17FJJM:3W2LOLRXLDMUTFO8ML480C715ELKRD,3818,020874.jpg,5,15,live
613,A3M40SGP17FJJM:3W2LOLRXLDMUTFO8ML480C715ELKRD,6365,114506.jpg,6,16,live
614,A3M40SGP17FJJM:3W2LOLRXLDMUTFO8ML480C715ELKRD,2914,055914.jpg,3,17,live
615,A3M40SGP17FJJM:3W2LOLRXLDMUTFO8ML480C715ELKRD,3782,050840.jpg,6,18,live
616,A3M40SGP17FJJM:3W2LOLRXLDMUTFO8ML480C715ELKRD,2865,027687.jpg,5,19,live
617,A3M40SGP17FJJM:3W2LOLRXLDMUTFO8ML480C715ELKRD,6099,033310.jpg,6,20,live
618,A3M40SGP17FJJM:3W2LOLRXLDMUTFO8ML480C715ELKRD,2386,058369.jpg,7,21,live
619,A3M40SGP17FJJM:3W2LOLRXLDMUTFO8ML480C715ELKRD,2411,186564.jpg,6,22,live
620,A3M40SGP17FJJM:3W2LOLRXLDMUTFO8ML480C715ELKRD,4201,069096.jpg,3,24,live
621,A3M40SGP17FJJM:3W2LOLRXLDMUTFO8ML480C715ELKRD,3498,057478.jpg,7,25,live
622,A3M40SGP17FJJM:3W2LOLRXLDMUTFO8ML480C715ELKRD,3269,070908.jpg,4,26,live
623,A3M40SGP17FJJM:3W2LOLRXLDMUTFO8ML480C715ELKRD,3372,141241.jpg,7,27,live
624,A3M40SGP17FJJM:3W2LOLRXLDMUTFO8ML480C715ELKRD,4104,163429.jpg,4,28,live
625,A3M40SGP17FJJM:3W2LOLRXLDMUTFO8ML480C715ELKRD,6793,128683.jpg,6,29,live
626,A3M40SGP17FJJM:3W2LOLRXLDMUTFO8ML480C715ELKRD,2877,171257.jpg,9,30,live
627,A3M40SGP17FJJM:3W2LOLRXLDMUTFO8ML480C715ELKRD,3140,136091.jpg,6,31,live
628,A3M40SGP17FJJM:3W2LOLRXLDMUTFO8ML480C715ELKRD,3041,040400.jpg,5,32,live
629,A3M40SGP17FJJM:3W2LOLRXLDMUTFO8ML480C715ELKRD,3774,123983.jpg,3,33,live
630,A3M40SGP17FJJM:3W2LOLRXLDMUTFO8ML480C715ELKRD,3780,088505.jpg,6,35,live
631,A3M40SGP17FJJM:3W2LOLRXLDMUTFO8ML480C715ELKRD,2906,165297.jpg,7,36,live
632,A3M40SGP17FJJM:3W2LOLRXLDMUTFO8ML480C715ELKRD,5192,161851.jpg,7,37,live
633,A3M40SGP17FJJM:3W2LOLRXLDMUTFO8ML480C715ELKRD,5472,178434.jpg,8,38,live
634,A3M40SGP17FJJM:3W2LOLRXLDMUTFO8ML480C715ELKRD,2749,185318.jpg,4,39,live
635,A3M40SGP17FJJM:3W2LOLRXLDMUTFO8ML480C715ELKRD,6811,181032.jpg,4,40,live
636,A3M40SGP17FJJM:3W2LOLRXLDMUTFO8ML480C715ELKRD,3286,035709.jpg,8,41,live
637,A3M40SGP17FJJM:3W2LOLRXLDMUTFO8ML480C715ELKRD,3457,114506.jpg,7,42,live
638,A3M40SGP17FJJM:3W2LOLRXLDMUTFO8ML480C715ELKRD,8122,020874.jpg,4,43,live
639,A3M40SGP17FJJM:3W2LOLRXLDMUTFO8ML480C715ELKRD,4866,055914.jpg,3,44,live
640,A3M40SGP17FJJM:3W2LOLRXLDMUTFO8ML480C715ELKRD,2770,048695.jpg,6,46,live
641,A3M40SGP17FJJM:3W2LOLRXLDMUTFO8ML480C715ELKRD,4306,058057.jpg,5,47,live
642,A3M40SGP17FJJM:3W2LOLRXLDMUTFO8ML480C715ELKRD,2726,130873.jpg,7,48,live
643,A3M40SGP17FJJM:3W2LOLRXLDMUTFO8ML480C715ELKRD,2786,022657.jpg,8,49,live
644,A3M40SGP17FJJM:3W2LOLRXLDMUTFO8ML480C715ELKRD,2599,069096.jpg,3,50,live
645,A3M40SGP17FJJM:3W2LOLRXLDMUTFO8ML480C715ELKRD,4422,078663.jpg,5,51,live
646,A3M40SGP17FJJM:3W2LOLRXLDMUTFO8ML480C715ELKRD,4015,164055.jpg,5,52,live
647,A3M40SGP17FJJM:3W2LOLRXLDMUTFO8ML480C715ELKRD,2686,163099.jpg,6,53,live
648,A3M40SGP17FJJM:3W2LOLRXLDMUTFO8ML480C715ELKRD,3262,127601.jpg,7,54,live
649,A3M40SGP17FJJM:3W2LOLRXLDMUTFO8ML480C715ELKRD,3357,012976.jpg,4,55,live
650,A3M40SGP17FJJM:3W2LOLRXLDMUTFO8ML480C715ELKRD,2561,133078.jpg,2,57,live
651,A3M40SGP17FJJM:3W2LOLRXLDMUTFO8ML480C715ELKRD,3084,027687.jpg,5,58,live
652,A3M40SGP17FJJM:3W2LOLRXLDMUTFO8ML480C715ELKRD,3240,033658.jpg,8,59,live
653,A3M40SGP17FJJM:3W2LOLRXLDMUTFO8ML480C715ELKRD,3691,024915.jpg,1,60,live
654,A3M40SGP17FJJM:3W2LOLRXLDMUTFO8ML480C715ELKRD,3418,030503.jpg,6,61,live
655,A3M40SGP17FJJM:3W2LOLRXLDMUTFO8ML480C715ELKRD,3215,096298.jpg,4,62,live
656,A3M40SGP17FJJM:3W2LOLRXLDMUTFO8ML480C715ELKRD,2282,122478.jpg,3,63,live
657,A3M40SGP17FJJM:3W2LOLRXLDMUTFO8ML480C715ELKRD,6123,104427.jpg,4,64,live
658,A3M40SGP17FJJM:3W2LOLRXLDMUTFO8ML480C715ELKRD,3621,116443.jpg,7,65,live
659,A3M40SGP17FJJM:3W2LOLRXLDMUTFO8ML480C715ELKRD,1873,033708.jpg,7,66,live
660,A3M40SGP17FJJM:3W2LOLRXLDMUTFO8ML480C715ELKRD,2542,003560.jpg,2,68,live
661,A3M40SGP17FJJM:3W2LOLRXLDMUTFO8ML480C715ELKRD,3063,160870.jpg,4,69,live
662,A3M40SGP17FJJM:3W2LOLRXLDMUTFO8ML480C715ELKRD,3510,052930.jpg,3,70,live
663,A3M40SGP17FJJM:3W2LOLRXLDMUTFO8ML480C715ELKRD,3555,102692.jpg,6,71,live
664,A3M40SGP17FJJM:3W2LOLRXLDMUTFO8ML480C715ELKRD,3861,159474.jpg,6,72,live
665,A3M40SGP17FJJM:3W2LOLRXLDMUTFO8ML480C715ELKRD,3046,109934.jpg,3,73,live
666,A3M40SGP17FJJM:3W2LOLRXLDMUTFO8ML480C715ELKRD,4577,123983.jpg,4,74,live
667,A3M40SGP17FJJM:3W2LOLRXLDMUTFO8ML480C715ELKRD,2664,197708.jpg,3,75,live
668,A3M40SGP17FJJM:3W2LOLRXLDMUTFO8ML480C715ELKRD,3123,199097.jpg,6,76,live
669,A3M40SGP17FJJM:3W2LOLRXLDMUTFO8ML480C715ELKRD,2278,064300.jpg,5,77,live
670,A3M40SGP17FJJM:3W2LOLRXLDMUTFO8ML480C715ELKRD,4810,002854.jpg,6,79,live
671,A3M40SGP17FJJM:3W2LOLRXLDMUTFO8ML480C715ELKRD,1895,171257.jpg,9,80,live
672,A3M40SGP17FJJM:3W2LOLRXLDMUTFO8ML480C715ELKRD,4828,189212.jpg,7,81,live
673,A3M40SGP17FJJM:3W2LOLRXLDMUTFO8ML480C715ELKRD,4689,110328.jpg,8,82,live
674,A3M40SGP17FJJM:3W2LOLRXLDMUTFO8ML480C715ELKRD,5447,103511.jpg,5,83,live
675,A3M40SGP17FJJM:3W2LOLRXLDMUTFO8ML480C715ELKRD,3300,009366.jpg,3,84,live
676,A3M40SGP17FJJM:3W2LOLRXLDMUTFO8ML480C715ELKRD,3177,003560.jpg,2,85,live
677,A3M40SGP17FJJM:3W2LOLRXLDMUTFO8ML480C715ELKRD,3467,163429.jpg,7,86,live
678,A3M40SGP17FJJM:3W2LOLRXLDMUTFO8ML480C715ELKRD,4133,108820.jpg,4,87,live
679,A3M40SGP17FJJM:3W2LOLRXLDMUTFO8ML480C715ELKRD,3062,186784.jpg,8,88,live
680,A3M40SGP17FJJM:3W2LOLRXLDMUTFO8ML480C715ELKRD,4104,171826.jpg,3,90,live
681,A3M40SGP17FJJM:3W2LOLRXLDMUTFO8ML480C715ELKRD,2965,133078.jpg,1,91,live
682,A3M40SGP17FJJM:3W2LOLRXLDMUTFO8ML480C715ELKRD,3929,159474.jpg,7,92,live
683,A3M40SGP17FJJM:3W2LOLRXLDMUTFO8ML480C715ELKRD,2547,040498.jpg,6,93,live
684,A3M40SGP17FJJM:3W2LOLRXLDMUTFO8ML480C715ELKRD,3918,118886.jpg,8,94,live
685,A3M40SGP17FJJM:3W2LOLRXLDMUTFO8ML480C715ELKRD,2458,110128.jpg,2,95,live
686,A3M40SGP17FJJM:3W2LOLRXLDMUTFO8ML480C715ELKRD,4409,078330.jpg,5,96,live
687,A3M40SGP17FJJM:3W2LOLRXLDMUTFO8ML480C715ELKRD,2217,182358.jpg,5,97,live
688,A3M40SGP17FJJM:3W2LOLRXLDMUTFO8ML480C715ELKRD,2312,185572.jpg,6,98,live
689,A3M40SGP17FJJM:3W2LOLRXLDMUTFO8ML480C715ELKRD,3957,135747.jpg,4,99,live
690,A3M40SGP17FJJM:3W2LOLRXLDMUTFO8ML480C715ELKRD,4595,182358.jpg,6,101,live
691,A3M40SGP17FJJM:3W2LOLRXLDMUTFO8ML480C715ELKRD,2570,070908.jpg,4,102,live
692,A3M40SGP17FJJM:3W2LOLRXLDMUTFO8ML480C715ELKRD,2060,152865.jpg,6,103,live
693,A3M40SGP17FJJM:3W2LOLRXLDMUTFO8ML480C715ELKRD,3303,152827.jpg,4,104,live
694,A3M40SGP17FJJM:3W2LOLRXLDMUTFO8ML480C715ELKRD,2255,160218.jpg,6,105,live
695,A3M40SGP17FJJM:3W2LOLRXLDMUTFO8ML480C715ELKRD,3157,199097.jpg,7,106,live
696,A3M40SGP17FJJM:3W2LOLRXLDMUTFO8ML480C715ELKRD,3699,110519.jpg,6,107,live
697,A3M40SGP17FJJM:3W2LOLRXLDMUTFO8ML480C715ELKRD,2995,137186.jpg,6,108,live
698,A3M40SGP17FJJM:3W2LOLRXLDMUTFO8ML480C715ELKRD,2255,118886.jpg,8,109,live
699,A3M40SGP17FJJM:3W2LOLRXLDMUTFO8ML480C715ELKRD,2009,124386.jpg,2,110,live
700,A5FZ5GVLXECY1:3TDXMTX3CD1A1100UUGYC11SHNL6IT,22054,152865.jpg,5,2,live
701,A5FZ5GVLXECY1:3TDXMTX3CD1A1100UUGYC11SHNL6IT,3756,118886.jpg,7,3,live
702,A5FZ5GVLXECY1:3TDXMTX3CD1A1100UUGYC11SHNL6IT,8669,003560.jpg,4,4,live
703,A5FZ5GVLXECY1:3TDXMTX3CD1A1100UUGYC11SHNL6IT,3150,127601.jpg,7,5,live
704,A5FZ5GVLXECY1:3TDXMTX3CD1A1100UUGYC11SHNL6IT,3581,159474.jpg,8,6,live
705,A5FZ5GVLXECY1:3TDXMTX3CD1A1100UUGYC11SHNL6IT,3381,102692.jpg,6,7,live
706,A5FZ5GVLXECY1:3TDXMTX3CD1A1100UUGYC11SHNL6IT,1997,033708.jpg,7,8,live
707,A5FZ5GVLXECY1:3TDXMTX3CD1A1100UUGYC11SHNL6IT,4462,133078.jpg,3,9,live
708,A5FZ5GVLXECY1:3TDXMTX3CD1A1100UUGYC11SHNL6IT,4741,163429.jpg,7,10,live
709,A5FZ5GVLXECY1:3TDXMTX3CD1A1100UUGYC11SHNL6IT,4277,163099.jpg,5,11,live
710,A5FZ5GVLXECY1:3TDXMTX3CD1A1100UUGYC11SHNL6IT,7618,033658.jpg,8,13,live
711,A5FZ5GVLXECY1:3TDXMTX3CD1A1100UUGYC11SHNL6IT,3797,159474.jpg,9,14,live
712,A5FZ5GVLXECY1:3TDXMTX3CD1A1100UUGYC11SHNL6IT,2445,033708.jpg,7,15,live
713,A5FZ5GVLXECY1:3TDXMTX3CD1A1100UUGYC11SHNL6IT,4520,058511.jpg,4,16,live
714,A5FZ5GVLXECY1:3TDXMTX3CD1A1100UUGYC11SHNL6IT,5491,040400.jpg,6,17,live
715,A5FZ5GVLXECY1:3TDXMTX3CD1A1100UUGYC11SHNL6IT,4039,124386.jpg,3,18,live
716,A5FZ5GVLXECY1:3TDXMTX3CD1A1100UUGYC11SHNL6IT,4796,160870.jpg,4,19,live
717,A5FZ5GVLXECY1:3TDXMTX3CD1A1100UUGYC11SHNL6IT,5965,024915.jpg,2,20,live
718,A5FZ5GVLXECY1:3TDXMTX3CD1A1100UUGYC11SHNL6IT,4398,050840.jpg,6,21,live
719,A5FZ5GVLXECY1:3TDXMTX3CD1A1100UUGYC11SHNL6IT,5149,035709.jpg,3,22,live
720,A5FZ5GVLXECY1:3TDXMTX3CD1A1100UUGYC11SHNL6IT,4213,133078.jpg,4,24,live
721,A5FZ5GVLXECY1:3TDXMTX3CD1A1100UUGYC11SHNL6IT,6749,022657.jpg,7,25,live
722,A5FZ5GVLXECY1:3TDXMTX3CD1A1100UUGYC11SHNL6IT,2957,116443.jpg,8,26,live
723,A5FZ5GVLXECY1:3TDXMTX3CD1A1100UUGYC11SHNL6IT,3125,078663.jpg,8,27,live
724,A5FZ5GVLXECY1:3TDXMTX3CD1A1100UUGYC11SHNL6IT,2953,055914.jpg,4,28,live
725,A5FZ5GVLXECY1:3TDXMTX3CD1A1100UUGYC11SHNL6IT,3822,164055.jpg,3,29,live
726,A5FZ5GVLXECY1:3TDXMTX3CD1A1100UUGYC11SHNL6IT,3693,060748.jpg,4,30,live
727,A5FZ5GVLXECY1:3TDXMTX3CD1A1100UUGYC11SHNL6IT,4421,009366.jpg,2,31,live
728,A5FZ5GVLXECY1:3TDXMTX3CD1A1100UUGYC11SHNL6IT,6148,152827.jpg,3,32,live
729,A5FZ5GVLXECY1:3TDXMTX3CD1A1100UUGYC11SHNL6IT,10687,199097.jpg,2,33,live
730,A5FZ5GVLXECY1:3TDXMTX3CD1A1100UUGYC11SHNL6IT,3932,064300.jpg,6,35,live
731,A5FZ5GVLXECY1:3TDXMTX3CD1A1100UUGYC11SHNL6IT,2496,110519.jpg,7,36,live
732,A5FZ5GVLXECY1:3TDXMTX3CD1A1100UUGYC11SHNL6IT,2840,027687.jpg,8,37,live
733,A5FZ5GVLXECY1:3TDXMTX3CD1A1100UUGYC11SHNL6IT,2925,020874.jpg,6,38,live
734,A5FZ5GVLXECY1:3TDXMTX3CD1A1100UUGYC11SHNL6IT,2869,108820.jpg,2,39,live
735,A5FZ5GVLXECY1:3TDXMTX3CD1A1100UUGYC11SHNL6IT,6093,166652.jpg,7,40,live
736,A5FZ5GVLXECY1:3TDXMTX3CD1A1100UUGYC11SHNL6IT,3851,012976.jpg,4,41,live
737,A5FZ5GVLXECY1:3TDXMTX3CD1A1100UUGYC11SHNL6IT,3378,185572.jpg,4,42,live
738,A5FZ5GVLXECY1:3TDXMTX3CD1A1100UUGYC11SHNL6IT,2550,003560.jpg,3,43,live
739,A5FZ5GVLXECY1:3TDXMTX3CD1A1100UUGYC11SHNL6IT,2749,137186.jpg,5,44,live
740,A5FZ5GVLXECY1:3TDXMTX3CD1A1100UUGYC11SHNL6IT,3900,123983.jpg,2,46,live
741,A5FZ5GVLXECY1:3TDXMTX3CD1A1100UUGYC11SHNL6IT,2374,161851.jpg,4,47,live
742,A5FZ5GVLXECY1:3TDXMTX3CD1A1100UUGYC11SHNL6IT,3077,199097.jpg,2,48,live
743,A5FZ5GVLXECY1:3TDXMTX3CD1A1100UUGYC11SHNL6IT,3798,109934.jpg,2,49,live
744,A5FZ5GVLXECY1:3TDXMTX3CD1A1100UUGYC11SHNL6IT,2756,123983.jpg,2,50,live
745,A5FZ5GVLXECY1:3TDXMTX3CD1A1100UUGYC11SHNL6IT,2948,186564.jpg,7,51,live
746,A5FZ5GVLXECY1:3TDXMTX3CD1A1100UUGYC11SHNL6IT,3844,122478.jpg,6,52,live
747,A5FZ5GVLXECY1:3TDXMTX3CD1A1100UUGYC11SHNL6IT,3500,016460.jpg,2,53,live
748,A5FZ5GVLXECY1:3TDXMTX3CD1A1100UUGYC11SHNL6IT,4430,165297.jpg,7,54,live
749,A5FZ5GVLXECY1:3TDXMTX3CD1A1100UUGYC11SHNL6IT,2589,189212.jpg,8,55,live
750,A5FZ5GVLXECY1:3TDXMTX3CD1A1100UUGYC11SHNL6IT,3264,118886.jpg,9,57,live
751,A5FZ5GVLXECY1:3TDXMTX3CD1A1100UUGYC11SHNL6IT,3533,141241.jpg,5,58,live
752,A5FZ5GVLXECY1:3TDXMTX3CD1A1100UUGYC11SHNL6IT,3045,055914.jpg,4,59,live
753,A5FZ5GVLXECY1:3TDXMTX3CD1A1100UUGYC11SHNL6IT,2733,069096.jpg,1,60,live
754,A5FZ5GVLXECY1:3TDXMTX3CD1A1100UUGYC11SHNL6IT,3335,048695.jpg,7,61,live
755,A5FZ5GVLXECY1:3TDXMTX3CD1A1100UUGYC11SHNL6IT,2809,127312.jpg,3,62,live
756,A5FZ5GVLXECY1:3TDXMTX3CD1A1100UUGYC11SHNL6IT,3102,122478.jpg,7,63,live
757,A5FZ5GVLXECY1:3TDXMTX3CD1A1100UUGYC11SHNL6IT,2709,163429.jpg,8,64,live
758,A5FZ5GVLXECY1:3TDXMTX3CD1A1100UUGYC11SHNL6IT,3293,135747.jpg,2,65,live
759,A5FZ5GVLXECY1:3TDXMTX3CD1A1100UUGYC11SHNL6IT,3229,058369.jpg,3,66,live
760,A5FZ5GVLXECY1:3TDXMTX3CD1A1100UUGYC11SHNL6IT,3631,178434.jpg,3,68,live
761,A5FZ5GVLXECY1:3TDXMTX3CD1A1100UUGYC11SHNL6IT,3662,088505.jpg,2,69,live
762,A5FZ5GVLXECY1:3TDXMTX3CD1A1100UUGYC11SHNL6IT,2532,069096.jpg,1,70,live
763,A5FZ5GVLXECY1:3TDXMTX3CD1A1100UUGYC11SHNL6IT,3973,104427.jpg,6,71,live
764,A5FZ5GVLXECY1:3TDXMTX3CD1A1100UUGYC11SHNL6IT,2918,020874.jpg,7,72,live
765,A5FZ5GVLXECY1:3TDXMTX3CD1A1100UUGYC11SHNL6IT,2445,130873.jpg,8,73,live
766,A5FZ5GVLXECY1:3TDXMTX3CD1A1100UUGYC11SHNL6IT,2790,005221.jpg,9,74,live
767,A5FZ5GVLXECY1:3TDXMTX3CD1A1100UUGYC11SHNL6IT,3245,040498.jpg,4,75,live
768,A5FZ5GVLXECY1:3TDXMTX3CD1A1100UUGYC11SHNL6IT,2717,135747.jpg,2,76,live
769,A5FZ5GVLXECY1:3TDXMTX3CD1A1100UUGYC11SHNL6IT,2845,058057.jpg,7,77,live
770,A5FZ5GVLXECY1:3TDXMTX3CD1A1100UUGYC11SHNL6IT,3415,114506.jpg,8,79,live
771,A5FZ5GVLXECY1:3TDXMTX3CD1A1100UUGYC11SHNL6IT,2996,052930.jpg,3,80,live
772,A5FZ5GVLXECY1:3TDXMTX3CD1A1100UUGYC11SHNL6IT,3598,181032.jpg,2,81,live
773,A5FZ5GVLXECY1:3TDXMTX3CD1A1100UUGYC11SHNL6IT,3770,171257.jpg,6,82,live
774,A5FZ5GVLXECY1:3TDXMTX3CD1A1100UUGYC11SHNL6IT,4694,136091.jpg,7,83,live
775,A5FZ5GVLXECY1:3TDXMTX3CD1A1100UUGYC11SHNL6IT,2428,027687.jpg,8,84,live
776,A5FZ5GVLXECY1:3TDXMTX3CD1A1100UUGYC11SHNL6IT,2565,070908.jpg,7,85,live
777,A5FZ5GVLXECY1:3TDXMTX3CD1A1100UUGYC11SHNL6IT,2563,171257.jpg,6,86,live
778,A5FZ5GVLXECY1:3TDXMTX3CD1A1100UUGYC11SHNL6IT,2605,030503.jpg,7,87,live
779,A5FZ5GVLXECY1:3TDXMTX3CD1A1100UUGYC11SHNL6IT,3237,186784.jpg,9,88,live
780,A5FZ5GVLXECY1:3TDXMTX3CD1A1100UUGYC11SHNL6IT,2950,182358.jpg,4,90,live
781,A5FZ5GVLXECY1:3TDXMTX3CD1A1100UUGYC11SHNL6IT,2813,096298.jpg,2,91,live
782,A5FZ5GVLXECY1:3TDXMTX3CD1A1100UUGYC11SHNL6IT,3021,114506.jpg,6,92,live
783,A5FZ5GVLXECY1:3TDXMTX3CD1A1100UUGYC11SHNL6IT,2765,022657.jpg,6,93,live
784,A5FZ5GVLXECY1:3TDXMTX3CD1A1100UUGYC11SHNL6IT,3173,182358.jpg,4,94,live
785,A5FZ5GVLXECY1:3TDXMTX3CD1A1100UUGYC11SHNL6IT,2539,070908.jpg,7,95,live
786,A5FZ5GVLXECY1:3TDXMTX3CD1A1100UUGYC11SHNL6IT,3542,160218.jpg,4,96,live
787,A5FZ5GVLXECY1:3TDXMTX3CD1A1100UUGYC11SHNL6IT,4166,002854.jpg,8,97,live
788,A5FZ5GVLXECY1:3TDXMTX3CD1A1100UUGYC11SHNL6IT,3412,185318.jpg,6,98,live
789,A5FZ5GVLXECY1:3TDXMTX3CD1A1100UUGYC11SHNL6IT,2774,110128.jpg,3,99,live
790,A5FZ5GVLXECY1:3TDXMTX3CD1A1100UUGYC11SHNL6IT,2925,074442.jpg,2,101,live
791,A5FZ5GVLXECY1:3TDXMTX3CD1A1100UUGYC11SHNL6IT,3196,110328.jpg,8,102,live
792,A5FZ5GVLXECY1:3TDXMTX3CD1A1100UUGYC11SHNL6IT,4265,197708.jpg,5,103,live
793,A5FZ5GVLXECY1:3TDXMTX3CD1A1100UUGYC11SHNL6IT,2310,078330.jpg,7,104,live
794,A5FZ5GVLXECY1:3TDXMTX3CD1A1100UUGYC11SHNL6IT,3483,128683.jpg,8,105,live
795,A5FZ5GVLXECY1:3TDXMTX3CD1A1100UUGYC11SHNL6IT,3940,033310.jpg,6,106,live
796,A5FZ5GVLXECY1:3TDXMTX3CD1A1100UUGYC11SHNL6IT,3021,030503.jpg,7,107,live
797,A5FZ5GVLXECY1:3TDXMTX3CD1A1100UUGYC11SHNL6IT,2749,171826.jpg,7,108,live
798,A5FZ5GVLXECY1:3TDXMTX3CD1A1100UUGYC11SHNL6IT,4775,057478.jpg,2,109,live
799,A5FZ5GVLXECY1:3TDXMTX3CD1A1100UUGYC11SHNL6IT,2660,103511.jpg,2,110,live
800,AL2J5M8WQIKMI:3Y5140Z9DZNIB7I59QF7I1S9CS8PIF,8980,022657.jpg,6,2,live
801,AL2J5M8WQIKMI:3Y5140Z9DZNIB7I59QF7I1S9CS8PIF,5918,171257.jpg,6,3,live
802,AL2J5M8WQIKMI:3Y5140Z9DZNIB7I59QF7I1S9CS8PIF,6252,160218.jpg,5,4,live
803,AL2J5M8WQIKMI:3Y5140Z9DZNIB7I59QF7I1S9CS8PIF,5275,058057.jpg,4,5,live
804,AL2J5M8WQIKMI:3Y5140Z9DZNIB7I59QF7I1S9CS8PIF,3935,050840.jpg,2,6,live
805,AL2J5M8WQIKMI:3Y5140Z9DZNIB7I59QF7I1S9CS8PIF,5758,102692.jpg,5,7,live
806,AL2J5M8WQIKMI:3Y5140Z9DZNIB7I59QF7I1S9CS8PIF,4578,104427.jpg,4,8,live
807,AL2J5M8WQIKMI:3Y5140Z9DZNIB7I59QF7I1S9CS8PIF,5608,163099.jpg,3,9,live
808,AL2J5M8WQIKMI:3Y5140Z9DZNIB7I59QF7I1S9CS8PIF,4441,152827.jpg,2,10,live
809,AL2J5M8WQIKMI:3Y5140Z9DZNIB7I59QF7I1S9CS8PIF,7534,074442.jpg,7,11,live
810,AL2J5M8WQIKMI:3Y5140Z9DZNIB7I59QF7I1S9CS8PIF,6325,110519.jpg,7,13,live
811,AL2J5M8WQIKMI:3Y5140Z9DZNIB7I59QF7I1S9CS8PIF,3856,197708.jpg,1,14,live
812,AL2J5M8WQIKMI:3Y5140Z9DZNIB7I59QF7I1S9CS8PIF,4978,033658.jpg,2,15,live
813,AL2J5M8WQIKMI:3Y5140Z9DZNIB7I59QF7I1S9CS8PIF,4823,088505.jpg,1,16,live
814,AL2J5M8WQIKMI:3Y5140Z9DZNIB7I59QF7I1S9CS8PIF,3186,070908.jpg,6,17,live
815,AL2J5M8WQIKMI:3Y5140Z9DZNIB7I59QF7I1S9CS8PIF,3881,005221.jpg,3,18,live
816,AL2J5M8WQIKMI:3Y5140Z9DZNIB7I59QF7I1S9CS8PIF,5173,078330.jpg,6,19,live
817,AL2J5M8WQIKMI:3Y5140Z9DZNIB7I59QF7I1S9CS8PIF,3218,078663.jpg,3,20,live
818,AL2J5M8WQIKMI:3Y5140Z9DZNIB7I59QF7I1S9CS8PIF,3750,110128.jpg,1,21,live
819,AL2J5M8WQIKMI:3Y5140Z9DZNIB7I59QF7I1S9CS8PIF,3956,048695.jpg,3,22,live
820,AL2J5M8WQIKMI:3Y5140Z9DZNIB7I59QF7I1S9CS8PIF,5994,135747.jpg,2,24,live
821,AL2J5M8WQIKMI:3Y5140Z9DZNIB7I59QF7I1S9CS8PIF,2694,136091.jpg,6,25,live
822,AL2J5M8WQIKMI:3Y5140Z9DZNIB7I59QF7I1S9CS8PIF,4730,020874.jpg,5,26,live
823,AL2J5M8WQIKMI:3Y5140Z9DZNIB7I59QF7I1S9CS8PIF,3648,127601.jpg,2,27,live
824,AL2J5M8WQIKMI:3Y5140Z9DZNIB7I59QF7I1S9CS8PIF,5191,130873.jpg,7,28,live
825,AL2J5M8WQIKMI:3Y5140Z9DZNIB7I59QF7I1S9CS8PIF,3757,118886.jpg,9,29,live
826,AL2J5M8WQIKMI:3Y5140Z9DZNIB7I59QF7I1S9CS8PIF,3600,030503.jpg,6,30,live
827,AL2J5M8WQIKMI:3Y5140Z9DZNIB7I59QF7I1S9CS8PIF,5084,024915.jpg,1,31,live
828,AL2J5M8WQIKMI:3Y5140Z9DZNIB7I59QF7I1S9CS8PIF,2979,127312.jpg,1,32,live
829,AL2J5M8WQIKMI:3Y5140Z9DZNIB7I59QF7I1S9CS8PIF,5011,182358.jpg,9,33,live
830,AL2J5M8WQIKMI:3Y5140Z9DZNIB7I59QF7I1S9CS8PIF,8765,033310.jpg,4,35,live
831,AL2J5M8WQIKMI:3Y5140Z9DZNIB7I59QF7I1S9CS8PIF,2850,182358.jpg,9,36,live
832,AL2J5M8WQIKMI:3Y5140Z9DZNIB7I59QF7I1S9CS8PIF,3608,055914.jpg,2,37,live
833,AL2J5M8WQIKMI:3Y5140Z9DZNIB7I59QF7I1S9CS8PIF,2589,027687.jpg,4,38,live
834,AL2J5M8WQIKMI:3Y5140Z9DZNIB7I59QF7I1S9CS8PIF,3960,185318.jpg,3,39,live
835,AL2J5M8WQIKMI:3Y5140Z9DZNIB7I59QF7I1S9CS8PIF,6024,159474.jpg,8,40,live
836,AL2J5M8WQIKMI:3Y5140Z9DZNIB7I59QF7I1S9CS8PIF,3466,160870.jpg,2,41,live
837,AL2J5M8WQIKMI:3Y5140Z9DZNIB7I59QF7I1S9CS8PIF,5773,060748.jpg,5,42,live
838,AL2J5M8WQIKMI:3Y5140Z9DZNIB7I59QF7I1S9CS8PIF,5179,178434.jpg,9,43,live
839,AL2J5M8WQIKMI:3Y5140Z9DZNIB7I59QF7I1S9CS8PIF,4865,020874.jpg,4,44,live
840,AL2J5M8WQIKMI:3Y5140Z9DZNIB7I59QF7I1S9CS8PIF,2723,118886.jpg,9,46,live
841,AL2J5M8WQIKMI:3Y5140Z9DZNIB7I59QF7I1S9CS8PIF,4556,181032.jpg,7,47,live
842,AL2J5M8WQIKMI:3Y5140Z9DZNIB7I59QF7I1S9CS8PIF,3228,002854.jpg,3,48,live
843,AL2J5M8WQIKMI:3Y5140Z9DZNIB7I59QF7I1S9CS8PIF,2715,123983.jpg,1,49,live
844,AL2J5M8WQIKMI:3Y5140Z9DZNIB7I59QF7I1S9CS8PIF,4692,186564.jpg,8,50,live
845,AL2J5M8WQIKMI:3Y5140Z9DZNIB7I59QF7I1S9CS8PIF,3394,114506.jpg,6,51,live
846,AL2J5M8WQIKMI:3Y5140Z9DZNIB7I59QF7I1S9CS8PIF,2879,135747.jpg,2,52,live
847,AL2J5M8WQIKMI:3Y5140Z9DZNIB7I59QF7I1S9CS8PIF,3171,199097.jpg,7,53,live
848,AL2J5M8WQIKMI:3Y5140Z9DZNIB7I59QF7I1S9CS8PIF,3566,165297.jpg,5,54,live
849,AL2J5M8WQIKMI:3Y5140Z9DZNIB7I59QF7I1S9CS8PIF,3190,123983.jpg,1,55,live
850,AL2J5M8WQIKMI:3Y5140Z9DZNIB7I59QF7I1S9CS8PIF,3074,033708.jpg,9,57,live
851,AL2J5M8WQIKMI:3Y5140Z9DZNIB7I59QF7I1S9CS8PIF,5382,069096.jpg,3,58,live
852,AL2J5M8WQIKMI:3Y5140Z9DZNIB7I59QF7I1S9CS8PIF,5931,069096.jpg,3,59,live
853,AL2J5M8WQIKMI:3Y5140Z9DZNIB7I59QF7I1S9CS8PIF,3836,122478.jpg,6,60,live
854,AL2J5M8WQIKMI:3Y5140Z9DZNIB7I59QF7I1S9CS8PIF,5755,033708.jpg,9,61,live
855,AL2J5M8WQIKMI:3Y5140Z9DZNIB7I59QF7I1S9CS8PIF,5821,003560.jpg,4,62,live
856,AL2J5M8WQIKMI:3Y5140Z9DZNIB7I59QF7I1S9CS8PIF,3940,070908.jpg,7,63,live
857,AL2J5M8WQIKMI:3Y5140Z9DZNIB7I59QF7I1S9CS8PIF,2408,114506.jpg,6,64,live
858,AL2J5M8WQIKMI:3Y5140Z9DZNIB7I59QF7I1S9CS8PIF,3396,003560.jpg,4,65,live
859,AL2J5M8WQIKMI:3Y5140Z9DZNIB7I59QF7I1S9CS8PIF,4627,108820.jpg,2,66,live
860,AL2J5M8WQIKMI:3Y5140Z9DZNIB7I59QF7I1S9CS8PIF,4553,199097.jpg,8,68,live
861,AL2J5M8WQIKMI:3Y5140Z9DZNIB7I59QF7I1S9CS8PIF,2479,159474.jpg,7,69,live
862,AL2J5M8WQIKMI:3Y5140Z9DZNIB7I59QF7I1S9CS8PIF,2965,058369.jpg,9,70,live
863,AL2J5M8WQIKMI:3Y5140Z9DZNIB7I59QF7I1S9CS8PIF,4097,163429.jpg,8,71,live
864,AL2J5M8WQIKMI:3Y5140Z9DZNIB7I59QF7I1S9CS8PIF,3270,161851.jpg,7,72,live
865,AL2J5M8WQIKMI:3Y5140Z9DZNIB7I59QF7I1S9CS8PIF,3430,016460.jpg,4,73,live
866,AL2J5M8WQIKMI:3Y5140Z9DZNIB7I59QF7I1S9CS8PIF,4659,152865.jpg,5,74,live
867,AL2J5M8WQIKMI:3Y5140Z9DZNIB7I59QF7I1S9CS8PIF,3708,185572.jpg,4,75,live
868,AL2J5M8WQIKMI:3Y5140Z9DZNIB7I59QF7I1S9CS8PIF,3757,163429.jpg,8,76,live
869,AL2J5M8WQIKMI:3Y5140Z9DZNIB7I59QF7I1S9CS8PIF,3895,133078.jpg,1,77,live
870,AL2J5M8WQIKMI:3Y5140Z9DZNIB7I59QF7I1S9CS8PIF,3624,055914.jpg,4,79,live
871,AL2J5M8WQIKMI:3Y5140Z9DZNIB7I59QF7I1S9CS8PIF,6239,058511.jpg,8,80,live
872,AL2J5M8WQIKMI:3Y5140Z9DZNIB7I59QF7I1S9CS8PIF,3050,124386.jpg,2,81,live
873,AL2J5M8WQIKMI:3Y5140Z9DZNIB7I59QF7I1S9CS8PIF,3413,122478.jpg,7,82,live
874,AL2J5M8WQIKMI:3Y5140Z9DZNIB7I59QF7I1S9CS8PIF,3145,166652.jpg,8,83,live
875,AL2J5M8WQIKMI:3Y5140Z9DZNIB7I59QF7I1S9CS8PIF,3775,030503.jpg,5,84,live
876,AL2J5M8WQIKMI:3Y5140Z9DZNIB7I59QF7I1S9CS8PIF,3396,141241.jpg,7,85,live
877,AL2J5M8WQIKMI:3Y5140Z9DZNIB7I59QF7I1S9CS8PIF,3120,110328.jpg,7,86,live
878,AL2J5M8WQIKMI:3Y5140Z9DZNIB7I59QF7I1S9CS8PIF,3991,109934.jpg,4,87,live
879,AL2J5M8WQIKMI:3Y5140Z9DZNIB7I59QF7I1S9CS8PIF,3750,096298.jpg,2,88,live
880,AL2J5M8WQIKMI:3Y5140Z9DZNIB7I59QF7I1S9CS8PIF,4590,040400.jpg,3,90,live
881,AL2J5M8WQIKMI:3Y5140Z9DZNIB7I59QF7I1S9CS8PIF,2784,064300.jpg,9,91,live
882,AL2J5M8WQIKMI:3Y5140Z9DZNIB7I59QF7I1S9CS8PIF,4273,022657.jpg,7,92,live
883,AL2J5M8WQIKMI:3Y5140Z9DZNIB7I59QF7I1S9CS8PIF,4225,171826.jpg,4,93,live
884,AL2J5M8WQIKMI:3Y5140Z9DZNIB7I59QF7I1S9CS8PIF,5802,035709.jpg,8,94,live
885,AL2J5M8WQIKMI:3Y5140Z9DZNIB7I59QF7I1S9CS8PIF,3959,040498.jpg,7,95,live
886,AL2J5M8WQIKMI:3Y5140Z9DZNIB7I59QF7I1S9CS8PIF,2381,133078.jpg,1,96,live
887,AL2J5M8WQIKMI:3Y5140Z9DZNIB7I59QF7I1S9CS8PIF,5577,027687.jpg,4,97,live
888,AL2J5M8WQIKMI:3Y5140Z9DZNIB7I59QF7I1S9CS8PIF,4586,012976.jpg,6,98,live
889,AL2J5M8WQIKMI:3Y5140Z9DZNIB7I59QF7I1S9CS8PIF,2428,171257.jpg,6,99,live
890,AL2J5M8WQIKMI:3Y5140Z9DZNIB7I59QF7I1S9CS8PIF,6051,057478.jpg,7,101,live
891,AL2J5M8WQIKMI:3Y5140Z9DZNIB7I59QF7I1S9CS8PIF,4596,103511.jpg,6,102,live
892,AL2J5M8WQIKMI:3Y5140Z9DZNIB7I59QF7I1S9CS8PIF,4573,186784.jpg,7,103,live
893,AL2J5M8WQIKMI:3Y5140Z9DZNIB7I59QF7I1S9CS8PIF,2891,116443.jpg,8,104,live
894,AL2J5M8WQIKMI:3Y5140Z9DZNIB7I59QF7I1S9CS8PIF,4720,164055.jpg,2,105,live
895,AL2J5M8WQIKMI:3Y5140Z9DZNIB7I59QF7I1S9CS8PIF,3662,128683.jpg,9,106,live
896,AL2J5M8WQIKMI:3Y5140Z9DZNIB7I59QF7I1S9CS8PIF,7770,052930.jpg,4,107,live
897,AL2J5M8WQIKMI:3Y5140Z9DZNIB7I59QF7I1S9CS8PIF,4388,189212.jpg,5,108,live
898,AL2J5M8WQIKMI:3Y5140Z9DZNIB7I59QF7I1S9CS8PIF,2817,137186.jpg,9,109,live
899,AL2J5M8WQIKMI:3Y5140Z9DZNIB7I59QF7I1S9CS8PIF,5018,009366.jpg,3,110,live
900,A3RTU5HR290468:3X66WABAJYPX8R7NL4IXKMCSSJP3GQ,10430,171257.jpg,6,2,live
901,A3RTU5HR290468:3X66WABAJYPX8R7NL4IXKMCSSJP3GQ,9294,040400.jpg,6,3,live
902,A3RTU5HR290468:3X66WABAJYPX8R7NL4IXKMCSSJP3GQ,6468,182358.jpg,6,4,live
903,A3RTU5HR290468:3X66WABAJYPX8R7NL4IXKMCSSJP3GQ,4462,078663.jpg,6,5,live
904,A3RTU5HR290468:3X66WABAJYPX8R7NL4IXKMCSSJP3GQ,6286,122478.jpg,4,6,live
905,A3RTU5HR290468:3X66WABAJYPX8R7NL4IXKMCSSJP3GQ,4637,199097.jpg,4,7,live
906,A3RTU5HR290468:3X66WABAJYPX8R7NL4IXKMCSSJP3GQ,3612,199097.jpg,6,8,live
907,A3RTU5HR290468:3X66WABAJYPX8R7NL4IXKMCSSJP3GQ,3549,052930.jpg,4,9,live
908,A3RTU5HR290468:3X66WABAJYPX8R7NL4IXKMCSSJP3GQ,5085,027687.jpg,5,10,live
909,A3RTU5HR290468:3X66WABAJYPX8R7NL4IXKMCSSJP3GQ,3363,159474.jpg,7,11,live
910,A3RTU5HR290468:3X66WABAJYPX8R7NL4IXKMCSSJP3GQ,6579,102692.jpg,7,13,live
911,A3RTU5HR290468:3X66WABAJYPX8R7NL4IXKMCSSJP3GQ,3373,048695.jpg,8,14,live
912,A3RTU5HR290468:3X66WABAJYPX8R7NL4IXKMCSSJP3GQ,5380,020874.jpg,7,15,live
913,A3RTU5HR290468:3X66WABAJYPX8R7NL4IXKMCSSJP3GQ,4075,128683.jpg,5,16,live
914,A3RTU5HR290468:3X66WABAJYPX8R7NL4IXKMCSSJP3GQ,3676,178434.jpg,6,17,live
915,A3RTU5HR290468:3X66WABAJYPX8R7NL4IXKMCSSJP3GQ,3364,058369.jpg,7,18,live
916,A3RTU5HR290468:3X66WABAJYPX8R7NL4IXKMCSSJP3GQ,3495,163429.jpg,6,19,live
917,A3RTU5HR290468:3X66WABAJYPX8R7NL4IXKMCSSJP3GQ,3308,164055.jpg,8,20,live
918,A3RTU5HR290468:3X66WABAJYPX8R7NL4IXKMCSSJP3GQ,3196,165297.jpg,6,21,live
919,A3RTU5HR290468:3X66WABAJYPX8R7NL4IXKMCSSJP3GQ,2829,152827.jpg,7,22,live
920,A3RTU5HR290468:3X66WABAJYPX8R7NL4IXKMCSSJP3GQ,4121,030503.jpg,7,24,live
921,A3RTU5HR290468:3X66WABAJYPX8R7NL4IXKMCSSJP3GQ,3022,110519.jpg,6,25,live
922,A3RTU5HR290468:3X66WABAJYPX8R7NL4IXKMCSSJP3GQ,2772,135747.jpg,5,26,live
923,A3RTU5HR290468:3X66WABAJYPX8R7NL4IXKMCSSJP3GQ,3572,116443.jpg,6,27,live
924,A3RTU5HR290468:3X66WABAJYPX8R7NL4IXKMCSSJP3GQ,5573,050840.jpg,8,28,live
925,A3RTU5HR290468:3X66WABAJYPX8R7NL4IXKMCSSJP3GQ,3765,064300.jpg,8,29,live
926,A3RTU5HR290468:3X66WABAJYPX8R7NL4IXKMCSSJP3GQ,3972,137186.jpg,7,30,live
927,A3RTU5HR290468:3X66WABAJYPX8R7NL4IXKMCSSJP3GQ,4924,104427.jpg,6,31,live
928,A3RTU5HR290468:3X66WABAJYPX8R7NL4IXKMCSSJP3GQ,4733,003560.jpg,8,32,live
929,A3RTU5HR290468:3X66WABAJYPX8R7NL4IXKMCSSJP3GQ,8167,069096.jpg,4,33,live
930,A3RTU5HR290468:3X66WABAJYPX8R7NL4IXKMCSSJP3GQ,3909,078330.jpg,7,35,live
931,A3RTU5HR290468:3X66WABAJYPX8R7NL4IXKMCSSJP3GQ,3237,197708.jpg,7,36,live
932,A3RTU5HR290468:3X66WABAJYPX8R7NL4IXKMCSSJP3GQ,2829,160870.jpg,8,37,live
933,A3RTU5HR290468:3X66WABAJYPX8R7NL4IXKMCSSJP3GQ,2349,040498.jpg,6,38,live
934,A3RTU5HR290468:3X66WABAJYPX8R7NL4IXKMCSSJP3GQ,6004,123983.jpg,7,39,live
935,A3RTU5HR290468:3X66WABAJYPX8R7NL4IXKMCSSJP3GQ,2796,055914.jpg,5,40,live
936,A3RTU5HR290468:3X66WABAJYPX8R7NL4IXKMCSSJP3GQ,4925,022657.jpg,8,41,live
937,A3RTU5HR290468:3X66WABAJYPX8R7NL4IXKMCSSJP3GQ,3437,110328.jpg,8,42,live
938,A3RTU5HR290468:3X66WABAJYPX8R7NL4IXKMCSSJP3GQ,4156,133078.jpg,4,43,live
939,A3RTU5HR290468:3X66WABAJYPX8R7NL4IXKMCSSJP3GQ,6132,163429.jpg,5,44,live
940,A3RTU5HR290468:3X66WABAJYPX8R7NL4IXKMCSSJP3GQ,4161,171826.jpg,7,46,live
941,A3RTU5HR290468:3X66WABAJYPX8R7NL4IXKMCSSJP3GQ,2438,070908.jpg,8,47,live
942,A3RTU5HR290468:3X66WABAJYPX8R7NL4IXKMCSSJP3GQ,2276,185572.jpg,8,48,live
943,A3RTU5HR290468:3X66WABAJYPX8R7NL4IXKMCSSJP3GQ,3108,186564.jpg,7,49,live
944,A3RTU5HR290468:3X66WABAJYPX8R7NL4IXKMCSSJP3GQ,1860,182358.jpg,6,50,live
945,A3RTU5HR290468:3X66WABAJYPX8R7NL4IXKMCSSJP3GQ,2213,124386.jpg,5,51,live
946,A3RTU5HR290468:3X66WABAJYPX8R7NL4IXKMCSSJP3GQ,2414,166652.jpg,7,52,live
947,A3RTU5HR290468:3X66WABAJYPX8R7NL4IXKMCSSJP3GQ,2181,009366.jpg,8,53,live
948,A3RTU5HR290468:3X66WABAJYPX8R7NL4IXKMCSSJP3GQ,3621,058057.jpg,6,54,live
949,A3RTU5HR290468:3X66WABAJYPX8R7NL4IXKMCSSJP3GQ,2468,114506.jpg,8,55,live
950,A3RTU5HR290468:3X66WABAJYPX8R7NL4IXKMCSSJP3GQ,5400,070908.jpg,8,57,live
951,A3RTU5HR290468:3X66WABAJYPX8R7NL4IXKMCSSJP3GQ,2621,136091.jpg,8,58,live
952,A3RTU5HR290468:3X66WABAJYPX8R7NL4IXKMCSSJP3GQ,4606,035709.jpg,6,59,live
953,A3RTU5HR290468:3X66WABAJYPX8R7NL4IXKMCSSJP3GQ,2348,060748.jpg,5,60,live
954,A3RTU5HR290468:3X66WABAJYPX8R7NL4IXKMCSSJP3GQ,3725,024915.jpg,4,61,live
955,A3RTU5HR290468:3X66WABAJYPX8R7NL4IXKMCSSJP3GQ,2606,141241.jpg,5,62,live
956,A3RTU5HR290468:3X66WABAJYPX8R7NL4IXKMCSSJP3GQ,2341,127601.jpg,6,63,live
957,A3RTU5HR290468:3X66WABAJYPX8R7NL4IXKMCSSJP3GQ,2635,152865.jpg,7,64,live
958,A3RTU5HR290468:3X66WABAJYPX8R7NL4IXKMCSSJP3GQ,2318,189212.jpg,7,65,live
959,A3RTU5HR290468:3X66WABAJYPX8R7NL4IXKMCSSJP3GQ,2101,118886.jpg,8,66,live
960,A3RTU5HR290468:3X66WABAJYPX8R7NL4IXKMCSSJP3GQ,5251,033310.jpg,6,68,live
961,A3RTU5HR290468:3X66WABAJYPX8R7NL4IXKMCSSJP3GQ,3339,002854.jpg,7,69,live
962,A3RTU5HR290468:3X66WABAJYPX8R7NL4IXKMCSSJP3GQ,4956,055914.jpg,6,70,live
963,A3RTU5HR290468:3X66WABAJYPX8R7NL4IXKMCSSJP3GQ,2341,103511.jpg,8,71,live
964,A3RTU5HR290468:3X66WABAJYPX8R7NL4IXKMCSSJP3GQ,2763,110128.jpg,8,72,live
965,A3RTU5HR290468:3X66WABAJYPX8R7NL4IXKMCSSJP3GQ,2523,186784.jpg,5,73,live
966,A3RTU5HR290468:3X66WABAJYPX8R7NL4IXKMCSSJP3GQ,2659,108820.jpg,6,74,live
967,A3RTU5HR290468:3X66WABAJYPX8R7NL4IXKMCSSJP3GQ,2957,123983.jpg,7,75,live
968,A3RTU5HR290468:3X66WABAJYPX8R7NL4IXKMCSSJP3GQ,2935,057478.jpg,6,76,live
969,A3RTU5HR290468:3X66WABAJYPX8R7NL4IXKMCSSJP3GQ,2548,109934.jpg,7,77,live
970,A3RTU5HR290468:3X66WABAJYPX8R7NL4IXKMCSSJP3GQ,3640,130873.jpg,6,79,live
971,A3RTU5HR290468:3X66WABAJYPX8R7NL4IXKMCSSJP3GQ,2372,074442.jpg,7,80,live
972,A3RTU5HR290468:3X66WABAJYPX8R7NL4IXKMCSSJP3GQ,4612,033708.jpg,7,81,live
973,A3RTU5HR290468:3X66WABAJYPX8R7NL4IXKMCSSJP3GQ,3125,027687.jpg,8,82,live
974,A3RTU5HR290468:3X66WABAJYPX8R7NL4IXKMCSSJP3GQ,3109,185318.jpg,5,83,live
975,A3RTU5HR290468:3X66WABAJYPX8R7NL4IXKMCSSJP3GQ,3788,069096.jpg,4,84,live
976,A3RTU5HR290468:3X66WABAJYPX8R7NL4IXKMCSSJP3GQ,3372,133078.jpg,4,85,live
977,A3RTU5HR290468:3X66WABAJYPX8R7NL4IXKMCSSJP3GQ,2676,160218.jpg,4,86,live
978,A3RTU5HR290468:3X66WABAJYPX8R7NL4IXKMCSSJP3GQ,4125,058511.jpg,5,87,live
979,A3RTU5HR290468:3X66WABAJYPX8R7NL4IXKMCSSJP3GQ,3639,122478.jpg,4,88,live
980,A3RTU5HR290468:3X66WABAJYPX8R7NL4IXKMCSSJP3GQ,4186,012976.jpg,6,90,live
981,A3RTU5HR290468:3X66WABAJYPX8R7NL4IXKMCSSJP3GQ,3934,135747.jpg,5,91,live
982,A3RTU5HR290468:3X66WABAJYPX8R7NL4IXKMCSSJP3GQ,2524,171257.jpg,6,92,live
983,A3RTU5HR290468:3X66WABAJYPX8R7NL4IXKMCSSJP3GQ,2350,181032.jpg,5,93,live
984,A3RTU5HR290468:3X66WABAJYPX8R7NL4IXKMCSSJP3GQ,2654,030503.jpg,6,94,live
985,A3RTU5HR290468:3X66WABAJYPX8R7NL4IXKMCSSJP3GQ,2302,163099.jpg,5,95,live
986,A3RTU5HR290468:3X66WABAJYPX8R7NL4IXKMCSSJP3GQ,2291,159474.jpg,7,96,live
987,A3RTU5HR290468:3X66WABAJYPX8R7NL4IXKMCSSJP3GQ,2180,114506.jpg,8,97,live
988,A3RTU5HR290468:3X66WABAJYPX8R7NL4IXKMCSSJP3GQ,3036,016460.jpg,8,98,live
989,A3RTU5HR290468:3X66WABAJYPX8R7NL4IXKMCSSJP3GQ,6230,033658.jpg,8,99,live
990,A3RTU5HR290468:3X66WABAJYPX8R7NL4IXKMCSSJP3GQ,3147,033708.jpg,8,101,live
991,A3RTU5HR290468:3X66WABAJYPX8R7NL4IXKMCSSJP3GQ,3253,003560.jpg,4,102,live
992,A3RTU5HR290468:3X66WABAJYPX8R7NL4IXKMCSSJP3GQ,1892,118886.jpg,5,103,live
993,A3RTU5HR290468:3X66WABAJYPX8R7NL4IXKMCSSJP3GQ,2854,127312.jpg,6,104,live
994,A3RTU5HR290468:3X66WABAJYPX8R7NL4IXKMCSSJP3GQ,2981,020874.jpg,7,105,live
995,A3RTU5HR290468:3X66WABAJYPX8R7NL4IXKMCSSJP3GQ,5355,161851.jpg,8,106,live
996,A3RTU5HR290468:3X66WABAJYPX8R7NL4IXKMCSSJP3GQ,2750,022657.jpg,8,107,live
997,A3RTU5HR290468:3X66WABAJYPX8R7NL4IXKMCSSJP3GQ,2563,088505.jpg,8,108,live
998,A3RTU5HR290468:3X66WABAJYPX8R7NL4IXKMCSSJP3GQ,2579,096298.jpg,8,109,live
999,A3RTU5HR290468:3X66WABAJYPX8R7NL4IXKMCSSJP3GQ,2678,005221.jpg,8,110,live
1000,A25DP39XRZDLQM:3SBEHTYCWPACKLA60DBQVSLLGXFIY6,5179,186564.jpg,5,2,live
1001,A25DP39XRZDLQM:3SBEHTYCWPACKLA60DBQVSLLGXFIY6,4256,069096.jpg,1,3,live
1002,A25DP39XRZDLQM:3SBEHTYCWPACKLA60DBQVSLLGXFIY6,7946,024915.jpg,1,4,live
1003,A25DP39XRZDLQM:3SBEHTYCWPACKLA60DBQVSLLGXFIY6,4237,058511.jpg,1,5,live
1004,A25DP39XRZDLQM:3SBEHTYCWPACKLA60DBQVSLLGXFIY6,4292,064300.jpg,7,6,live
1005,A25DP39XRZDLQM:3SBEHTYCWPACKLA60DBQVSLLGXFIY6,3814,078330.jpg,8,7,live
1006,A25DP39XRZDLQM:3SBEHTYCWPACKLA60DBQVSLLGXFIY6,4428,122478.jpg,3,8,live
1007,A25DP39XRZDLQM:3SBEHTYCWPACKLA60DBQVSLLGXFIY6,4195,133078.jpg,1,9,live
1008,A25DP39XRZDLQM:3SBEHTYCWPACKLA60DBQVSLLGXFIY6,5138,181032.jpg,7,10,live
1009,A25DP39XRZDLQM:3SBEHTYCWPACKLA60DBQVSLLGXFIY6,3852,185318.jpg,6,11,live
1010,A25DP39XRZDLQM:3SBEHTYCWPACKLA60DBQVSLLGXFIY6,7749,060748.jpg,7,13,live
1011,A25DP39XRZDLQM:3SBEHTYCWPACKLA60DBQVSLLGXFIY6,4262,160218.jpg,8,14,live
1012,A25DP39XRZDLQM:3SBEHTYCWPACKLA60DBQVSLLGXFIY6,4822,164055.jpg,4,15,live
1013,A25DP39XRZDLQM:3SBEHTYCWPACKLA60DBQVSLLGXFIY6,3767,058369.jpg,7,16,live
1014,A25DP39XRZDLQM:3SBEHTYCWPACKLA60DBQVSLLGXFIY6,5144,088505.jpg,4,17,live
1015,A25DP39XRZDLQM:3SBEHTYCWPACKLA60DBQVSLLGXFIY6,3244,171826.jpg,5,18,live
1016,A25DP39XRZDLQM:3SBEHTYCWPACKLA60DBQVSLLGXFIY6,4442,123983.jpg,2,19,live
1017,A25DP39XRZDLQM:3SBEHTYCWPACKLA60DBQVSLLGXFIY6,4196,022657.jpg,8,20,live
1018,A25DP39XRZDLQM:3SBEHTYCWPACKLA60DBQVSLLGXFIY6,3762,128683.jpg,7,21,live
1019,A25DP39XRZDLQM:3SBEHTYCWPACKLA60DBQVSLLGXFIY6,5100,135747.jpg,7,22,live
1020,A25DP39XRZDLQM:3SBEHTYCWPACKLA60DBQVSLLGXFIY6,5014,030503.jpg,8,24,live
1021,A25DP39XRZDLQM:3SBEHTYCWPACKLA60DBQVSLLGXFIY6,4158,199097.jpg,7,25,live
1022,A25DP39XRZDLQM:3SBEHTYCWPACKLA60DBQVSLLGXFIY6,4340,033658.jpg,3,26,live
1023,A25DP39XRZDLQM:3SBEHTYCWPACKLA60DBQVSLLGXFIY6,4997,003560.jpg,5,27,live
1024,A25DP39XRZDLQM:3SBEHTYCWPACKLA60DBQVSLLGXFIY6,3912,123983.jpg,3,28,live
1025,A25DP39XRZDLQM:3SBEHTYCWPACKLA60DBQVSLLGXFIY6,5178,022657.jpg,7,29,live
1026,A25DP39XRZDLQM:3SBEHTYCWPACKLA60DBQVSLLGXFIY6,4592,005221.jpg,6,30,live
1027,A25DP39XRZDLQM:3SBEHTYCWPACKLA60DBQVSLLGXFIY6,34258,136091.jpg,9,31,live
1028,A25DP39XRZDLQM:3SBEHTYCWPACKLA60DBQVSLLGXFIY6,3796,137186.jpg,7,32,live
1029,A25DP39XRZDLQM:3SBEHTYCWPACKLA60DBQVSLLGXFIY6,3922,159474.jpg,4,33,live
1030,A25DP39XRZDLQM:3SBEHTYCWPACKLA60DBQVSLLGXFIY6,4894,130873.jpg,6,35,live
1031,A25DP39XRZDLQM:3SBEHTYCWPACKLA60DBQVSLLGXFIY6,5690,152865.jpg,5,36,live
1032,A25DP39XRZDLQM:3SBEHTYCWPACKLA60DBQVSLLGXFIY6,3897,009366.jpg,4,37,live
1033,A25DP39XRZDLQM:3SBEHTYCWPACKLA60DBQVSLLGXFIY6,3583,160870.jpg,2,38,live
1034,A25DP39XRZDLQM:3SBEHTYCWPACKLA60DBQVSLLGXFIY6,4824,185572.jpg,6,39,live
1035,A25DP39XRZDLQM:3SBEHTYCWPACKLA60DBQVSLLGXFIY6,3995,178434.jpg,6,40,live
1036,A25DP39XRZDLQM:3SBEHTYCWPACKLA60DBQVSLLGXFIY6,4058,166652.jpg,8,41,live
1037,A25DP39XRZDLQM:3SBEHTYCWPACKLA60DBQVSLLGXFIY6,3331,102692.jpg,7,42,live
1038,A25DP39XRZDLQM:3SBEHTYCWPACKLA60DBQVSLLGXFIY6,3583,189212.jpg,5,43,live
1039,A25DP39XRZDLQM:3SBEHTYCWPACKLA60DBQVSLLGXFIY6,4273,033310.jpg,7,44,live
1040,A25DP39XRZDLQM:3SBEHTYCWPACKLA60DBQVSLLGXFIY6,4832,163099.jpg,3,46,live
1041,A25DP39XRZDLQM:3SBEHTYCWPACKLA60DBQVSLLGXFIY6,4295,078663.jpg,4,47,live
1042,A25DP39XRZDLQM:3SBEHTYCWPACKLA60DBQVSLLGXFIY6,3859,070908.jpg,7,48,live
1043,A25DP39XRZDLQM:3SBEHTYCWPACKLA60DBQVSLLGXFIY6,3899,055914.jpg,7,49,live
1044,A25DP39XRZDLQM:3SBEHTYCWPACKLA60DBQVSLLGXFIY6,3907,165297.jpg,8,50,live
1045,A25DP39XRZDLQM:3SBEHTYCWPACKLA60DBQVSLLGXFIY6,3828,040400.jpg,7,51,live
1046,A25DP39XRZDLQM:3SBEHTYCWPACKLA60DBQVSLLGXFIY6,3016,030503.jpg,6,52,live
1047,A25DP39XRZDLQM:3SBEHTYCWPACKLA60DBQVSLLGXFIY6,3917,114506.jpg,2,53,live
1048,A25DP39XRZDLQM:3SBEHTYCWPACKLA60DBQVSLLGXFIY6,3373,152827.jpg,4,54,live
1049,A25DP39XRZDLQM:3SBEHTYCWPACKLA60DBQVSLLGXFIY6,3619,161851.jpg,5,55,live
1050,A25DP39XRZDLQM:3SBEHTYCWPACKLA60DBQVSLLGXFIY6,4865,057478.jpg,7,57,live
1051,A25DP39XRZDLQM:3SBEHTYCWPACKLA60DBQVSLLGXFIY6,4741,122478.jpg,6,58,live
1052,A25DP39XRZDLQM:3SBEHTYCWPACKLA60DBQVSLLGXFIY6,4095,110328.jpg,7,59,live
1053,A25DP39XRZDLQM:3SBEHTYCWPACKLA60DBQVSLLGXFIY6,4233,103511.jpg,8,60,live
1054,A25DP39XRZDLQM:3SBEHTYCWPACKLA60DBQVSLLGXFIY6,4992,118886.jpg,6,61,live
1055,A25DP39XRZDLQM:3SBEHTYCWPACKLA60DBQVSLLGXFIY6,4297,127312.jpg,7,62,live
1056,A25DP39XRZDLQM:3SBEHTYCWPACKLA60DBQVSLLGXFIY6,3590,003560.jpg,6,63,live
1057,A25DP39XRZDLQM:3SBEHTYCWPACKLA60DBQVSLLGXFIY6,3362,110519.jpg,7,64,live
1058,A25DP39XRZDLQM:3SBEHTYCWPACKLA60DBQVSLLGXFIY6,3440,109934.jpg,4,65,live
1059,A25DP39XRZDLQM:3SBEHTYCWPACKLA60DBQVSLLGXFIY6,4308,040498.jpg,6,66,live
1060,A25DP39XRZDLQM:3SBEHTYCWPACKLA60DBQVSLLGXFIY6,4505,002854.jpg,8,68,live
1061,A25DP39XRZDLQM:3SBEHTYCWPACKLA60DBQVSLLGXFIY6,3693,069096.jpg,2,69,live
1062,A25DP39XRZDLQM:3SBEHTYCWPACKLA60DBQVSLLGXFIY6,4190,027687.jpg,6,70,live
1063,A25DP39XRZDLQM:3SBEHTYCWPACKLA60DBQVSLLGXFIY6,5423,197708.jpg,2,71,live
1064,A25DP39XRZDLQM:3SBEHTYCWPACKLA60DBQVSLLGXFIY6,5494,020874.jpg,5,72,live
1065,A25DP39XRZDLQM:3SBEHTYCWPACKLA60DBQVSLLGXFIY6,3528,048695.jpg,6,73,live
1066,A25DP39XRZDLQM:3SBEHTYCWPACKLA60DBQVSLLGXFIY6,4561,020874.jpg,5,74,live
1067,A25DP39XRZDLQM:3SBEHTYCWPACKLA60DBQVSLLGXFIY6,4153,116443.jpg,8,75,live
1068,A25DP39XRZDLQM:3SBEHTYCWPACKLA60DBQVSLLGXFIY6,3811,108820.jpg,5,76,live
1069,A25DP39XRZDLQM:3SBEHTYCWPACKLA60DBQVSLLGXFIY6,3685,135747.jpg,6,77,live
1070,A25DP39XRZDLQM:3SBEHTYCWPACKLA60DBQVSLLGXFIY6,3583,186784.jpg,4,79,live
1071,A25DP39XRZDLQM:3SBEHTYCWPACKLA60DBQVSLLGXFIY6,3088,114506.jpg,5,80,live
1072,A25DP39XRZDLQM:3SBEHTYCWPACKLA60DBQVSLLGXFIY6,3749,035709.jpg,3,81,live
1073,A25DP39XRZDLQM:3SBEHTYCWPACKLA60DBQVSLLGXFIY6,3763,159474.jpg,6,82,live
1074,A25DP39XRZDLQM:3SBEHTYCWPACKLA60DBQVSLLGXFIY6,4229,182358.jpg,7,83,live
1075,A25DP39XRZDLQM:3SBEHTYCWPACKLA60DBQVSLLGXFIY6,4707,182358.jpg,7,84,live
1076,A25DP39XRZDLQM:3SBEHTYCWPACKLA60DBQVSLLGXFIY6,4807,033708.jpg,8,85,live
1077,A25DP39XRZDLQM:3SBEHTYCWPACKLA60DBQVSLLGXFIY6,4129,141241.jpg,6,86,live
1078,A25DP39XRZDLQM:3SBEHTYCWPACKLA60DBQVSLLGXFIY6,5237,171257.jpg,7,87,live
1079,A25DP39XRZDLQM:3SBEHTYCWPACKLA60DBQVSLLGXFIY6,3862,096298.jpg,2,88,live
1080,A25DP39XRZDLQM:3SBEHTYCWPACKLA60DBQVSLLGXFIY6,5033,052930.jpg,1,90,live
1081,A25DP39XRZDLQM:3SBEHTYCWPACKLA60DBQVSLLGXFIY6,3396,012976.jpg,4,91,live
1082,A25DP39XRZDLQM:3SBEHTYCWPACKLA60DBQVSLLGXFIY6,4162,050840.jpg,7,92,live
1083,A25DP39XRZDLQM:3SBEHTYCWPACKLA60DBQVSLLGXFIY6,4403,133078.jpg,1,93,live
1084,A25DP39XRZDLQM:3SBEHTYCWPACKLA60DBQVSLLGXFIY6,4746,033708.jpg,7,94,live
1085,A25DP39XRZDLQM:3SBEHTYCWPACKLA60DBQVSLLGXFIY6,3639,163429.jpg,7,95,live
1086,A25DP39XRZDLQM:3SBEHTYCWPACKLA60DBQVSLLGXFIY6,6879,110128.jpg,9,96,live
1087,A25DP39XRZDLQM:3SBEHTYCWPACKLA60DBQVSLLGXFIY6,3953,016460.jpg,8,97,live
1088,A25DP39XRZDLQM:3SBEHTYCWPACKLA60DBQVSLLGXFIY6,4217,070908.jpg,6,98,live
1089,A25DP39XRZDLQM:3SBEHTYCWPACKLA60DBQVSLLGXFIY6,3518,199097.jpg,6,99,live
1090,A25DP39XRZDLQM:3SBEHTYCWPACKLA60DBQVSLLGXFIY6,4998,027687.jpg,7,101,live
1091,A25DP39XRZDLQM:3SBEHTYCWPACKLA60DBQVSLLGXFIY6,3513,104427.jpg,7,102,live
1092,A25DP39XRZDLQM:3SBEHTYCWPACKLA60DBQVSLLGXFIY6,3166,163429.jpg,6,103,live
1093,A25DP39XRZDLQM:3SBEHTYCWPACKLA60DBQVSLLGXFIY6,4405,127601.jpg,5,104,live
1094,A25DP39XRZDLQM:3SBEHTYCWPACKLA60DBQVSLLGXFIY6,3205,074442.jpg,5,105,live
1095,A25DP39XRZDLQM:3SBEHTYCWPACKLA60DBQVSLLGXFIY6,3861,124386.jpg,1,106,live
1096,A25DP39XRZDLQM:3SBEHTYCWPACKLA60DBQVSLLGXFIY6,3576,118886.jpg,3,107,live
1097,A25DP39XRZDLQM:3SBEHTYCWPACKLA60DBQVSLLGXFIY6,4025,055914.jpg,4,108,live
1098,A25DP39XRZDLQM:3SBEHTYCWPACKLA60DBQVSLLGXFIY6,4860,171257.jpg,6,109,live
1099,A25DP39XRZDLQM:3SBEHTYCWPACKLA60DBQVSLLGXFIY6,4067,058057.jpg,8,110,live
1100,A96CZ20YAZKZ8:3AAPLD8UCEOG740SKP66NZSR1IEHTJ,9035,064300.jpg,6,2,live
1101,A96CZ20YAZKZ8:3AAPLD8UCEOG740SKP66NZSR1IEHTJ,4549,104427.jpg,7,3,live
1102,A96CZ20YAZKZ8:3AAPLD8UCEOG740SKP66NZSR1IEHTJ,4304,118886.jpg,7,4,live
1103,A96CZ20YAZKZ8:3AAPLD8UCEOG740SKP66NZSR1IEHTJ,6026,058057.jpg,7,5,live
1104,A96CZ20YAZKZ8:3AAPLD8UCEOG740SKP66NZSR1IEHTJ,4959,020874.jpg,5,6,live
1105,A96CZ20YAZKZ8:3AAPLD8UCEOG740SKP66NZSR1IEHTJ,3341,060748.jpg,6,7,live
1106,A96CZ20YAZKZ8:3AAPLD8UCEOG740SKP66NZSR1IEHTJ,3560,130873.jpg,8,8,live
1107,A96CZ20YAZKZ8:3AAPLD8UCEOG740SKP66NZSR1IEHTJ,3534,160870.jpg,6,9,live
1108,A96CZ20YAZKZ8:3AAPLD8UCEOG740SKP66NZSR1IEHTJ,3170,052930.jpg,5,10,live
1109,A96CZ20YAZKZ8:3AAPLD8UCEOG740SKP66NZSR1IEHTJ,5302,055914.jpg,4,11,live
1110,A96CZ20YAZKZ8:3AAPLD8UCEOG740SKP66NZSR1IEHTJ,3654,159474.jpg,6,13,live
1111,A96CZ20YAZKZ8:3AAPLD8UCEOG740SKP66NZSR1IEHTJ,4902,027687.jpg,6,14,live
1112,A96CZ20YAZKZ8:3AAPLD8UCEOG740SKP66NZSR1IEHTJ,3645,116443.jpg,5,15,live
1113,A96CZ20YAZKZ8:3AAPLD8UCEOG740SKP66NZSR1IEHTJ,2776,161851.jpg,3,16,live
1114,A96CZ20YAZKZ8:3AAPLD8UCEOG740SKP66NZSR1IEHTJ,2675,109934.jpg,2,17,live
1115,A96CZ20YAZKZ8:3AAPLD8UCEOG740SKP66NZSR1IEHTJ,3210,141241.jpg,4,18,live
1116,A96CZ20YAZKZ8:3AAPLD8UCEOG740SKP66NZSR1IEHTJ,3283,102692.jpg,6,19,live
1117,A96CZ20YAZKZ8:3AAPLD8UCEOG740SKP66NZSR1IEHTJ,4161,033310.jpg,8,20,live
1118,A96CZ20YAZKZ8:3AAPLD8UCEOG740SKP66NZSR1IEHTJ,3373,003560.jpg,2,21,live
1119,A96CZ20YAZKZ8:3AAPLD8UCEOG740SKP66NZSR1IEHTJ,4875,110519.jpg,7,22,live
1120,A96CZ20YAZKZ8:3AAPLD8UCEOG740SKP66NZSR1IEHTJ,2672,118886.jpg,6,24,live
1121,A96CZ20YAZKZ8:3AAPLD8UCEOG740SKP66NZSR1IEHTJ,3357,182358.jpg,4,25,live
1122,A96CZ20YAZKZ8:3AAPLD8UCEOG740SKP66NZSR1IEHTJ,2896,133078.jpg,3,26,live
1123,A96CZ20YAZKZ8:3AAPLD8UCEOG740SKP66NZSR1IEHTJ,3384,103511.jpg,5,27,live
1124,A96CZ20YAZKZ8:3AAPLD8UCEOG740SKP66NZSR1IEHTJ,3503,185318.jpg,6,28,live
1125,A96CZ20YAZKZ8:3AAPLD8UCEOG740SKP66NZSR1IEHTJ,2746,178434.jpg,4,29,live
1126,A96CZ20YAZKZ8:3AAPLD8UCEOG740SKP66NZSR1IEHTJ,4943,164055.jpg,1,30,live
1127,A96CZ20YAZKZ8:3AAPLD8UCEOG740SKP66NZSR1IEHTJ,3982,199097.jpg,2,31,live
1128,A96CZ20YAZKZ8:3AAPLD8UCEOG740SKP66NZSR1IEHTJ,3325,136091.jpg,5,32,live
1129,A96CZ20YAZKZ8:3AAPLD8UCEOG740SKP66NZSR1IEHTJ,4342,020874.jpg,6,33,live
1130,A96CZ20YAZKZ8:3AAPLD8UCEOG740SKP66NZSR1IEHTJ,3327,069096.jpg,2,35,live
1131,A96CZ20YAZKZ8:3AAPLD8UCEOG740SKP66NZSR1IEHTJ,2706,171826.jpg,6,36,live
1132,A96CZ20YAZKZ8:3AAPLD8UCEOG740SKP66NZSR1IEHTJ,2715,030503.jpg,5,37,live
1133,A96CZ20YAZKZ8:3AAPLD8UCEOG740SKP66NZSR1IEHTJ,3804,137186.jpg,4,38,live
1134,A96CZ20YAZKZ8:3AAPLD8UCEOG740SKP66NZSR1IEHTJ,3072,110328.jpg,7,39,live
1135,A96CZ20YAZKZ8:3AAPLD8UCEOG740SKP66NZSR1IEHTJ,3363,152865.jpg,3,40,live
1136,A96CZ20YAZKZ8:3AAPLD8UCEOG740SKP66NZSR1IEHTJ,3980,199097.jpg,4,41,live
1137,A96CZ20YAZKZ8:3AAPLD8UCEOG740SKP66NZSR1IEHTJ,3734,040498.jpg,6,42,live
1138,A96CZ20YAZKZ8:3AAPLD8UCEOG740SKP66NZSR1IEHTJ,2862,123983.jpg,2,43,live
1139,A96CZ20YAZKZ8:3AAPLD8UCEOG740SKP66NZSR1IEHTJ,2677,189212.jpg,3,44,live
1140,A96CZ20YAZKZ8:3AAPLD8UCEOG740SKP66NZSR1IEHTJ,4844,057478.jpg,8,46,live
1141,A96CZ20YAZKZ8:3AAPLD8UCEOG740SKP66NZSR1IEHTJ,3285,110128.jpg,5,47,live
1142,A96CZ20YAZKZ8:3AAPLD8UCEOG740SKP66NZSR1IEHTJ,3622,058511.jpg,7,48,live
1143,A96CZ20YAZKZ8:3AAPLD8UCEOG740SKP66NZSR1IEHTJ,3792,016460.jpg,6,49,live
1144,A96CZ20YAZKZ8:3AAPLD8UCEOG740SKP66NZSR1IEHTJ,2497,122478.jpg,5,50,live
1145,A96CZ20YAZKZ8:3AAPLD8UCEOG740SKP66NZSR1IEHTJ,4255,033708.jpg,4,51,live
1146,A96CZ20YAZKZ8:3AAPLD8UCEOG740SKP66NZSR1IEHTJ,4921,181032.jpg,3,52,live
1147,A96CZ20YAZKZ8:3AAPLD8UCEOG740SKP66NZSR1IEHTJ,4777,078330.jpg,3,53,live
1148,A96CZ20YAZKZ8:3AAPLD8UCEOG740SKP66NZSR1IEHTJ,2745,024915.jpg,2,54,live
1149,A96CZ20YAZKZ8:3AAPLD8UCEOG740SKP66NZSR1IEHTJ,2786,163099.jpg,3,55,live
1150,A96CZ20YAZKZ8:3AAPLD8UCEOG740SKP66NZSR1IEHTJ,2914,165297.jpg,8,57,live
1151,A96CZ20YAZKZ8:3AAPLD8UCEOG740SKP66NZSR1IEHTJ,2671,108820.jpg,5,58,live
1152,A96CZ20YAZKZ8:3AAPLD8UCEOG740SKP66NZSR1IEHTJ,2738,159474.jpg,6,59,live
1153,A96CZ20YAZKZ8:3AAPLD8UCEOG740SKP66NZSR1IEHTJ,3706,012976.jpg,4,60,live
1154,A96CZ20YAZKZ8:3AAPLD8UCEOG740SKP66NZSR1IEHTJ,2856,009366.jpg,6,61,live
1155,A96CZ20YAZKZ8:3AAPLD8UCEOG740SKP66NZSR1IEHTJ,2854,171257.jpg,8,62,live
1156,A96CZ20YAZKZ8:3AAPLD8UCEOG740SKP66NZSR1IEHTJ,3137,124386.jpg,3,63,live
1157,A96CZ20YAZKZ8:3AAPLD8UCEOG740SKP66NZSR1IEHTJ,2614,135747.jpg,4,64,live
1158,A96CZ20YAZKZ8:3AAPLD8UCEOG740SKP66NZSR1IEHTJ,2661,127601.jpg,7,65,live
1159,A96CZ20YAZKZ8:3AAPLD8UCEOG740SKP66NZSR1IEHTJ,2583,002854.jpg,6,66,live
1160,A96CZ20YAZKZ8:3AAPLD8UCEOG740SKP66NZSR1IEHTJ,4316,033658.jpg,6,68,live
1161,A96CZ20YAZKZ8:3AAPLD8UCEOG740SKP66NZSR1IEHTJ,3528,152827.jpg,2,69,live
1162,A96CZ20YAZKZ8:3AAPLD8UCEOG740SKP66NZSR1IEHTJ,4003,185572.jpg,3,70,live
1163,A96CZ20YAZKZ8:3AAPLD8UCEOG740SKP66NZSR1IEHTJ,2849,186564.jpg,4,71,live
1164,A96CZ20YAZKZ8:3AAPLD8UCEOG740SKP66NZSR1IEHTJ,2715,074442.jpg,5,72,live
1165,A96CZ20YAZKZ8:3AAPLD8UCEOG740SKP66NZSR1IEHTJ,5115,003560.jpg,2,73,live
1166,A96CZ20YAZKZ8:3AAPLD8UCEOG740SKP66NZSR1IEHTJ,3612,088505.jpg,3,74,live
1167,A96CZ20YAZKZ8:3AAPLD8UCEOG740SKP66NZSR1IEHTJ,3060,127312.jpg,3,75,live
1168,A96CZ20YAZKZ8:3AAPLD8UCEOG740SKP66NZSR1IEHTJ,3113,022657.jpg,6,76,live
1169,A96CZ20YAZKZ8:3AAPLD8UCEOG740SKP66NZSR1IEHTJ,4161,058369.jpg,5,77,live
1170,A96CZ20YAZKZ8:3AAPLD8UCEOG740SKP66NZSR1IEHTJ,3660,114506.jpg,6,79,live
1171,A96CZ20YAZKZ8:3AAPLD8UCEOG740SKP66NZSR1IEHTJ,5887,114506.jpg,6,80,live
1172,A96CZ20YAZKZ8:3AAPLD8UCEOG740SKP66NZSR1IEHTJ,3169,166652.jpg,4,81,live
1173,A96CZ20YAZKZ8:3AAPLD8UCEOG740SKP66NZSR1IEHTJ,2303,030503.jpg,5,82,live
1174,A96CZ20YAZKZ8:3AAPLD8UCEOG740SKP66NZSR1IEHTJ,2801,197708.jpg,6,83,live
1175,A96CZ20YAZKZ8:3AAPLD8UCEOG740SKP66NZSR1IEHTJ,2669,005221.jpg,6,84,live
1176,A96CZ20YAZKZ8:3AAPLD8UCEOG740SKP66NZSR1IEHTJ,5286,050840.jpg,7,85,live
1177,A96CZ20YAZKZ8:3AAPLD8UCEOG740SKP66NZSR1IEHTJ,5950,171257.jpg,8,86,live
1178,A96CZ20YAZKZ8:3AAPLD8UCEOG740SKP66NZSR1IEHTJ,3084,070908.jpg,6,87,live
1179,A96CZ20YAZKZ8:3AAPLD8UCEOG740SKP66NZSR1IEHTJ,2941,027687.jpg,6,88,live
1180,A96CZ20YAZKZ8:3AAPLD8UCEOG740SKP66NZSR1IEHTJ,2368,055914.jpg,4,90,live
1181,A96CZ20YAZKZ8:3AAPLD8UCEOG740SKP66NZSR1IEHTJ,5145,069096.jpg,2,91,live
1182,A96CZ20YAZKZ8:3AAPLD8UCEOG740SKP66NZSR1IEHTJ,2599,022657.jpg,5,92,live
1183,A96CZ20YAZKZ8:3AAPLD8UCEOG740SKP66NZSR1IEHTJ,2763,186784.jpg,7,93,live
1184,A96CZ20YAZKZ8:3AAPLD8UCEOG740SKP66NZSR1IEHTJ,2628,123983.jpg,5,94,live
1185,A96CZ20YAZKZ8:3AAPLD8UCEOG740SKP66NZSR1IEHTJ,4278,035709.jpg,7,95,live
1186,A96CZ20YAZKZ8:3AAPLD8UCEOG740SKP66NZSR1IEHTJ,3388,033708.jpg,6,96,live
1187,A96CZ20YAZKZ8:3AAPLD8UCEOG740SKP66NZSR1IEHTJ,3143,163429.jpg,5,97,live
1188,A96CZ20YAZKZ8:3AAPLD8UCEOG740SKP66NZSR1IEHTJ,3984,070908.jpg,6,98,live
1189,A96CZ20YAZKZ8:3AAPLD8UCEOG740SKP66NZSR1IEHTJ,3624,040400.jpg,3,99,live
1190,A96CZ20YAZKZ8:3AAPLD8UCEOG740SKP66NZSR1IEHTJ,4628,096298.jpg,2,101,live
1191,A96CZ20YAZKZ8:3AAPLD8UCEOG740SKP66NZSR1IEHTJ,4691,160218.jpg,5,102,live
1192,A96CZ20YAZKZ8:3AAPLD8UCEOG740SKP66NZSR1IEHTJ,2341,135747.jpg,4,103,live
1193,A96CZ20YAZKZ8:3AAPLD8UCEOG740SKP66NZSR1IEHTJ,6293,128683.jpg,6,104,live
1194,A96CZ20YAZKZ8:3AAPLD8UCEOG740SKP66NZSR1IEHTJ,2794,078663.jpg,5,105,live
1195,A96CZ20YAZKZ8:3AAPLD8UCEOG740SKP66NZSR1IEHTJ,3489,048695.jpg,6,106,live
1196,A96CZ20YAZKZ8:3AAPLD8UCEOG740SKP66NZSR1IEHTJ,3598,182358.jpg,6,107,live
1197,A96CZ20YAZKZ8:3AAPLD8UCEOG740SKP66NZSR1IEHTJ,5308,163429.jpg,5,108,live
1198,A96CZ20YAZKZ8:3AAPLD8UCEOG740SKP66NZSR1IEHTJ,3332,133078.jpg,2,109,live
1199,A96CZ20YAZKZ8:3AAPLD8UCEOG740SKP66NZSR1IEHTJ,3905,122478.jpg,6,110,live
1200,A3T2OPYO0AOYXY:37TD41K0AJGOBWCX9XNF23ZPM70CSL,5197,182358.jpg,7,2,live
1201,A3T2OPYO0AOYXY:37TD41K0AJGOBWCX9XNF23ZPM70CSL,4024,033310.jpg,8,3,live
1202,A3T2OPYO0AOYXY:37TD41K0AJGOBWCX9XNF23ZPM70CSL,6728,152827.jpg,8,4,live
1203,A3T2OPYO0AOYXY:37TD41K0AJGOBWCX9XNF23ZPM70CSL,5723,060748.jpg,8,5,live
1204,A3T2OPYO0AOYXY:37TD41K0AJGOBWCX9XNF23ZPM70CSL,5594,122478.jpg,8,6,live
1205,A3T2OPYO0AOYXY:37TD41K0AJGOBWCX9XNF23ZPM70CSL,9010,009366.jpg,8,7,live
1206,A3T2OPYO0AOYXY:37TD41K0AJGOBWCX9XNF23ZPM70CSL,2640,163429.jpg,8,8,live
1207,A3T2OPYO0AOYXY:37TD41K0AJGOBWCX9XNF23ZPM70CSL,2242,127601.jpg,8,9,live
1208,A3T2OPYO0AOYXY:37TD41K0AJGOBWCX9XNF23ZPM70CSL,2029,197708.jpg,8,10,live
1209,A3T2OPYO0AOYXY:37TD41K0AJGOBWCX9XNF23ZPM70CSL,2347,189212.jpg,8,11,live
1210,A3T2OPYO0AOYXY:37TD41K0AJGOBWCX9XNF23ZPM70CSL,5134,022657.jpg,8,13,live
1211,A3T2OPYO0AOYXY:37TD41K0AJGOBWCX9XNF23ZPM70CSL,2762,171257.jpg,8,14,live
1212,A3T2OPYO0AOYXY:37TD41K0AJGOBWCX9XNF23ZPM70CSL,6731,040400.jpg,8,15,live
1213,A3T2OPYO0AOYXY:37TD41K0AJGOBWCX9XNF23ZPM70CSL,3162,103511.jpg,8,16,live
1214,A3T2OPYO0AOYXY:37TD41K0AJGOBWCX9XNF23ZPM70CSL,2068,002854.jpg,7,17,live
1215,A3T2OPYO0AOYXY:37TD41K0AJGOBWCX9XNF23ZPM70CSL,2363,186784.jpg,8,18,live
1216,A3T2OPYO0AOYXY:37TD41K0AJGOBWCX9XNF23ZPM70CSL,2194,069096.jpg,7,19,live
1217,A3T2OPYO0AOYXY:37TD41K0AJGOBWCX9XNF23ZPM70CSL,1910,123983.jpg,8,20,live
1218,A3T2OPYO0AOYXY:37TD41K0AJGOBWCX9XNF23ZPM70CSL,2570,078663.jpg,8,21,live
1219,A3T2OPYO0AOYXY:37TD41K0AJGOBWCX9XNF23ZPM70CSL,2163,048695.jpg,7,22,live
1220,A3T2OPYO0AOYXY:37TD41K0AJGOBWCX9XNF23ZPM70CSL,3122,058511.jpg,8,24,live
1221,A3T2OPYO0AOYXY:37TD41K0AJGOBWCX9XNF23ZPM70CSL,1748,033658.jpg,8,25,live
1222,A3T2OPYO0AOYXY:37TD41K0AJGOBWCX9XNF23ZPM70CSL,2019,181032.jpg,8,26,live
1223,A3T2OPYO0AOYXY:37TD41K0AJGOBWCX9XNF23ZPM70CSL,2355,178434.jpg,8,27,live
1224,A3T2OPYO0AOYXY:37TD41K0AJGOBWCX9XNF23ZPM70CSL,1906,022657.jpg,8,28,live
1225,A3T2OPYO0AOYXY:37TD41K0AJGOBWCX9XNF23ZPM70CSL,1944,020874.jpg,8,29,live
1226,A3T2OPYO0AOYXY:37TD41K0AJGOBWCX9XNF23ZPM70CSL,2575,003560.jpg,8,30,live
1227,A3T2OPYO0AOYXY:37TD41K0AJGOBWCX9XNF23ZPM70CSL,2931,137186.jpg,8,31,live
1228,A3T2OPYO0AOYXY:37TD41K0AJGOBWCX9XNF23ZPM70CSL,2244,057478.jpg,8,32,live
1229,A3T2OPYO0AOYXY:37TD41K0AJGOBWCX9XNF23ZPM70CSL,3843,123983.jpg,8,33,live
1230,A3T2OPYO0AOYXY:37TD41K0AJGOBWCX9XNF23ZPM70CSL,3307,185572.jpg,7,35,live
1231,A3T2OPYO0AOYXY:37TD41K0AJGOBWCX9XNF23ZPM70CSL,2312,030503.jpg,8,36,live
1232,A3T2OPYO0AOYXY:37TD41K0AJGOBWCX9XNF23ZPM70CSL,2124,185318.jpg,7,37,live
1233,A3T2OPYO0AOYXY:37TD41K0AJGOBWCX9XNF23ZPM70CSL,2424,088505.jpg,8,38,live
1234,A3T2OPYO0AOYXY:37TD41K0AJGOBWCX9XNF23ZPM70CSL,1603,114506.jpg,7,39,live
1235,A3T2OPYO0AOYXY:37TD41K0AJGOBWCX9XNF23ZPM70CSL,1969,165297.jpg,8,40,live
1236,A3T2OPYO0AOYXY:37TD41K0AJGOBWCX9XNF23ZPM70CSL,3255,096298.jpg,7,41,live
1237,A3T2OPYO0AOYXY:37TD41K0AJGOBWCX9XNF23ZPM70CSL,2423,069096.jpg,8,42,live
1238,A3T2OPYO0AOYXY:37TD41K0AJGOBWCX9XNF23ZPM70CSL,2456,027687.jpg,7,43,live
1239,A3T2OPYO0AOYXY:37TD41K0AJGOBWCX9XNF23ZPM70CSL,2291,133078.jpg,8,44,live
1240,A3T2OPYO0AOYXY:37TD41K0AJGOBWCX9XNF23ZPM70CSL,2224,027687.jpg,7,46,live
1241,A3T2OPYO0AOYXY:37TD41K0AJGOBWCX9XNF23ZPM70CSL,3908,164055.jpg,8,47,live
1242,A3T2OPYO0AOYXY:37TD41K0AJGOBWCX9XNF23ZPM70CSL,1811,199097.jpg,7,48,live
1243,A3T2OPYO0AOYXY:37TD41K0AJGOBWCX9XNF23ZPM70CSL,1955,118886.jpg,8,49,live
1244,A3T2OPYO0AOYXY:37TD41K0AJGOBWCX9XNF23ZPM70CSL,2027,005221.jpg,7,50,live
1245,A3T2OPYO0AOYXY:37TD41K0AJGOBWCX9XNF23ZPM70CSL,2184,182358.jpg,8,51,live
1246,A3T2OPYO0AOYXY:37TD41K0AJGOBWCX9XNF23ZPM70CSL,1809,108820.jpg,7,52,live
1247,A3T2OPYO0AOYXY:37TD41K0AJGOBWCX9XNF23ZPM70CSL,1667,116443.jpg,8,53,live
1248,A3T2OPYO0AOYXY:37TD41K0AJGOBWCX9XNF23ZPM70CSL,1716,159474.jpg,7,54,live
1249,A3T2OPYO0AOYXY:37TD41K0AJGOBWCX9XNF23ZPM70CSL,2391,035709.jpg,8,55,live
1250,A3T2OPYO0AOYXY:37TD41K0AJGOBWCX9XNF23ZPM70CSL,4096,160870.jpg,7,57,live
1251,A3T2OPYO0AOYXY:37TD41K0AJGOBWCX9XNF23ZPM70CSL,2404,186564.jpg,8,58,live
1252,A3T2OPYO0AOYXY:37TD41K0AJGOBWCX9XNF23ZPM70CSL,1904,135747.jpg,7,59,live
1253,A3T2OPYO0AOYXY:37TD41K0AJGOBWCX9XNF23ZPM70CSL,1766,055914.jpg,7,60,live
1254,A3T2OPYO0AOYXY:37TD41K0AJGOBWCX9XNF23ZPM70CSL,3309,130873.jpg,8,61,live
1255,A3T2OPYO0AOYXY:37TD41K0AJGOBWCX9XNF23ZPM70CSL,2320,104427.jpg,7,62,live
1256,A3T2OPYO0AOYXY:37TD41K0AJGOBWCX9XNF23ZPM70CSL,2521,058369.jpg,8,63,live
1257,A3T2OPYO0AOYXY:37TD41K0AJGOBWCX9XNF23ZPM70CSL,2046,070908.jpg,7,64,live
1258,A3T2OPYO0AOYXY:37TD41K0AJGOBWCX9XNF23ZPM70CSL,1776,122478.jpg,8,65,live
1259,A3T2OPYO0AOYXY:37TD41K0AJGOBWCX9XNF23ZPM70CSL,1866,020874.jpg,7,66,live
1260,A3T2OPYO0AOYXY:37TD41K0AJGOBWCX9XNF23ZPM70CSL,3954,141241.jpg,7,68,live
1261,A3T2OPYO0AOYXY:37TD41K0AJGOBWCX9XNF23ZPM70CSL,2020,161851.jpg,8,69,live
1262,A3T2OPYO0AOYXY:37TD41K0AJGOBWCX9XNF23ZPM70CSL,1820,052930.jpg,7,70,live
1263,A3T2OPYO0AOYXY:37TD41K0AJGOBWCX9XNF23ZPM70CSL,2556,050840.jpg,8,71,live
1264,A3T2OPYO0AOYXY:37TD41K0AJGOBWCX9XNF23ZPM70CSL,2579,171826.jpg,7,72,live
1265,A3T2OPYO0AOYXY:37TD41K0AJGOBWCX9XNF23ZPM70CSL,2483,024915.jpg,8,73,live
1266,A3T2OPYO0AOYXY:37TD41K0AJGOBWCX9XNF23ZPM70CSL,2962,055914.jpg,7,74,live
1267,A3T2OPYO0AOYXY:37TD41K0AJGOBWCX9XNF23ZPM70CSL,4154,163099.jpg,8,75,live
1268,A3T2OPYO0AOYXY:37TD41K0AJGOBWCX9XNF23ZPM70CSL,3260,159474.jpg,7,76,live
1269,A3T2OPYO0AOYXY:37TD41K0AJGOBWCX9XNF23ZPM70CSL,2330,135747.jpg,8,77,live
1270,A3T2OPYO0AOYXY:37TD41K0AJGOBWCX9XNF23ZPM70CSL,3680,064300.jpg,7,79,live
1271,A3T2OPYO0AOYXY:37TD41K0AJGOBWCX9XNF23ZPM70CSL,2113,160218.jpg,8,80,live
1272,A3T2OPYO0AOYXY:37TD41K0AJGOBWCX9XNF23ZPM70CSL,3384,109934.jpg,7,81,live
1273,A3T2OPYO0AOYXY:37TD41K0AJGOBWCX9XNF23ZPM70CSL,2018,128683.jpg,8,82,live
1274,A3T2OPYO0AOYXY:37TD41K0AJGOBWCX9XNF23ZPM70CSL,1596,152865.jpg,7,83,live
1275,A3T2OPYO0AOYXY:37TD41K0AJGOBWCX9XNF23ZPM70CSL,2195,102692.jpg,8,84,live
1276,A3T2OPYO0AOYXY:37TD41K0AJGOBWCX9XNF23ZPM70CSL,1835,127312.jpg,7,85,live
1277,A3T2OPYO0AOYXY:37TD41K0AJGOBWCX9XNF23ZPM70CSL,1768,166652.jpg,8,86,live
1278,A3T2OPYO0AOYXY:37TD41K0AJGOBWCX9XNF23ZPM70CSL,3344,136091.jpg,7,87,live
1279,A3T2OPYO0AOYXY:37TD41K0AJGOBWCX9XNF23ZPM70CSL,1826,030503.jpg,8,88,live
1280,A3T2OPYO0AOYXY:37TD41K0AJGOBWCX9XNF23ZPM70CSL,2015,199097.jpg,7,90,live
1281,A3T2OPYO0AOYXY:37TD41K0AJGOBWCX9XNF23ZPM70CSL,2640,118886.jpg,8,91,live
1282,A3T2OPYO0AOYXY:37TD41K0AJGOBWCX9XNF23ZPM70CSL,2665,012976.jpg,7,92,live
1283,A3T2OPYO0AOYXY:37TD41K0AJGOBWCX9XNF23ZPM70CSL,2251,110128.jpg,8,93,live
1284,A3T2OPYO0AOYXY:37TD41K0AJGOBWCX9XNF23ZPM70CSL,2634,033708.jpg,7,94,live
1285,A3T2OPYO0AOYXY:37TD41K0AJGOBWCX9XNF23ZPM70CSL,2376,003560.jpg,8,95,live
1286,A3T2OPYO0AOYXY:37TD41K0AJGOBWCX9XNF23ZPM70CSL,2271,074442.jpg,7,96,live
1287,A3T2OPYO0AOYXY:37TD41K0AJGOBWCX9XNF23ZPM70CSL,2439,163429.jpg,8,97,live
1288,A3T2OPYO0AOYXY:37TD41K0AJGOBWCX9XNF23ZPM70CSL,1760,114506.jpg,7,98,live
1289,A3T2OPYO0AOYXY:37TD41K0AJGOBWCX9XNF23ZPM70CSL,3049,058057.jpg,8,99,live
1290,A3T2OPYO0AOYXY:37TD41K0AJGOBWCX9XNF23ZPM70CSL,2094,078330.jpg,7,101,live
1291,A3T2OPYO0AOYXY:37TD41K0AJGOBWCX9XNF23ZPM70CSL,1632,133078.jpg,8,102,live
1292,A3T2OPYO0AOYXY:37TD41K0AJGOBWCX9XNF23ZPM70CSL,2033,171257.jpg,7,103,live
1293,A3T2OPYO0AOYXY:37TD41K0AJGOBWCX9XNF23ZPM70CSL,1533,110328.jpg,8,104,live
1294,A3T2OPYO0AOYXY:37TD41K0AJGOBWCX9XNF23ZPM70CSL,1858,110519.jpg,7,105,live
1295,A3T2OPYO0AOYXY:37TD41K0AJGOBWCX9XNF23ZPM70CSL,2122,040498.jpg,8,106,live
1296,A3T2OPYO0AOYXY:37TD41K0AJGOBWCX9XNF23ZPM70CSL,3283,033708.jpg,7,107,live
1297,A3T2OPYO0AOYXY:37TD41K0AJGOBWCX9XNF23ZPM70CSL,2058,070908.jpg,8,108,live
1298,A3T2OPYO0AOYXY:37TD41K0AJGOBWCX9XNF23ZPM70CSL,1716,124386.jpg,7,109,live
1299,A3T2OPYO0AOYXY:37TD41K0AJGOBWCX9XNF23ZPM70CSL,1507,016460.jpg,8,110,live
1300,AIWSB4YTN32GF:3VHP9MDGRPRF7R7B3DNGV4GAXH1FC0,13197,048695.jpg,5,2,live
1301,AIWSB4YTN32GF:3VHP9MDGRPRF7R7B3DNGV4GAXH1FC0,3088,055914.jpg,3,3,live
1302,AIWSB4YTN32GF:3VHP9MDGRPRF7R7B3DNGV4GAXH1FC0,3352,130873.jpg,7,4,live
1303,AIWSB4YTN32GF:3VHP9MDGRPRF7R7B3DNGV4GAXH1FC0,3489,103511.jpg,9,5,live
1304,AIWSB4YTN32GF:3VHP9MDGRPRF7R7B3DNGV4GAXH1FC0,3319,122478.jpg,3,6,live
1305,AIWSB4YTN32GF:3VHP9MDGRPRF7R7B3DNGV4GAXH1FC0,3766,052930.jpg,1,7,live
1306,AIWSB4YTN32GF:3VHP9MDGRPRF7R7B3DNGV4GAXH1FC0,4197,127601.jpg,6,8,live
1307,AIWSB4YTN32GF:3VHP9MDGRPRF7R7B3DNGV4GAXH1FC0,8219,118886.jpg,5,9,live
1308,AIWSB4YTN32GF:3VHP9MDGRPRF7R7B3DNGV4GAXH1FC0,3070,152827.jpg,5,10,live
1309,AIWSB4YTN32GF:3VHP9MDGRPRF7R7B3DNGV4GAXH1FC0,2840,114506.jpg,4,11,live
1310,AIWSB4YTN32GF:3VHP9MDGRPRF7R7B3DNGV4GAXH1FC0,8890,135747.jpg,2,13,live
1311,AIWSB4YTN32GF:3VHP9MDGRPRF7R7B3DNGV4GAXH1FC0,2802,030503.jpg,4,14,live
1312,AIWSB4YTN32GF:3VHP9MDGRPRF7R7B3DNGV4GAXH1FC0,12951,030503.jpg,4,15,live
1313,AIWSB4YTN32GF:3VHP9MDGRPRF7R7B3DNGV4GAXH1FC0,3815,078330.jpg,3,16,live
1314,AIWSB4YTN32GF:3VHP9MDGRPRF7R7B3DNGV4GAXH1FC0,3372,033708.jpg,5,17,live
1315,AIWSB4YTN32GF:3VHP9MDGRPRF7R7B3DNGV4GAXH1FC0,3444,057478.jpg,5,18,live
1316,AIWSB4YTN32GF:3VHP9MDGRPRF7R7B3DNGV4GAXH1FC0,3235,027687.jpg,3,19,live
1317,AIWSB4YTN32GF:3VHP9MDGRPRF7R7B3DNGV4GAXH1FC0,3203,069096.jpg,1,20,live
1318,AIWSB4YTN32GF:3VHP9MDGRPRF7R7B3DNGV4GAXH1FC0,3580,189212.jpg,4,21,live
1319,AIWSB4YTN32GF:3VHP9MDGRPRF7R7B3DNGV4GAXH1FC0,2561,128683.jpg,4,22,live
