,subId,rt,imgName,rating,trial_index,debug_mode
0,AHDY3BLTTUYFG:37U1UTWH9XTAYEM7DW75A7YAAAG8RZ,5531,183037.jpg,7,2,live
1,AHDY3BLTTUYFG:37U1UTWH9XTAYEM7DW75A7YAAAG8RZ,3772,136140.jpg,9,3,live
2,AHDY3BLTTUYFG:37U1UTWH9XTAYEM7DW75A7YAAAG8RZ,6626,108522.jpg,9,4,live
3,AHDY3BLTTUYFG:37U1UTWH9XTAYEM7DW75A7YAAAG8RZ,7347,108821.jpg,8,5,live
4,AHDY3BLTTUYFG:37U1UTWH9XTAYEM7DW75A7YAAAG8RZ,3702,122676.jpg,8,6,live
5,AHDY3BLTTUYFG:37U1UTWH9XTAYEM7DW75A7YAAAG8RZ,3496,059649.jpg,7,7,live
6,AHDY3BLTTUYFG:37U1UTWH9XTAYEM7DW75A7YAAAG8RZ,4549,049175.jpg,7,8,live
7,AHDY3BLTTUYFG:37U1UTWH9XTAYEM7DW75A7YAAAG8RZ,4862,003704.jpg,8,9,live
8,AHDY3BLTTUYFG:37U1UTWH9XTAYEM7DW75A7YAAAG8RZ,2728,111710.jpg,9,10,live
9,AHDY3BLTTUYFG:37U1UTWH9XTAYEM7DW75A7YAAAG8RZ,4168,051469.jpg,7,11,live
10,AHDY3BLTTUYFG:37U1UTWH9XTAYEM7DW75A7YAAAG8RZ,2877,059649.jpg,8,13,live
11,AHDY3BLTTUYFG:37U1UTWH9XTAYEM7DW75A7YAAAG8RZ,2823,127983.jpg,8,14,live
12,AHDY3BLTTUYFG:37U1UTWH9XTAYEM7DW75A7YAAAG8RZ,8366,101536.jpg,8,15,live
13,AHDY3BLTTUYFG:37U1UTWH9XTAYEM7DW75A7YAAAG8RZ,5800,061668.jpg,8,16,live
14,AHDY3BLTTUYFG:37U1UTWH9XTAYEM7DW75A7YAAAG8RZ,4446,049175.jpg,7,17,live
15,AHDY3BLTTUYFG:37U1UTWH9XTAYEM7DW75A7YAAAG8RZ,9006,027045.jpg,8,18,live
16,AHDY3BLTTUYFG:37U1UTWH9XTAYEM7DW75A7YAAAG8RZ,7799,075690.jpg,8,19,live
17,AHDY3BLTTUYFG:37U1UTWH9XTAYEM7DW75A7YAAAG8RZ,4831,043890.jpg,8,20,live
18,AHDY3BLTTUYFG:37U1UTWH9XTAYEM7DW75A7YAAAG8RZ,3101,182463.jpg,7,21,live
19,AHDY3BLTTUYFG:37U1UTWH9XTAYEM7DW75A7YAAAG8RZ,23640,126447.jpg,8,22,live
20,AHDY3BLTTUYFG:37U1UTWH9XTAYEM7DW75A7YAAAG8RZ,2384,104972.jpg,8,24,live
21,AHDY3BLTTUYFG:37U1UTWH9XTAYEM7DW75A7YAAAG8RZ,2614,148109.jpg,8,25,live
22,AHDY3BLTTUYFG:37U1UTWH9XTAYEM7DW75A7YAAAG8RZ,3718,105842.jpg,9,26,live
23,AHDY3BLTTUYFG:37U1UTWH9XTAYEM7DW75A7YAAAG8RZ,2822,142336.jpg,9,27,live
24,AHDY3BLTTUYFG:37U1UTWH9XTAYEM7DW75A7YAAAG8RZ,4591,018905.jpg,8,28,live
25,AHDY3BLTTUYFG:37U1UTWH9XTAYEM7DW75A7YAAAG8RZ,2549,122676.jpg,7,29,live
26,AHDY3BLTTUYFG:37U1UTWH9XTAYEM7DW75A7YAAAG8RZ,2815,171858.jpg,7,30,live
27,AHDY3BLTTUYFG:37U1UTWH9XTAYEM7DW75A7YAAAG8RZ,1981,148852.jpg,8,31,live
28,AHDY3BLTTUYFG:37U1UTWH9XTAYEM7DW75A7YAAAG8RZ,2678,139088.jpg,9,32,live
29,AHDY3BLTTUYFG:37U1UTWH9XTAYEM7DW75A7YAAAG8RZ,1959,002906.jpg,7,33,live
30,AHDY3BLTTUYFG:37U1UTWH9XTAYEM7DW75A7YAAAG8RZ,3587,109934.jpg,8,35,live
31,AHDY3BLTTUYFG:37U1UTWH9XTAYEM7DW75A7YAAAG8RZ,2893,139565.jpg,8,36,live
32,AHDY3BLTTUYFG:37U1UTWH9XTAYEM7DW75A7YAAAG8RZ,3037,143688.jpg,6,37,live
33,AHDY3BLTTUYFG:37U1UTWH9XTAYEM7DW75A7YAAAG8RZ,2398,053040.jpg,7,38,live
34,AHDY3BLTTUYFG:37U1UTWH9XTAYEM7DW75A7YAAAG8RZ,2358,023754.jpg,8,39,live
35,AHDY3BLTTUYFG:37U1UTWH9XTAYEM7DW75A7YAAAG8RZ,3878,018905.jpg,9,40,live
36,AHDY3BLTTUYFG:37U1UTWH9XTAYEM7DW75A7YAAAG8RZ,2421,163934.jpg,8,41,live
37,AHDY3BLTTUYFG:37U1UTWH9XTAYEM7DW75A7YAAAG8RZ,1966,159382.jpg,8,42,live
38,AHDY3BLTTUYFG:37U1UTWH9XTAYEM7DW75A7YAAAG8RZ,3214,095854.jpg,8,43,live
39,AHDY3BLTTUYFG:37U1UTWH9XTAYEM7DW75A7YAAAG8RZ,2614,051409.jpg,8,44,live
40,AHDY3BLTTUYFG:37U1UTWH9XTAYEM7DW75A7YAAAG8RZ,2584,137367.jpg,8,46,live
41,AHDY3BLTTUYFG:37U1UTWH9XTAYEM7DW75A7YAAAG8RZ,2677,132670.jpg,9,47,live
42,AHDY3BLTTUYFG:37U1UTWH9XTAYEM7DW75A7YAAAG8RZ,2567,171858.jpg,8,48,live
43,AHDY3BLTTUYFG:37U1UTWH9XTAYEM7DW75A7YAAAG8RZ,3647,105666.jpg,8,49,live
44,AHDY3BLTTUYFG:37U1UTWH9XTAYEM7DW75A7YAAAG8RZ,3926,007374.jpg,8,50,live
45,AHDY3BLTTUYFG:37U1UTWH9XTAYEM7DW75A7YAAAG8RZ,2349,042749.jpg,8,51,live
46,AHDY3BLTTUYFG:37U1UTWH9XTAYEM7DW75A7YAAAG8RZ,2463,028757.jpg,8,52,live
47,AHDY3BLTTUYFG:37U1UTWH9XTAYEM7DW75A7YAAAG8RZ,2334,149194.jpg,8,53,live
48,AHDY3BLTTUYFG:37U1UTWH9XTAYEM7DW75A7YAAAG8RZ,3295,148109.jpg,8,54,live
49,AHDY3BLTTUYFG:37U1UTWH9XTAYEM7DW75A7YAAAG8RZ,2077,003704.jpg,8,55,live
50,AHDY3BLTTUYFG:37U1UTWH9XTAYEM7DW75A7YAAAG8RZ,2101,161399.jpg,8,57,live
51,AHDY3BLTTUYFG:37U1UTWH9XTAYEM7DW75A7YAAAG8RZ,2486,080434.jpg,7,58,live
52,AHDY3BLTTUYFG:37U1UTWH9XTAYEM7DW75A7YAAAG8RZ,3182,057257.jpg,8,59,live
53,AHDY3BLTTUYFG:37U1UTWH9XTAYEM7DW75A7YAAAG8RZ,2542,128593.jpg,8,60,live
54,AHDY3BLTTUYFG:37U1UTWH9XTAYEM7DW75A7YAAAG8RZ,2094,131025.jpg,8,61,live
55,AHDY3BLTTUYFG:37U1UTWH9XTAYEM7DW75A7YAAAG8RZ,2302,007208.jpg,8,62,live
56,AHDY3BLTTUYFG:37U1UTWH9XTAYEM7DW75A7YAAAG8RZ,1900,016389.jpg,8,63,live
57,AHDY3BLTTUYFG:37U1UTWH9XTAYEM7DW75A7YAAAG8RZ,3295,078487.jpg,7,64,live
58,AHDY3BLTTUYFG:37U1UTWH9XTAYEM7DW75A7YAAAG8RZ,2030,153416.jpg,8,65,live
59,AHDY3BLTTUYFG:37U1UTWH9XTAYEM7DW75A7YAAAG8RZ,2366,062808.jpg,8,66,live
60,AHDY3BLTTUYFG:37U1UTWH9XTAYEM7DW75A7YAAAG8RZ,5758,148547.jpg,7,68,live
61,AHDY3BLTTUYFG:37U1UTWH9XTAYEM7DW75A7YAAAG8RZ,5516,048872.jpg,8,69,live
62,AHDY3BLTTUYFG:37U1UTWH9XTAYEM7DW75A7YAAAG8RZ,2630,027045.jpg,8,70,live
63,AHDY3BLTTUYFG:37U1UTWH9XTAYEM7DW75A7YAAAG8RZ,2711,049195.jpg,7,71,live
64,AHDY3BLTTUYFG:37U1UTWH9XTAYEM7DW75A7YAAAG8RZ,2254,147667.jpg,8,72,live
65,AHDY3BLTTUYFG:37U1UTWH9XTAYEM7DW75A7YAAAG8RZ,1583,124963.jpg,8,73,live
66,AHDY3BLTTUYFG:37U1UTWH9XTAYEM7DW75A7YAAAG8RZ,3511,122039.jpg,8,74,live
67,AHDY3BLTTUYFG:37U1UTWH9XTAYEM7DW75A7YAAAG8RZ,2133,064172.jpg,9,75,live
68,AHDY3BLTTUYFG:37U1UTWH9XTAYEM7DW75A7YAAAG8RZ,1693,116939.jpg,7,76,live
69,AHDY3BLTTUYFG:37U1UTWH9XTAYEM7DW75A7YAAAG8RZ,1982,016389.jpg,7,77,live
70,AHDY3BLTTUYFG:37U1UTWH9XTAYEM7DW75A7YAAAG8RZ,2065,182044.jpg,8,79,live
71,AHDY3BLTTUYFG:37U1UTWH9XTAYEM7DW75A7YAAAG8RZ,2230,042749.jpg,8,80,live
72,AHDY3BLTTUYFG:37U1UTWH9XTAYEM7DW75A7YAAAG8RZ,1822,065232.jpg,8,81,live
73,AHDY3BLTTUYFG:37U1UTWH9XTAYEM7DW75A7YAAAG8RZ,3654,095854.jpg,8,82,live
74,AHDY3BLTTUYFG:37U1UTWH9XTAYEM7DW75A7YAAAG8RZ,26606,082540.jpg,8,83,live
75,AHDY3BLTTUYFG:37U1UTWH9XTAYEM7DW75A7YAAAG8RZ,1941,139565.jpg,8,84,live
76,AHDY3BLTTUYFG:37U1UTWH9XTAYEM7DW75A7YAAAG8RZ,4063,014145.jpg,7,85,live
77,AHDY3BLTTUYFG:37U1UTWH9XTAYEM7DW75A7YAAAG8RZ,5367,078290.jpg,7,86,live
78,AHDY3BLTTUYFG:37U1UTWH9XTAYEM7DW75A7YAAAG8RZ,2205,111710.jpg,8,87,live
79,AHDY3BLTTUYFG:37U1UTWH9XTAYEM7DW75A7YAAAG8RZ,3086,022216.jpg,8,88,live
80,AHDY3BLTTUYFG:37U1UTWH9XTAYEM7DW75A7YAAAG8RZ,2062,020990.jpg,8,90,live
81,AHDY3BLTTUYFG:37U1UTWH9XTAYEM7DW75A7YAAAG8RZ,3591,056283.jpg,8,91,live
82,AHDY3BLTTUYFG:37U1UTWH9XTAYEM7DW75A7YAAAG8RZ,2790,129344.jpg,8,92,live
83,AHDY3BLTTUYFG:37U1UTWH9XTAYEM7DW75A7YAAAG8RZ,5982,131025.jpg,7,93,live
84,AHDY3BLTTUYFG:37U1UTWH9XTAYEM7DW75A7YAAAG8RZ,1772,078487.jpg,8,94,live
85,AHDY3BLTTUYFG:37U1UTWH9XTAYEM7DW75A7YAAAG8RZ,1829,163099.jpg,7,95,live
86,AHDY3BLTTUYFG:37U1UTWH9XTAYEM7DW75A7YAAAG8RZ,2421,134288.jpg,8,96,live
87,AHDY3BLTTUYFG:37U1UTWH9XTAYEM7DW75A7YAAAG8RZ,1783,011276.jpg,8,97,live
88,AHDY3BLTTUYFG:37U1UTWH9XTAYEM7DW75A7YAAAG8RZ,2533,182044.jpg,8,98,live
89,AHDY3BLTTUYFG:37U1UTWH9XTAYEM7DW75A7YAAAG8RZ,1941,023754.jpg,7,99,live
90,AHDY3BLTTUYFG:37U1UTWH9XTAYEM7DW75A7YAAAG8RZ,2517,163099.jpg,8,101,live
91,AHDY3BLTTUYFG:37U1UTWH9XTAYEM7DW75A7YAAAG8RZ,1750,015082.jpg,7,102,live
92,AHDY3BLTTUYFG:37U1UTWH9XTAYEM7DW75A7YAAAG8RZ,3341,051409.jpg,8,103,live
93,AHDY3BLTTUYFG:37U1UTWH9XTAYEM7DW75A7YAAAG8RZ,2231,181931.jpg,7,104,live
94,AHDY3BLTTUYFG:37U1UTWH9XTAYEM7DW75A7YAAAG8RZ,1798,094816.jpg,8,105,live
95,AHDY3BLTTUYFG:37U1UTWH9XTAYEM7DW75A7YAAAG8RZ,3622,031302.jpg,8,106,live
96,AHDY3BLTTUYFG:37U1UTWH9XTAYEM7DW75A7YAAAG8RZ,2190,038546.jpg,9,107,live
97,AHDY3BLTTUYFG:37U1UTWH9XTAYEM7DW75A7YAAAG8RZ,1822,007374.jpg,8,108,live
98,AHDY3BLTTUYFG:37U1UTWH9XTAYEM7DW75A7YAAAG8RZ,2118,120299.jpg,7,109,live
99,AHDY3BLTTUYFG:37U1UTWH9XTAYEM7DW75A7YAAAG8RZ,1751,012584.jpg,8,110,live
100,A1AAO2R3FH2G49:3LEP4MGT3I7ZZ219Y7WVWK773FADBX,7914,183037.jpg,6,2,live
101,A1AAO2R3FH2G49:3LEP4MGT3I7ZZ219Y7WVWK773FADBX,7928,161399.jpg,6,3,live
102,A1AAO2R3FH2G49:3LEP4MGT3I7ZZ219Y7WVWK773FADBX,6256,075690.jpg,6,4,live
103,A1AAO2R3FH2G49:3LEP4MGT3I7ZZ219Y7WVWK773FADBX,4858,143688.jpg,7,5,live
104,A1AAO2R3FH2G49:3LEP4MGT3I7ZZ219Y7WVWK773FADBX,5226,108522.jpg,8,6,live
105,A1AAO2R3FH2G49:3LEP4MGT3I7ZZ219Y7WVWK773FADBX,4727,028757.jpg,8,7,live
106,A1AAO2R3FH2G49:3LEP4MGT3I7ZZ219Y7WVWK773FADBX,5191,111710.jpg,6,8,live
107,A1AAO2R3FH2G49:3LEP4MGT3I7ZZ219Y7WVWK773FADBX,5268,131025.jpg,7,9,live
108,A1AAO2R3FH2G49:3LEP4MGT3I7ZZ219Y7WVWK773FADBX,5180,131025.jpg,7,10,live
109,A1AAO2R3FH2G49:3LEP4MGT3I7ZZ219Y7WVWK773FADBX,4657,147667.jpg,6,11,live
110,A1AAO2R3FH2G49:3LEP4MGT3I7ZZ219Y7WVWK773FADBX,4726,163934.jpg,4,13,live
111,A1AAO2R3FH2G49:3LEP4MGT3I7ZZ219Y7WVWK773FADBX,4544,094816.jpg,7,14,live
112,A1AAO2R3FH2G49:3LEP4MGT3I7ZZ219Y7WVWK773FADBX,4777,136140.jpg,6,15,live
113,A1AAO2R3FH2G49:3LEP4MGT3I7ZZ219Y7WVWK773FADBX,4551,171858.jpg,7,16,live
114,A1AAO2R3FH2G49:3LEP4MGT3I7ZZ219Y7WVWK773FADBX,6128,018905.jpg,8,17,live
115,A1AAO2R3FH2G49:3LEP4MGT3I7ZZ219Y7WVWK773FADBX,3707,104972.jpg,6,18,live
116,A1AAO2R3FH2G49:3LEP4MGT3I7ZZ219Y7WVWK773FADBX,5529,109934.jpg,7,19,live
117,A1AAO2R3FH2G49:3LEP4MGT3I7ZZ219Y7WVWK773FADBX,4394,132670.jpg,6,20,live
118,A1AAO2R3FH2G49:3LEP4MGT3I7ZZ219Y7WVWK773FADBX,4466,016389.jpg,7,21,live
119,A1AAO2R3FH2G49:3LEP4MGT3I7ZZ219Y7WVWK773FADBX,4158,153416.jpg,6,22,live
120,A1AAO2R3FH2G49:3LEP4MGT3I7ZZ219Y7WVWK773FADBX,4095,122676.jpg,7,24,live
121,A1AAO2R3FH2G49:3LEP4MGT3I7ZZ219Y7WVWK773FADBX,4747,182463.jpg,6,25,live
122,A1AAO2R3FH2G49:3LEP4MGT3I7ZZ219Y7WVWK773FADBX,3859,043890.jpg,7,26,live
123,A1AAO2R3FH2G49:3LEP4MGT3I7ZZ219Y7WVWK773FADBX,3777,053040.jpg,6,27,live
124,A1AAO2R3FH2G49:3LEP4MGT3I7ZZ219Y7WVWK773FADBX,3868,002906.jpg,7,28,live
125,A1AAO2R3FH2G49:3LEP4MGT3I7ZZ219Y7WVWK773FADBX,3556,148852.jpg,6,29,live
126,A1AAO2R3FH2G49:3LEP4MGT3I7ZZ219Y7WVWK773FADBX,4093,059649.jpg,7,30,live
127,A1AAO2R3FH2G49:3LEP4MGT3I7ZZ219Y7WVWK773FADBX,3760,016389.jpg,7,31,live
128,A1AAO2R3FH2G49:3LEP4MGT3I7ZZ219Y7WVWK773FADBX,3736,007374.jpg,6,32,live
129,A1AAO2R3FH2G49:3LEP4MGT3I7ZZ219Y7WVWK773FADBX,6042,105666.jpg,5,33,live
130,A1AAO2R3FH2G49:3LEP4MGT3I7ZZ219Y7WVWK773FADBX,4609,149194.jpg,6,35,live
131,A1AAO2R3FH2G49:3LEP4MGT3I7ZZ219Y7WVWK773FADBX,4704,062808.jpg,7,36,live
132,A1AAO2R3FH2G49:3LEP4MGT3I7ZZ219Y7WVWK773FADBX,5191,181931.jpg,6,37,live
133,A1AAO2R3FH2G49:3LEP4MGT3I7ZZ219Y7WVWK773FADBX,4775,056283.jpg,7,38,live
134,A1AAO2R3FH2G49:3LEP4MGT3I7ZZ219Y7WVWK773FADBX,4069,078487.jpg,6,39,live
135,A1AAO2R3FH2G49:3LEP4MGT3I7ZZ219Y7WVWK773FADBX,4677,116939.jpg,7,40,live
136,A1AAO2R3FH2G49:3LEP4MGT3I7ZZ219Y7WVWK773FADBX,3954,124963.jpg,6,41,live
137,A1AAO2R3FH2G49:3LEP4MGT3I7ZZ219Y7WVWK773FADBX,5758,059649.jpg,7,42,live
138,A1AAO2R3FH2G49:3LEP4MGT3I7ZZ219Y7WVWK773FADBX,7404,129344.jpg,8,43,live
139,A1AAO2R3FH2G49:3LEP4MGT3I7ZZ219Y7WVWK773FADBX,5516,105842.jpg,7,44,live
140,A1AAO2R3FH2G49:3LEP4MGT3I7ZZ219Y7WVWK773FADBX,3774,042749.jpg,6,46,live
141,A1AAO2R3FH2G49:3LEP4MGT3I7ZZ219Y7WVWK773FADBX,5328,023754.jpg,9,47,live
142,A1AAO2R3FH2G49:3LEP4MGT3I7ZZ219Y7WVWK773FADBX,4257,027045.jpg,6,48,live
143,A1AAO2R3FH2G49:3LEP4MGT3I7ZZ219Y7WVWK773FADBX,4356,111710.jpg,7,49,live
144,A1AAO2R3FH2G49:3LEP4MGT3I7ZZ219Y7WVWK773FADBX,5811,171858.jpg,6,50,live
145,A1AAO2R3FH2G49:3LEP4MGT3I7ZZ219Y7WVWK773FADBX,4333,065232.jpg,7,51,live
146,A1AAO2R3FH2G49:3LEP4MGT3I7ZZ219Y7WVWK773FADBX,4422,101536.jpg,7,52,live
147,A1AAO2R3FH2G49:3LEP4MGT3I7ZZ219Y7WVWK773FADBX,3973,120299.jpg,8,53,live
148,A1AAO2R3FH2G49:3LEP4MGT3I7ZZ219Y7WVWK773FADBX,6059,015082.jpg,7,54,live
149,A1AAO2R3FH2G49:3LEP4MGT3I7ZZ219Y7WVWK773FADBX,3675,022216.jpg,6,55,live
150,A1AAO2R3FH2G49:3LEP4MGT3I7ZZ219Y7WVWK773FADBX,4429,148109.jpg,7,57,live
151,A1AAO2R3FH2G49:3LEP4MGT3I7ZZ219Y7WVWK773FADBX,4321,018905.jpg,7,58,live
152,A1AAO2R3FH2G49:3LEP4MGT3I7ZZ219Y7WVWK773FADBX,3381,011276.jpg,8,59,live
153,A1AAO2R3FH2G49:3LEP4MGT3I7ZZ219Y7WVWK773FADBX,3395,042749.jpg,6,60,live
154,A1AAO2R3FH2G49:3LEP4MGT3I7ZZ219Y7WVWK773FADBX,4347,137367.jpg,7,61,live
155,A1AAO2R3FH2G49:3LEP4MGT3I7ZZ219Y7WVWK773FADBX,4631,148547.jpg,6,62,live
156,A1AAO2R3FH2G49:3LEP4MGT3I7ZZ219Y7WVWK773FADBX,3738,127983.jpg,7,63,live
157,A1AAO2R3FH2G49:3LEP4MGT3I7ZZ219Y7WVWK773FADBX,4653,122676.jpg,7,64,live
158,A1AAO2R3FH2G49:3LEP4MGT3I7ZZ219Y7WVWK773FADBX,4270,049195.jpg,7,65,live
159,A1AAO2R3FH2G49:3LEP4MGT3I7ZZ219Y7WVWK773FADBX,4773,014145.jpg,8,66,live
160,A1AAO2R3FH2G49:3LEP4MGT3I7ZZ219Y7WVWK773FADBX,5823,049175.jpg,8,68,live
161,A1AAO2R3FH2G49:3LEP4MGT3I7ZZ219Y7WVWK773FADBX,3595,142336.jpg,7,69,live
162,A1AAO2R3FH2G49:3LEP4MGT3I7ZZ219Y7WVWK773FADBX,4264,095854.jpg,7,70,live
163,A1AAO2R3FH2G49:3LEP4MGT3I7ZZ219Y7WVWK773FADBX,4055,003704.jpg,6,71,live
164,A1AAO2R3FH2G49:3LEP4MGT3I7ZZ219Y7WVWK773FADBX,6591,012584.jpg,8,72,live
165,A1AAO2R3FH2G49:3LEP4MGT3I7ZZ219Y7WVWK773FADBX,3720,061668.jpg,7,73,live
166,A1AAO2R3FH2G49:3LEP4MGT3I7ZZ219Y7WVWK773FADBX,4074,020990.jpg,8,74,live
167,A1AAO2R3FH2G49:3LEP4MGT3I7ZZ219Y7WVWK773FADBX,3815,163099.jpg,7,75,live
168,A1AAO2R3FH2G49:3LEP4MGT3I7ZZ219Y7WVWK773FADBX,4420,078487.jpg,7,76,live
169,A1AAO2R3FH2G49:3LEP4MGT3I7ZZ219Y7WVWK773FADBX,3861,003704.jpg,8,77,live
170,A1AAO2R3FH2G49:3LEP4MGT3I7ZZ219Y7WVWK773FADBX,3944,182044.jpg,7,79,live
171,A1AAO2R3FH2G49:3LEP4MGT3I7ZZ219Y7WVWK773FADBX,4276,080434.jpg,8,80,live
172,A1AAO2R3FH2G49:3LEP4MGT3I7ZZ219Y7WVWK773FADBX,4868,048872.jpg,7,81,live
173,A1AAO2R3FH2G49:3LEP4MGT3I7ZZ219Y7WVWK773FADBX,3929,182044.jpg,7,82,live
174,A1AAO2R3FH2G49:3LEP4MGT3I7ZZ219Y7WVWK773FADBX,3838,057257.jpg,7,83,live
175,A1AAO2R3FH2G49:3LEP4MGT3I7ZZ219Y7WVWK773FADBX,3918,007208.jpg,6,84,live
176,A1AAO2R3FH2G49:3LEP4MGT3I7ZZ219Y7WVWK773FADBX,3915,159382.jpg,7,85,live
177,A1AAO2R3FH2G49:3LEP4MGT3I7ZZ219Y7WVWK773FADBX,3632,163099.jpg,8,86,live
178,A1AAO2R3FH2G49:3LEP4MGT3I7ZZ219Y7WVWK773FADBX,4756,128593.jpg,6,87,live
179,A1AAO2R3FH2G49:3LEP4MGT3I7ZZ219Y7WVWK773FADBX,5186,031302.jpg,5,88,live
180,A1AAO2R3FH2G49:3LEP4MGT3I7ZZ219Y7WVWK773FADBX,6509,148109.jpg,7,90,live
181,A1AAO2R3FH2G49:3LEP4MGT3I7ZZ219Y7WVWK773FADBX,5498,038546.jpg,7,91,live
182,A1AAO2R3FH2G49:3LEP4MGT3I7ZZ219Y7WVWK773FADBX,4716,122039.jpg,6,92,live
183,A1AAO2R3FH2G49:3LEP4MGT3I7ZZ219Y7WVWK773FADBX,6361,108821.jpg,8,93,live
184,A1AAO2R3FH2G49:3LEP4MGT3I7ZZ219Y7WVWK773FADBX,5099,064172.jpg,7,94,live
185,A1AAO2R3FH2G49:3LEP4MGT3I7ZZ219Y7WVWK773FADBX,3914,139565.jpg,6,95,live
186,A1AAO2R3FH2G49:3LEP4MGT3I7ZZ219Y7WVWK773FADBX,6502,078290.jpg,5,96,live
187,A1AAO2R3FH2G49:3LEP4MGT3I7ZZ219Y7WVWK773FADBX,4304,051409.jpg,7,97,live
188,A1AAO2R3FH2G49:3LEP4MGT3I7ZZ219Y7WVWK773FADBX,3657,051469.jpg,7,98,live
189,A1AAO2R3FH2G49:3LEP4MGT3I7ZZ219Y7WVWK773FADBX,4014,139088.jpg,8,99,live
190,A1AAO2R3FH2G49:3LEP4MGT3I7ZZ219Y7WVWK773FADBX,4317,051409.jpg,8,101,live
191,A1AAO2R3FH2G49:3LEP4MGT3I7ZZ219Y7WVWK773FADBX,7267,023754.jpg,9,102,live
192,A1AAO2R3FH2G49:3LEP4MGT3I7ZZ219Y7WVWK773FADBX,4004,049175.jpg,8,103,live
193,A1AAO2R3FH2G49:3LEP4MGT3I7ZZ219Y7WVWK773FADBX,3397,139565.jpg,6,104,live
194,A1AAO2R3FH2G49:3LEP4MGT3I7ZZ219Y7WVWK773FADBX,4108,095854.jpg,7,105,live
195,A1AAO2R3FH2G49:3LEP4MGT3I7ZZ219Y7WVWK773FADBX,3677,134288.jpg,8,106,live
196,A1AAO2R3FH2G49:3LEP4MGT3I7ZZ219Y7WVWK773FADBX,4025,126447.jpg,6,107,live
197,A1AAO2R3FH2G49:3LEP4MGT3I7ZZ219Y7WVWK773FADBX,5804,007374.jpg,6,108,live
198,A1AAO2R3FH2G49:3LEP4MGT3I7ZZ219Y7WVWK773FADBX,3637,027045.jpg,6,109,live
199,A1AAO2R3FH2G49:3LEP4MGT3I7ZZ219Y7WVWK773FADBX,3887,082540.jpg,7,110,live
200,A2C7TMRC2QHTIW:3TEM0PF1Q74YFFYZ0RZ6C3BOCBD0DY,4157,023754.jpg,2,2,live
201,A2C7TMRC2QHTIW:3TEM0PF1Q74YFFYZ0RZ6C3BOCBD0DY,1675,148109.jpg,5,3,live
202,A2C7TMRC2QHTIW:3TEM0PF1Q74YFFYZ0RZ6C3BOCBD0DY,1756,122039.jpg,2,4,live
203,A2C7TMRC2QHTIW:3TEM0PF1Q74YFFYZ0RZ6C3BOCBD0DY,1899,027045.jpg,8,5,live
204,A2C7TMRC2QHTIW:3TEM0PF1Q74YFFYZ0RZ6C3BOCBD0DY,1204,011276.jpg,8,6,live
205,A2C7TMRC2QHTIW:3TEM0PF1Q74YFFYZ0RZ6C3BOCBD0DY,2244,003704.jpg,7,7,live
206,A2C7TMRC2QHTIW:3TEM0PF1Q74YFFYZ0RZ6C3BOCBD0DY,2188,122676.jpg,5,8,live
207,A2C7TMRC2QHTIW:3TEM0PF1Q74YFFYZ0RZ6C3BOCBD0DY,1650,159382.jpg,6,9,live
208,A2C7TMRC2QHTIW:3TEM0PF1Q74YFFYZ0RZ6C3BOCBD0DY,2691,082540.jpg,8,10,live
209,A2C7TMRC2QHTIW:3TEM0PF1Q74YFFYZ0RZ6C3BOCBD0DY,1860,101536.jpg,4,11,live
210,A2C7TMRC2QHTIW:3TEM0PF1Q74YFFYZ0RZ6C3BOCBD0DY,1770,078487.jpg,5,13,live
211,A2C7TMRC2QHTIW:3TEM0PF1Q74YFFYZ0RZ6C3BOCBD0DY,1194,139565.jpg,5,14,live
212,A2C7TMRC2QHTIW:3TEM0PF1Q74YFFYZ0RZ6C3BOCBD0DY,1428,149194.jpg,7,15,live
213,A2C7TMRC2QHTIW:3TEM0PF1Q74YFFYZ0RZ6C3BOCBD0DY,1652,124963.jpg,3,16,live
214,A2C7TMRC2QHTIW:3TEM0PF1Q74YFFYZ0RZ6C3BOCBD0DY,1387,182044.jpg,3,17,live
215,A2C7TMRC2QHTIW:3TEM0PF1Q74YFFYZ0RZ6C3BOCBD0DY,2160,016389.jpg,5,18,live
216,A2C7TMRC2QHTIW:3TEM0PF1Q74YFFYZ0RZ6C3BOCBD0DY,2091,014145.jpg,2,19,live
217,A2C7TMRC2QHTIW:3TEM0PF1Q74YFFYZ0RZ6C3BOCBD0DY,1698,148547.jpg,8,20,live
218,A2C7TMRC2QHTIW:3TEM0PF1Q74YFFYZ0RZ6C3BOCBD0DY,1788,163099.jpg,4,21,live
219,A2C7TMRC2QHTIW:3TEM0PF1Q74YFFYZ0RZ6C3BOCBD0DY,1475,053040.jpg,3,22,live
220,A2C7TMRC2QHTIW:3TEM0PF1Q74YFFYZ0RZ6C3BOCBD0DY,2304,182044.jpg,3,24,live
221,A2C7TMRC2QHTIW:3TEM0PF1Q74YFFYZ0RZ6C3BOCBD0DY,2491,062808.jpg,5,25,live
222,A2C7TMRC2QHTIW:3TEM0PF1Q74YFFYZ0RZ6C3BOCBD0DY,2156,111710.jpg,8,26,live
223,A2C7TMRC2QHTIW:3TEM0PF1Q74YFFYZ0RZ6C3BOCBD0DY,1508,095854.jpg,5,27,live
224,A2C7TMRC2QHTIW:3TEM0PF1Q74YFFYZ0RZ6C3BOCBD0DY,2059,105666.jpg,2,28,live
225,A2C7TMRC2QHTIW:3TEM0PF1Q74YFFYZ0RZ6C3BOCBD0DY,2307,056283.jpg,2,29,live
226,A2C7TMRC2QHTIW:3TEM0PF1Q74YFFYZ0RZ6C3BOCBD0DY,1732,171858.jpg,8,30,live
227,A2C7TMRC2QHTIW:3TEM0PF1Q74YFFYZ0RZ6C3BOCBD0DY,1436,042749.jpg,8,31,live
228,A2C7TMRC2QHTIW:3TEM0PF1Q74YFFYZ0RZ6C3BOCBD0DY,1412,080434.jpg,7,32,live
229,A2C7TMRC2QHTIW:3TEM0PF1Q74YFFYZ0RZ6C3BOCBD0DY,1796,116939.jpg,4,33,live
230,A2C7TMRC2QHTIW:3TEM0PF1Q74YFFYZ0RZ6C3BOCBD0DY,1923,075690.jpg,3,35,live
231,A2C7TMRC2QHTIW:3TEM0PF1Q74YFFYZ0RZ6C3BOCBD0DY,1675,131025.jpg,9,36,live
232,A2C7TMRC2QHTIW:3TEM0PF1Q74YFFYZ0RZ6C3BOCBD0DY,1024,134288.jpg,9,37,live
233,A2C7TMRC2QHTIW:3TEM0PF1Q74YFFYZ0RZ6C3BOCBD0DY,2075,126447.jpg,7,38,live
234,A2C7TMRC2QHTIW:3TEM0PF1Q74YFFYZ0RZ6C3BOCBD0DY,2402,108522.jpg,5,39,live
235,A2C7TMRC2QHTIW:3TEM0PF1Q74YFFYZ0RZ6C3BOCBD0DY,2540,051469.jpg,1,40,live
236,A2C7TMRC2QHTIW:3TEM0PF1Q74YFFYZ0RZ6C3BOCBD0DY,1747,051409.jpg,8,41,live
237,A2C7TMRC2QHTIW:3TEM0PF1Q74YFFYZ0RZ6C3BOCBD0DY,1546,016389.jpg,5,42,live
238,A2C7TMRC2QHTIW:3TEM0PF1Q74YFFYZ0RZ6C3BOCBD0DY,2276,015082.jpg,2,43,live
239,A2C7TMRC2QHTIW:3TEM0PF1Q74YFFYZ0RZ6C3BOCBD0DY,1532,131025.jpg,9,44,live
240,A2C7TMRC2QHTIW:3TEM0PF1Q74YFFYZ0RZ6C3BOCBD0DY,2512,120299.jpg,2,46,live
241,A2C7TMRC2QHTIW:3TEM0PF1Q74YFFYZ0RZ6C3BOCBD0DY,2147,049175.jpg,9,47,live
242,A2C7TMRC2QHTIW:3TEM0PF1Q74YFFYZ0RZ6C3BOCBD0DY,1098,042749.jpg,9,48,live
243,A2C7TMRC2QHTIW:3TEM0PF1Q74YFFYZ0RZ6C3BOCBD0DY,2395,109934.jpg,1,49,live
244,A2C7TMRC2QHTIW:3TEM0PF1Q74YFFYZ0RZ6C3BOCBD0DY,1523,183037.jpg,1,50,live
245,A2C7TMRC2QHTIW:3TEM0PF1Q74YFFYZ0RZ6C3BOCBD0DY,1827,007208.jpg,5,51,live
246,A2C7TMRC2QHTIW:3TEM0PF1Q74YFFYZ0RZ6C3BOCBD0DY,1882,012584.jpg,1,52,live
247,A2C7TMRC2QHTIW:3TEM0PF1Q74YFFYZ0RZ6C3BOCBD0DY,1739,027045.jpg,9,53,live
248,A2C7TMRC2QHTIW:3TEM0PF1Q74YFFYZ0RZ6C3BOCBD0DY,1139,002906.jpg,9,54,live
249,A2C7TMRC2QHTIW:3TEM0PF1Q74YFFYZ0RZ6C3BOCBD0DY,1002,137367.jpg,9,55,live
250,A2C7TMRC2QHTIW:3TEM0PF1Q74YFFYZ0RZ6C3BOCBD0DY,2418,122676.jpg,5,57,live
251,A2C7TMRC2QHTIW:3TEM0PF1Q74YFFYZ0RZ6C3BOCBD0DY,1690,127983.jpg,3,58,live
252,A2C7TMRC2QHTIW:3TEM0PF1Q74YFFYZ0RZ6C3BOCBD0DY,1763,139088.jpg,7,59,live
253,A2C7TMRC2QHTIW:3TEM0PF1Q74YFFYZ0RZ6C3BOCBD0DY,1924,078290.jpg,6,60,live
254,A2C7TMRC2QHTIW:3TEM0PF1Q74YFFYZ0RZ6C3BOCBD0DY,1963,148852.jpg,3,61,live
255,A2C7TMRC2QHTIW:3TEM0PF1Q74YFFYZ0RZ6C3BOCBD0DY,2044,142336.jpg,1,62,live
256,A2C7TMRC2QHTIW:3TEM0PF1Q74YFFYZ0RZ6C3BOCBD0DY,1794,018905.jpg,9,63,live
257,A2C7TMRC2QHTIW:3TEM0PF1Q74YFFYZ0RZ6C3BOCBD0DY,1771,048872.jpg,2,64,live
258,A2C7TMRC2QHTIW:3TEM0PF1Q74YFFYZ0RZ6C3BOCBD0DY,1692,129344.jpg,2,65,live
259,A2C7TMRC2QHTIW:3TEM0PF1Q74YFFYZ0RZ6C3BOCBD0DY,1283,038546.jpg,2,66,live
260,A2C7TMRC2QHTIW:3TEM0PF1Q74YFFYZ0RZ6C3BOCBD0DY,2157,182463.jpg,5,68,live
261,A2C7TMRC2QHTIW:3TEM0PF1Q74YFFYZ0RZ6C3BOCBD0DY,1796,064172.jpg,8,69,live
262,A2C7TMRC2QHTIW:3TEM0PF1Q74YFFYZ0RZ6C3BOCBD0DY,1988,065232.jpg,2,70,live
263,A2C7TMRC2QHTIW:3TEM0PF1Q74YFFYZ0RZ6C3BOCBD0DY,1763,049175.jpg,9,71,live
264,A2C7TMRC2QHTIW:3TEM0PF1Q74YFFYZ0RZ6C3BOCBD0DY,1900,022216.jpg,6,72,live
265,A2C7TMRC2QHTIW:3TEM0PF1Q74YFFYZ0RZ6C3BOCBD0DY,1235,153416.jpg,6,73,live
266,A2C7TMRC2QHTIW:3TEM0PF1Q74YFFYZ0RZ6C3BOCBD0DY,2139,061668.jpg,5,74,live
267,A2C7TMRC2QHTIW:3TEM0PF1Q74YFFYZ0RZ6C3BOCBD0DY,2086,163934.jpg,5,75,live
268,A2C7TMRC2QHTIW:3TEM0PF1Q74YFFYZ0RZ6C3BOCBD0DY,2090,031302.jpg,1,76,live
269,A2C7TMRC2QHTIW:3TEM0PF1Q74YFFYZ0RZ6C3BOCBD0DY,1580,023754.jpg,1,77,live
270,A2C7TMRC2QHTIW:3TEM0PF1Q74YFFYZ0RZ6C3BOCBD0DY,2086,171858.jpg,9,79,live
271,A2C7TMRC2QHTIW:3TEM0PF1Q74YFFYZ0RZ6C3BOCBD0DY,2159,094816.jpg,2,80,live
272,A2C7TMRC2QHTIW:3TEM0PF1Q74YFFYZ0RZ6C3BOCBD0DY,2518,057257.jpg,4,81,live
273,A2C7TMRC2QHTIW:3TEM0PF1Q74YFFYZ0RZ6C3BOCBD0DY,2038,108821.jpg,2,82,live
274,A2C7TMRC2QHTIW:3TEM0PF1Q74YFFYZ0RZ6C3BOCBD0DY,2564,051409.jpg,9,83,live
275,A2C7TMRC2QHTIW:3TEM0PF1Q74YFFYZ0RZ6C3BOCBD0DY,2447,028757.jpg,1,84,live
276,A2C7TMRC2QHTIW:3TEM0PF1Q74YFFYZ0RZ6C3BOCBD0DY,2238,132670.jpg,3,85,live
277,A2C7TMRC2QHTIW:3TEM0PF1Q74YFFYZ0RZ6C3BOCBD0DY,2057,007374.jpg,9,86,live
278,A2C7TMRC2QHTIW:3TEM0PF1Q74YFFYZ0RZ6C3BOCBD0DY,2301,136140.jpg,9,87,live
279,A2C7TMRC2QHTIW:3TEM0PF1Q74YFFYZ0RZ6C3BOCBD0DY,1887,007374.jpg,9,88,live
280,A2C7TMRC2QHTIW:3TEM0PF1Q74YFFYZ0RZ6C3BOCBD0DY,2314,148109.jpg,5,90,live
281,A2C7TMRC2QHTIW:3TEM0PF1Q74YFFYZ0RZ6C3BOCBD0DY,1332,078487.jpg,5,91,live
282,A2C7TMRC2QHTIW:3TEM0PF1Q74YFFYZ0RZ6C3BOCBD0DY,1626,059649.jpg,2,92,live
283,A2C7TMRC2QHTIW:3TEM0PF1Q74YFFYZ0RZ6C3BOCBD0DY,1531,003704.jpg,7,93,live
284,A2C7TMRC2QHTIW:3TEM0PF1Q74YFFYZ0RZ6C3BOCBD0DY,1883,095854.jpg,5,94,live
285,A2C7TMRC2QHTIW:3TEM0PF1Q74YFFYZ0RZ6C3BOCBD0DY,2083,104972.jpg,1,95,live
286,A2C7TMRC2QHTIW:3TEM0PF1Q74YFFYZ0RZ6C3BOCBD0DY,1579,128593.jpg,9,96,live
287,A2C7TMRC2QHTIW:3TEM0PF1Q74YFFYZ0RZ6C3BOCBD0DY,2067,147667.jpg,5,97,live
288,A2C7TMRC2QHTIW:3TEM0PF1Q74YFFYZ0RZ6C3BOCBD0DY,1596,181931.jpg,1,98,live
289,A2C7TMRC2QHTIW:3TEM0PF1Q74YFFYZ0RZ6C3BOCBD0DY,1556,043890.jpg,9,99,live
290,A2C7TMRC2QHTIW:3TEM0PF1Q74YFFYZ0RZ6C3BOCBD0DY,1682,105842.jpg,9,101,live
291,A2C7TMRC2QHTIW:3TEM0PF1Q74YFFYZ0RZ6C3BOCBD0DY,1219,020990.jpg,9,102,live
292,A2C7TMRC2QHTIW:3TEM0PF1Q74YFFYZ0RZ6C3BOCBD0DY,2243,163099.jpg,2,103,live
293,A2C7TMRC2QHTIW:3TEM0PF1Q74YFFYZ0RZ6C3BOCBD0DY,2002,161399.jpg,9,104,live
294,A2C7TMRC2QHTIW:3TEM0PF1Q74YFFYZ0RZ6C3BOCBD0DY,1076,111710.jpg,9,105,live
295,A2C7TMRC2QHTIW:3TEM0PF1Q74YFFYZ0RZ6C3BOCBD0DY,4127,018905.jpg,9,106,live
296,A2C7TMRC2QHTIW:3TEM0PF1Q74YFFYZ0RZ6C3BOCBD0DY,1705,059649.jpg,1,107,live
297,A2C7TMRC2QHTIW:3TEM0PF1Q74YFFYZ0RZ6C3BOCBD0DY,1678,049195.jpg,1,108,live
298,A2C7TMRC2QHTIW:3TEM0PF1Q74YFFYZ0RZ6C3BOCBD0DY,1979,139565.jpg,5,109,live
299,A2C7TMRC2QHTIW:3TEM0PF1Q74YFFYZ0RZ6C3BOCBD0DY,1620,143688.jpg,1,110,live
300,AOKV62XIGP3O8:379J5II41QNG4H1LLFW9G5LXFLPLEL,2449,064172.jpg,7,4,live
301,AOKV62XIGP3O8:379J5II41QNG4H1LLFW9G5LXFLPLEL,2217,153416.jpg,8,5,live
302,AOKV62XIGP3O8:379J5II41QNG4H1LLFW9G5LXFLPLEL,4377,049175.jpg,8,6,live
303,AOKV62XIGP3O8:379J5II41QNG4H1LLFW9G5LXFLPLEL,3627,131025.jpg,7,7,live
304,AOKV62XIGP3O8:379J5II41QNG4H1LLFW9G5LXFLPLEL,4147,111710.jpg,5,8,live
305,AOKV62XIGP3O8:379J5II41QNG4H1LLFW9G5LXFLPLEL,3300,139088.jpg,8,9,live
306,AOKV62XIGP3O8:379J5II41QNG4H1LLFW9G5LXFLPLEL,3260,051409.jpg,7,10,live
307,AOKV62XIGP3O8:379J5II41QNG4H1LLFW9G5LXFLPLEL,3227,078290.jpg,6,11,live
308,AOKV62XIGP3O8:379J5II41QNG4H1LLFW9G5LXFLPLEL,4384,139565.jpg,6,12,live
309,AOKV62XIGP3O8:379J5II41QNG4H1LLFW9G5LXFLPLEL,8352,057257.jpg,7,13,live
310,AOKV62XIGP3O8:379J5II41QNG4H1LLFW9G5LXFLPLEL,6631,003704.jpg,7,15,live
311,AOKV62XIGP3O8:379J5II41QNG4H1LLFW9G5LXFLPLEL,6947,015082.jpg,7,16,live
312,AOKV62XIGP3O8:379J5II41QNG4H1LLFW9G5LXFLPLEL,5044,149194.jpg,8,17,live
313,AOKV62XIGP3O8:379J5II41QNG4H1LLFW9G5LXFLPLEL,3259,183037.jpg,4,18,live
314,AOKV62XIGP3O8:379J5II41QNG4H1LLFW9G5LXFLPLEL,3316,139565.jpg,5,19,live
315,AOKV62XIGP3O8:379J5II41QNG4H1LLFW9G5LXFLPLEL,4299,161399.jpg,8,20,live
316,AOKV62XIGP3O8:379J5II41QNG4H1LLFW9G5LXFLPLEL,5083,104972.jpg,6,21,live
317,AOKV62XIGP3O8:379J5II41QNG4H1LLFW9G5LXFLPLEL,5227,148547.jpg,7,22,live
318,AOKV62XIGP3O8:379J5II41QNG4H1LLFW9G5LXFLPLEL,16635,163099.jpg,7,23,live
319,AOKV62XIGP3O8:379J5II41QNG4H1LLFW9G5LXFLPLEL,10685,007208.jpg,8,24,live
320,AOKV62XIGP3O8:379J5II41QNG4H1LLFW9G5LXFLPLEL,13594,126447.jpg,6,26,live
321,AOKV62XIGP3O8:379J5II41QNG4H1LLFW9G5LXFLPLEL,7173,023754.jpg,7,27,live
322,AOKV62XIGP3O8:379J5II41QNG4H1LLFW9G5LXFLPLEL,5724,049175.jpg,6,28,live
323,AOKV62XIGP3O8:379J5II41QNG4H1LLFW9G5LXFLPLEL,5755,027045.jpg,6,29,live
324,AOKV62XIGP3O8:379J5II41QNG4H1LLFW9G5LXFLPLEL,5546,042749.jpg,6,30,live
325,AOKV62XIGP3O8:379J5II41QNG4H1LLFW9G5LXFLPLEL,6339,105842.jpg,8,31,live
326,AOKV62XIGP3O8:379J5II41QNG4H1LLFW9G5LXFLPLEL,3684,171858.jpg,9,32,live
327,AOKV62XIGP3O8:379J5II41QNG4H1LLFW9G5LXFLPLEL,16075,049195.jpg,7,33,live
328,AOKV62XIGP3O8:379J5II41QNG4H1LLFW9G5LXFLPLEL,3707,011276.jpg,8,34,live
329,AOKV62XIGP3O8:379J5II41QNG4H1LLFW9G5LXFLPLEL,5173,027045.jpg,8,35,live
330,AOKV62XIGP3O8:379J5II41QNG4H1LLFW9G5LXFLPLEL,6792,007374.jpg,7,37,live
331,AOKV62XIGP3O8:379J5II41QNG4H1LLFW9G5LXFLPLEL,4163,182463.jpg,5,38,live
332,AOKV62XIGP3O8:379J5II41QNG4H1LLFW9G5LXFLPLEL,3461,075690.jpg,6,39,live
333,AOKV62XIGP3O8:379J5II41QNG4H1LLFW9G5LXFLPLEL,3996,120299.jpg,7,40,live
334,AOKV62XIGP3O8:379J5II41QNG4H1LLFW9G5LXFLPLEL,3499,007374.jpg,6,41,live
335,AOKV62XIGP3O8:379J5II41QNG4H1LLFW9G5LXFLPLEL,3331,181931.jpg,5,42,live
336,AOKV62XIGP3O8:379J5II41QNG4H1LLFW9G5LXFLPLEL,3931,143688.jpg,4,43,live
337,AOKV62XIGP3O8:379J5II41QNG4H1LLFW9G5LXFLPLEL,5108,020990.jpg,7,44,live
338,AOKV62XIGP3O8:379J5II41QNG4H1LLFW9G5LXFLPLEL,7243,095854.jpg,8,45,live
339,AOKV62XIGP3O8:379J5II41QNG4H1LLFW9G5LXFLPLEL,3203,002906.jpg,8,46,live
340,AOKV62XIGP3O8:379J5II41QNG4H1LLFW9G5LXFLPLEL,3614,101536.jpg,7,48,live
341,AOKV62XIGP3O8:379J5II41QNG4H1LLFW9G5LXFLPLEL,3594,147667.jpg,7,49,live
342,AOKV62XIGP3O8:379J5II41QNG4H1LLFW9G5LXFLPLEL,3003,016389.jpg,8,50,live
343,AOKV62XIGP3O8:379J5II41QNG4H1LLFW9G5LXFLPLEL,4227,122676.jpg,8,51,live
344,AOKV62XIGP3O8:379J5II41QNG4H1LLFW9G5LXFLPLEL,6739,012584.jpg,4,52,live
345,AOKV62XIGP3O8:379J5II41QNG4H1LLFW9G5LXFLPLEL,3411,128593.jpg,6,53,live
346,AOKV62XIGP3O8:379J5II41QNG4H1LLFW9G5LXFLPLEL,6106,014145.jpg,7,54,live
347,AOKV62XIGP3O8:379J5II41QNG4H1LLFW9G5LXFLPLEL,4220,028757.jpg,8,55,live
348,AOKV62XIGP3O8:379J5II41QNG4H1LLFW9G5LXFLPLEL,3275,078487.jpg,7,56,live
349,AOKV62XIGP3O8:379J5II41QNG4H1LLFW9G5LXFLPLEL,4516,022216.jpg,8,57,live
350,AOKV62XIGP3O8:379J5II41QNG4H1LLFW9G5LXFLPLEL,3785,061668.jpg,8,59,live
351,AOKV62XIGP3O8:379J5II41QNG4H1LLFW9G5LXFLPLEL,3491,137367.jpg,9,60,live
352,AOKV62XIGP3O8:379J5II41QNG4H1LLFW9G5LXFLPLEL,3158,048872.jpg,6,61,live
353,AOKV62XIGP3O8:379J5II41QNG4H1LLFW9G5LXFLPLEL,3769,109934.jpg,7,62,live
354,AOKV62XIGP3O8:379J5II41QNG4H1LLFW9G5LXFLPLEL,3851,059649.jpg,8,63,live
355,AOKV62XIGP3O8:379J5II41QNG4H1LLFW9G5LXFLPLEL,5011,122676.jpg,9,64,live
356,AOKV62XIGP3O8:379J5II41QNG4H1LLFW9G5LXFLPLEL,3500,129344.jpg,6,65,live
357,AOKV62XIGP3O8:379J5II41QNG4H1LLFW9G5LXFLPLEL,8448,108522.jpg,5,66,live
358,AOKV62XIGP3O8:379J5II41QNG4H1LLFW9G5LXFLPLEL,3350,131025.jpg,8,67,live
359,AOKV62XIGP3O8:379J5II41QNG4H1LLFW9G5LXFLPLEL,5036,132670.jpg,7,68,live
360,AOKV62XIGP3O8:379J5II41QNG4H1LLFW9G5LXFLPLEL,3101,136140.jpg,9,70,live
361,AOKV62XIGP3O8:379J5II41QNG4H1LLFW9G5LXFLPLEL,3131,042749.jpg,7,71,live
362,AOKV62XIGP3O8:379J5II41QNG4H1LLFW9G5LXFLPLEL,3508,163934.jpg,6,72,live
363,AOKV62XIGP3O8:379J5II41QNG4H1LLFW9G5LXFLPLEL,4626,051469.jpg,7,73,live
364,AOKV62XIGP3O8:379J5II41QNG4H1LLFW9G5LXFLPLEL,6020,134288.jpg,8,74,live
365,AOKV62XIGP3O8:379J5II41QNG4H1LLFW9G5LXFLPLEL,5170,018905.jpg,9,75,live
366,AOKV62XIGP3O8:379J5II41QNG4H1LLFW9G5LXFLPLEL,5083,082540.jpg,8,76,live
367,AOKV62XIGP3O8:379J5II41QNG4H1LLFW9G5LXFLPLEL,2915,148109.jpg,8,77,live
368,AOKV62XIGP3O8:379J5II41QNG4H1LLFW9G5LXFLPLEL,11355,018905.jpg,9,78,live
369,AOKV62XIGP3O8:379J5II41QNG4H1LLFW9G5LXFLPLEL,3691,056283.jpg,6,79,live
370,AOKV62XIGP3O8:379J5II41QNG4H1LLFW9G5LXFLPLEL,2963,182044.jpg,8,81,live
371,AOKV62XIGP3O8:379J5II41QNG4H1LLFW9G5LXFLPLEL,4713,127983.jpg,7,82,live
372,AOKV62XIGP3O8:379J5II41QNG4H1LLFW9G5LXFLPLEL,7494,038546.jpg,6,83,live
373,AOKV62XIGP3O8:379J5II41QNG4H1LLFW9G5LXFLPLEL,5500,053040.jpg,7,84,live
374,AOKV62XIGP3O8:379J5II41QNG4H1LLFW9G5LXFLPLEL,3268,148109.jpg,8,85,live
375,AOKV62XIGP3O8:379J5II41QNG4H1LLFW9G5LXFLPLEL,3786,159382.jpg,9,86,live
376,AOKV62XIGP3O8:379J5II41QNG4H1LLFW9G5LXFLPLEL,4992,043890.jpg,8,87,live
377,AOKV62XIGP3O8:379J5II41QNG4H1LLFW9G5LXFLPLEL,4068,142336.jpg,9,88,live
378,AOKV62XIGP3O8:379J5II41QNG4H1LLFW9G5LXFLPLEL,3451,095854.jpg,8,89,live
379,AOKV62XIGP3O8:379J5II41QNG4H1LLFW9G5LXFLPLEL,2804,016389.jpg,7,90,live
380,AOKV62XIGP3O8:379J5II41QNG4H1LLFW9G5LXFLPLEL,4376,116939.jpg,6,92,live
381,AOKV62XIGP3O8:379J5II41QNG4H1LLFW9G5LXFLPLEL,2803,171858.jpg,7,93,live
382,AOKV62XIGP3O8:379J5II41QNG4H1LLFW9G5LXFLPLEL,8068,105666.jpg,8,94,live
383,AOKV62XIGP3O8:379J5II41QNG4H1LLFW9G5LXFLPLEL,3203,108821.jpg,6,95,live
384,AOKV62XIGP3O8:379J5II41QNG4H1LLFW9G5LXFLPLEL,3307,062808.jpg,7,96,live
385,AOKV62XIGP3O8:379J5II41QNG4H1LLFW9G5LXFLPLEL,2979,080434.jpg,8,97,live
386,AOKV62XIGP3O8:379J5II41QNG4H1LLFW9G5LXFLPLEL,3132,122039.jpg,6,98,live
387,AOKV62XIGP3O8:379J5II41QNG4H1LLFW9G5LXFLPLEL,3668,023754.jpg,5,99,live
388,AOKV62XIGP3O8:379J5II41QNG4H1LLFW9G5LXFLPLEL,7099,182044.jpg,6,100,live
389,AOKV62XIGP3O8:379J5II41QNG4H1LLFW9G5LXFLPLEL,4250,094816.jpg,6,101,live
390,AOKV62XIGP3O8:379J5II41QNG4H1LLFW9G5LXFLPLEL,3251,031302.jpg,6,103,live
391,AOKV62XIGP3O8:379J5II41QNG4H1LLFW9G5LXFLPLEL,2909,059649.jpg,6,104,live
392,AOKV62XIGP3O8:379J5II41QNG4H1LLFW9G5LXFLPLEL,4136,148852.jpg,7,105,live
393,AOKV62XIGP3O8:379J5II41QNG4H1LLFW9G5LXFLPLEL,3298,051409.jpg,8,106,live
394,AOKV62XIGP3O8:379J5II41QNG4H1LLFW9G5LXFLPLEL,3195,111710.jpg,8,107,live
395,AOKV62XIGP3O8:379J5II41QNG4H1LLFW9G5LXFLPLEL,3556,124963.jpg,7,108,live
396,AOKV62XIGP3O8:379J5II41QNG4H1LLFW9G5LXFLPLEL,4842,065232.jpg,8,109,live
397,AOKV62XIGP3O8:379J5II41QNG4H1LLFW9G5LXFLPLEL,3979,163099.jpg,8,110,live
398,AOKV62XIGP3O8:379J5II41QNG4H1LLFW9G5LXFLPLEL,4266,003704.jpg,8,111,live
399,AOKV62XIGP3O8:379J5II41QNG4H1LLFW9G5LXFLPLEL,3652,078487.jpg,7,112,live
400,A2OD1KB2YCZ2SE:392CY0QWG3YWMEWMB6NJF3HELS1I4Y,7901,131025.jpg,9,2,live
401,A2OD1KB2YCZ2SE:392CY0QWG3YWMEWMB6NJF3HELS1I4Y,3005,038546.jpg,8,3,live
402,A2OD1KB2YCZ2SE:392CY0QWG3YWMEWMB6NJF3HELS1I4Y,6213,065232.jpg,9,4,live
403,A2OD1KB2YCZ2SE:392CY0QWG3YWMEWMB6NJF3HELS1I4Y,3087,111710.jpg,8,5,live
404,A2OD1KB2YCZ2SE:392CY0QWG3YWMEWMB6NJF3HELS1I4Y,4645,127983.jpg,9,6,live
405,A2OD1KB2YCZ2SE:392CY0QWG3YWMEWMB6NJF3HELS1I4Y,2902,028757.jpg,8,7,live
406,A2OD1KB2YCZ2SE:392CY0QWG3YWMEWMB6NJF3HELS1I4Y,3550,105842.jpg,9,8,live
407,A2OD1KB2YCZ2SE:392CY0QWG3YWMEWMB6NJF3HELS1I4Y,3398,018905.jpg,9,9,live
408,A2OD1KB2YCZ2SE:392CY0QWG3YWMEWMB6NJF3HELS1I4Y,4917,095854.jpg,9,10,live
409,A2OD1KB2YCZ2SE:392CY0QWG3YWMEWMB6NJF3HELS1I4Y,4301,002906.jpg,9,11,live
410,A2OD1KB2YCZ2SE:392CY0QWG3YWMEWMB6NJF3HELS1I4Y,2972,059649.jpg,8,13,live
411,A2OD1KB2YCZ2SE:392CY0QWG3YWMEWMB6NJF3HELS1I4Y,3670,147667.jpg,9,14,live
412,A2OD1KB2YCZ2SE:392CY0QWG3YWMEWMB6NJF3HELS1I4Y,4374,149194.jpg,8,15,live
413,A2OD1KB2YCZ2SE:392CY0QWG3YWMEWMB6NJF3HELS1I4Y,3253,016389.jpg,9,16,live
414,A2OD1KB2YCZ2SE:392CY0QWG3YWMEWMB6NJF3HELS1I4Y,3279,003704.jpg,8,17,live
415,A2OD1KB2YCZ2SE:392CY0QWG3YWMEWMB6NJF3HELS1I4Y,3447,163099.jpg,9,18,live
416,A2OD1KB2YCZ2SE:392CY0QWG3YWMEWMB6NJF3HELS1I4Y,4053,171858.jpg,8,19,live
417,A2OD1KB2YCZ2SE:392CY0QWG3YWMEWMB6NJF3HELS1I4Y,2455,136140.jpg,9,20,live
418,A2OD1KB2YCZ2SE:392CY0QWG3YWMEWMB6NJF3HELS1I4Y,3093,043890.jpg,8,21,live
419,A2OD1KB2YCZ2SE:392CY0QWG3YWMEWMB6NJF3HELS1I4Y,6703,016389.jpg,9,22,live
420,A2OD1KB2YCZ2SE:392CY0QWG3YWMEWMB6NJF3HELS1I4Y,2241,148547.jpg,8,24,live
421,A2OD1KB2YCZ2SE:392CY0QWG3YWMEWMB6NJF3HELS1I4Y,3902,061668.jpg,9,25,live
422,A2OD1KB2YCZ2SE:392CY0QWG3YWMEWMB6NJF3HELS1I4Y,2350,182044.jpg,8,26,live
423,A2OD1KB2YCZ2SE:392CY0QWG3YWMEWMB6NJF3HELS1I4Y,2671,018905.jpg,9,27,live
424,A2OD1KB2YCZ2SE:392CY0QWG3YWMEWMB6NJF3HELS1I4Y,4215,131025.jpg,8,28,live
425,A2OD1KB2YCZ2SE:392CY0QWG3YWMEWMB6NJF3HELS1I4Y,3661,124963.jpg,9,29,live
426,A2OD1KB2YCZ2SE:392CY0QWG3YWMEWMB6NJF3HELS1I4Y,3227,023754.jpg,8,30,live
427,A2OD1KB2YCZ2SE:392CY0QWG3YWMEWMB6NJF3HELS1I4Y,4103,163934.jpg,9,31,live
428,A2OD1KB2YCZ2SE:392CY0QWG3YWMEWMB6NJF3HELS1I4Y,2326,116939.jpg,8,32,live
429,A2OD1KB2YCZ2SE:392CY0QWG3YWMEWMB6NJF3HELS1I4Y,2478,181931.jpg,9,33,live
430,A2OD1KB2YCZ2SE:392CY0QWG3YWMEWMB6NJF3HELS1I4Y,2468,078487.jpg,8,35,live
431,A2OD1KB2YCZ2SE:392CY0QWG3YWMEWMB6NJF3HELS1I4Y,2135,163099.jpg,9,36,live
432,A2OD1KB2YCZ2SE:392CY0QWG3YWMEWMB6NJF3HELS1I4Y,4374,059649.jpg,8,37,live
433,A2OD1KB2YCZ2SE:392CY0QWG3YWMEWMB6NJF3HELS1I4Y,5558,014145.jpg,9,38,live
434,A2OD1KB2YCZ2SE:392CY0QWG3YWMEWMB6NJF3HELS1I4Y,3159,031302.jpg,8,39,live
435,A2OD1KB2YCZ2SE:392CY0QWG3YWMEWMB6NJF3HELS1I4Y,2567,122676.jpg,9,40,live
436,A2OD1KB2YCZ2SE:392CY0QWG3YWMEWMB6NJF3HELS1I4Y,4921,020990.jpg,8,41,live
437,A2OD1KB2YCZ2SE:392CY0QWG3YWMEWMB6NJF3HELS1I4Y,4918,051409.jpg,9,42,live
438,A2OD1KB2YCZ2SE:392CY0QWG3YWMEWMB6NJF3HELS1I4Y,2735,171858.jpg,8,43,live
439,A2OD1KB2YCZ2SE:392CY0QWG3YWMEWMB6NJF3HELS1I4Y,4438,143688.jpg,9,44,live
440,A2OD1KB2YCZ2SE:392CY0QWG3YWMEWMB6NJF3HELS1I4Y,3917,064172.jpg,8,46,live
441,A2OD1KB2YCZ2SE:392CY0QWG3YWMEWMB6NJF3HELS1I4Y,2998,094816.jpg,9,47,live
442,A2OD1KB2YCZ2SE:392CY0QWG3YWMEWMB6NJF3HELS1I4Y,2334,129344.jpg,8,48,live
443,A2OD1KB2YCZ2SE:392CY0QWG3YWMEWMB6NJF3HELS1I4Y,3470,111710.jpg,9,49,live
444,A2OD1KB2YCZ2SE:392CY0QWG3YWMEWMB6NJF3HELS1I4Y,3525,132670.jpg,8,50,live
445,A2OD1KB2YCZ2SE:392CY0QWG3YWMEWMB6NJF3HELS1I4Y,2494,057257.jpg,9,51,live
446,A2OD1KB2YCZ2SE:392CY0QWG3YWMEWMB6NJF3HELS1I4Y,2366,161399.jpg,8,52,live
447,A2OD1KB2YCZ2SE:392CY0QWG3YWMEWMB6NJF3HELS1I4Y,8373,153416.jpg,9,53,live
448,A2OD1KB2YCZ2SE:392CY0QWG3YWMEWMB6NJF3HELS1I4Y,4749,148109.jpg,8,54,live
449,A2OD1KB2YCZ2SE:392CY0QWG3YWMEWMB6NJF3HELS1I4Y,4247,075690.jpg,9,55,live
450,A2OD1KB2YCZ2SE:392CY0QWG3YWMEWMB6NJF3HELS1I4Y,2581,022216.jpg,8,57,live
451,A2OD1KB2YCZ2SE:392CY0QWG3YWMEWMB6NJF3HELS1I4Y,1909,015082.jpg,9,58,live
452,A2OD1KB2YCZ2SE:392CY0QWG3YWMEWMB6NJF3HELS1I4Y,1990,101536.jpg,8,59,live
453,A2OD1KB2YCZ2SE:392CY0QWG3YWMEWMB6NJF3HELS1I4Y,2536,003704.jpg,9,60,live
454,A2OD1KB2YCZ2SE:392CY0QWG3YWMEWMB6NJF3HELS1I4Y,2149,122039.jpg,8,61,live
455,A2OD1KB2YCZ2SE:392CY0QWG3YWMEWMB6NJF3HELS1I4Y,4261,007208.jpg,9,62,live
456,A2OD1KB2YCZ2SE:392CY0QWG3YWMEWMB6NJF3HELS1I4Y,4030,095854.jpg,8,63,live
457,A2OD1KB2YCZ2SE:392CY0QWG3YWMEWMB6NJF3HELS1I4Y,7431,134288.jpg,9,64,live
458,A2OD1KB2YCZ2SE:392CY0QWG3YWMEWMB6NJF3HELS1I4Y,2750,108522.jpg,8,65,live
459,A2OD1KB2YCZ2SE:392CY0QWG3YWMEWMB6NJF3HELS1I4Y,2007,056283.jpg,9,66,live
460,A2OD1KB2YCZ2SE:392CY0QWG3YWMEWMB6NJF3HELS1I4Y,5154,148852.jpg,8,68,live
461,A2OD1KB2YCZ2SE:392CY0QWG3YWMEWMB6NJF3HELS1I4Y,2757,105666.jpg,9,69,live
462,A2OD1KB2YCZ2SE:392CY0QWG3YWMEWMB6NJF3HELS1I4Y,2407,139088.jpg,8,70,live
463,A2OD1KB2YCZ2SE:392CY0QWG3YWMEWMB6NJF3HELS1I4Y,2215,128593.jpg,9,71,live
464,A2OD1KB2YCZ2SE:392CY0QWG3YWMEWMB6NJF3HELS1I4Y,3784,159382.jpg,8,72,live
465,A2OD1KB2YCZ2SE:392CY0QWG3YWMEWMB6NJF3HELS1I4Y,2447,148109.jpg,9,73,live
466,A2OD1KB2YCZ2SE:392CY0QWG3YWMEWMB6NJF3HELS1I4Y,2390,051469.jpg,8,74,live
467,A2OD1KB2YCZ2SE:392CY0QWG3YWMEWMB6NJF3HELS1I4Y,2269,122676.jpg,9,75,live
468,A2OD1KB2YCZ2SE:392CY0QWG3YWMEWMB6NJF3HELS1I4Y,9149,182463.jpg,8,76,live
469,A2OD1KB2YCZ2SE:392CY0QWG3YWMEWMB6NJF3HELS1I4Y,6054,027045.jpg,9,77,live
470,A2OD1KB2YCZ2SE:392CY0QWG3YWMEWMB6NJF3HELS1I4Y,3885,027045.jpg,8,79,live
471,A2OD1KB2YCZ2SE:392CY0QWG3YWMEWMB6NJF3HELS1I4Y,3254,062808.jpg,9,80,live
472,A2OD1KB2YCZ2SE:392CY0QWG3YWMEWMB6NJF3HELS1I4Y,3261,109934.jpg,8,81,live
473,A2OD1KB2YCZ2SE:392CY0QWG3YWMEWMB6NJF3HELS1I4Y,4302,048872.jpg,9,82,live
474,A2OD1KB2YCZ2SE:392CY0QWG3YWMEWMB6NJF3HELS1I4Y,3293,042749.jpg,8,83,live
475,A2OD1KB2YCZ2SE:392CY0QWG3YWMEWMB6NJF3HELS1I4Y,9013,120299.jpg,9,84,live
476,A2OD1KB2YCZ2SE:392CY0QWG3YWMEWMB6NJF3HELS1I4Y,2911,108821.jpg,9,85,live
477,A2OD1KB2YCZ2SE:392CY0QWG3YWMEWMB6NJF3HELS1I4Y,3003,183037.jpg,8,86,live
478,A2OD1KB2YCZ2SE:392CY0QWG3YWMEWMB6NJF3HELS1I4Y,2605,104972.jpg,9,87,live
479,A2OD1KB2YCZ2SE:392CY0QWG3YWMEWMB6NJF3HELS1I4Y,2462,082540.jpg,8,88,live
480,A2OD1KB2YCZ2SE:392CY0QWG3YWMEWMB6NJF3HELS1I4Y,4773,080434.jpg,9,90,live
481,A2OD1KB2YCZ2SE:392CY0QWG3YWMEWMB6NJF3HELS1I4Y,2876,137367.jpg,8,91,live
482,A2OD1KB2YCZ2SE:392CY0QWG3YWMEWMB6NJF3HELS1I4Y,2668,139565.jpg,9,92,live
483,A2OD1KB2YCZ2SE:392CY0QWG3YWMEWMB6NJF3HELS1I4Y,2775,023754.jpg,8,93,live
484,A2OD1KB2YCZ2SE:392CY0QWG3YWMEWMB6NJF3HELS1I4Y,2093,078290.jpg,9,94,live
485,A2OD1KB2YCZ2SE:392CY0QWG3YWMEWMB6NJF3HELS1I4Y,2119,139565.jpg,8,95,live
486,A2OD1KB2YCZ2SE:392CY0QWG3YWMEWMB6NJF3HELS1I4Y,2125,007374.jpg,9,96,live
487,A2OD1KB2YCZ2SE:392CY0QWG3YWMEWMB6NJF3HELS1I4Y,6750,007374.jpg,8,97,live
488,A2OD1KB2YCZ2SE:392CY0QWG3YWMEWMB6NJF3HELS1I4Y,4030,078487.jpg,9,98,live
489,A2OD1KB2YCZ2SE:392CY0QWG3YWMEWMB6NJF3HELS1I4Y,4736,042749.jpg,8,99,live
490,A2OD1KB2YCZ2SE:392CY0QWG3YWMEWMB6NJF3HELS1I4Y,5490,053040.jpg,9,101,live
491,A2OD1KB2YCZ2SE:392CY0QWG3YWMEWMB6NJF3HELS1I4Y,2430,049195.jpg,8,102,live
492,A2OD1KB2YCZ2SE:392CY0QWG3YWMEWMB6NJF3HELS1I4Y,4609,049175.jpg,9,103,live
493,A2OD1KB2YCZ2SE:392CY0QWG3YWMEWMB6NJF3HELS1I4Y,2360,051409.jpg,8,104,live
494,A2OD1KB2YCZ2SE:392CY0QWG3YWMEWMB6NJF3HELS1I4Y,2332,126447.jpg,9,105,live
495,A2OD1KB2YCZ2SE:392CY0QWG3YWMEWMB6NJF3HELS1I4Y,2167,011276.jpg,8,106,live
496,A2OD1KB2YCZ2SE:392CY0QWG3YWMEWMB6NJF3HELS1I4Y,2278,142336.jpg,9,107,live
497,A2OD1KB2YCZ2SE:392CY0QWG3YWMEWMB6NJF3HELS1I4Y,2869,049175.jpg,8,108,live
498,A2OD1KB2YCZ2SE:392CY0QWG3YWMEWMB6NJF3HELS1I4Y,2709,182044.jpg,9,109,live
499,A2OD1KB2YCZ2SE:392CY0QWG3YWMEWMB6NJF3HELS1I4Y,3254,012584.jpg,8,110,live
500,A3VRDQJNM1IC0E:3VE8AYVF8O4DVOHYM17BTIKR7M58F4,5411,028757.jpg,3,2,live
501,A3VRDQJNM1IC0E:3VE8AYVF8O4DVOHYM17BTIKR7M58F4,2728,131025.jpg,4,3,live
502,A3VRDQJNM1IC0E:3VE8AYVF8O4DVOHYM17BTIKR7M58F4,1908,011276.jpg,6,4,live
503,A3VRDQJNM1IC0E:3VE8AYVF8O4DVOHYM17BTIKR7M58F4,3077,126447.jpg,5,5,live
504,A3VRDQJNM1IC0E:3VE8AYVF8O4DVOHYM17BTIKR7M58F4,1906,122039.jpg,7,6,live
505,A3VRDQJNM1IC0E:3VE8AYVF8O4DVOHYM17BTIKR7M58F4,1951,056283.jpg,6,7,live
506,A3VRDQJNM1IC0E:3VE8AYVF8O4DVOHYM17BTIKR7M58F4,2146,014145.jpg,7,8,live
507,A3VRDQJNM1IC0E:3VE8AYVF8O4DVOHYM17BTIKR7M58F4,2134,116939.jpg,7,9,live
508,A3VRDQJNM1IC0E:3VE8AYVF8O4DVOHYM17BTIKR7M58F4,1870,105842.jpg,7,10,live
509,A3VRDQJNM1IC0E:3VE8AYVF8O4DVOHYM17BTIKR7M58F4,2151,171858.jpg,7,11,live
510,A3VRDQJNM1IC0E:3VE8AYVF8O4DVOHYM17BTIKR7M58F4,2416,059649.jpg,6,13,live
511,A3VRDQJNM1IC0E:3VE8AYVF8O4DVOHYM17BTIKR7M58F4,1786,109934.jpg,7,14,live
512,A3VRDQJNM1IC0E:3VE8AYVF8O4DVOHYM17BTIKR7M58F4,1609,132670.jpg,6,15,live
513,A3VRDQJNM1IC0E:3VE8AYVF8O4DVOHYM17BTIKR7M58F4,2868,082540.jpg,6,16,live
514,A3VRDQJNM1IC0E:3VE8AYVF8O4DVOHYM17BTIKR7M58F4,1935,105666.jpg,6,17,live
515,A3VRDQJNM1IC0E:3VE8AYVF8O4DVOHYM17BTIKR7M58F4,1735,018905.jpg,7,18,live
516,A3VRDQJNM1IC0E:3VE8AYVF8O4DVOHYM17BTIKR7M58F4,1638,042749.jpg,5,19,live
517,A3VRDQJNM1IC0E:3VE8AYVF8O4DVOHYM17BTIKR7M58F4,1922,002906.jpg,7,20,live
518,A3VRDQJNM1IC0E:3VE8AYVF8O4DVOHYM17BTIKR7M58F4,3417,139565.jpg,7,21,live
519,A3VRDQJNM1IC0E:3VE8AYVF8O4DVOHYM17BTIKR7M58F4,5274,181931.jpg,4,22,live
520,A3VRDQJNM1IC0E:3VE8AYVF8O4DVOHYM17BTIKR7M58F4,1856,095854.jpg,5,24,live
521,A3VRDQJNM1IC0E:3VE8AYVF8O4DVOHYM17BTIKR7M58F4,2296,122676.jpg,5,25,live
522,A3VRDQJNM1IC0E:3VE8AYVF8O4DVOHYM17BTIKR7M58F4,1633,061668.jpg,5,26,live
523,A3VRDQJNM1IC0E:3VE8AYVF8O4DVOHYM17BTIKR7M58F4,3200,131025.jpg,6,27,live
524,A3VRDQJNM1IC0E:3VE8AYVF8O4DVOHYM17BTIKR7M58F4,1965,147667.jpg,7,28,live
525,A3VRDQJNM1IC0E:3VE8AYVF8O4DVOHYM17BTIKR7M58F4,2050,171858.jpg,7,29,live
526,A3VRDQJNM1IC0E:3VE8AYVF8O4DVOHYM17BTIKR7M58F4,3219,027045.jpg,7,30,live
527,A3VRDQJNM1IC0E:3VE8AYVF8O4DVOHYM17BTIKR7M58F4,2687,007374.jpg,6,31,live
528,A3VRDQJNM1IC0E:3VE8AYVF8O4DVOHYM17BTIKR7M58F4,2303,128593.jpg,7,32,live
529,A3VRDQJNM1IC0E:3VE8AYVF8O4DVOHYM17BTIKR7M58F4,1884,049175.jpg,7,33,live
530,A3VRDQJNM1IC0E:3VE8AYVF8O4DVOHYM17BTIKR7M58F4,3240,027045.jpg,7,35,live
531,A3VRDQJNM1IC0E:3VE8AYVF8O4DVOHYM17BTIKR7M58F4,1889,159382.jpg,7,36,live
532,A3VRDQJNM1IC0E:3VE8AYVF8O4DVOHYM17BTIKR7M58F4,5450,057257.jpg,4,37,live
533,A3VRDQJNM1IC0E:3VE8AYVF8O4DVOHYM17BTIKR7M58F4,5339,163099.jpg,5,38,live
534,A3VRDQJNM1IC0E:3VE8AYVF8O4DVOHYM17BTIKR7M58F4,1969,143688.jpg,6,39,live
535,A3VRDQJNM1IC0E:3VE8AYVF8O4DVOHYM17BTIKR7M58F4,2034,053040.jpg,7,40,live
536,A3VRDQJNM1IC0E:3VE8AYVF8O4DVOHYM17BTIKR7M58F4,1946,120299.jpg,7,41,live
537,A3VRDQJNM1IC0E:3VE8AYVF8O4DVOHYM17BTIKR7M58F4,2464,043890.jpg,6,42,live
538,A3VRDQJNM1IC0E:3VE8AYVF8O4DVOHYM17BTIKR7M58F4,4367,136140.jpg,7,43,live
539,A3VRDQJNM1IC0E:3VE8AYVF8O4DVOHYM17BTIKR7M58F4,3763,051469.jpg,4,44,live
540,A3VRDQJNM1IC0E:3VE8AYVF8O4DVOHYM17BTIKR7M58F4,12612,161399.jpg,7,46,live
541,A3VRDQJNM1IC0E:3VE8AYVF8O4DVOHYM17BTIKR7M58F4,11256,182463.jpg,7,47,live
542,A3VRDQJNM1IC0E:3VE8AYVF8O4DVOHYM17BTIKR7M58F4,2661,127983.jpg,7,48,live
543,A3VRDQJNM1IC0E:3VE8AYVF8O4DVOHYM17BTIKR7M58F4,4081,142336.jpg,8,49,live
544,A3VRDQJNM1IC0E:3VE8AYVF8O4DVOHYM17BTIKR7M58F4,3598,065232.jpg,6,50,live
545,A3VRDQJNM1IC0E:3VE8AYVF8O4DVOHYM17BTIKR7M58F4,1752,134288.jpg,7,51,live
546,A3VRDQJNM1IC0E:3VE8AYVF8O4DVOHYM17BTIKR7M58F4,6957,148109.jpg,7,52,live
547,A3VRDQJNM1IC0E:3VE8AYVF8O4DVOHYM17BTIKR7M58F4,3028,111710.jpg,7,53,live
548,A3VRDQJNM1IC0E:3VE8AYVF8O4DVOHYM17BTIKR7M58F4,1748,059649.jpg,6,54,live
549,A3VRDQJNM1IC0E:3VE8AYVF8O4DVOHYM17BTIKR7M58F4,2159,031302.jpg,7,55,live
550,A3VRDQJNM1IC0E:3VE8AYVF8O4DVOHYM17BTIKR7M58F4,2146,122676.jpg,7,57,live
551,A3VRDQJNM1IC0E:3VE8AYVF8O4DVOHYM17BTIKR7M58F4,1872,111710.jpg,7,58,live
552,A3VRDQJNM1IC0E:3VE8AYVF8O4DVOHYM17BTIKR7M58F4,1619,095854.jpg,7,59,live
553,A3VRDQJNM1IC0E:3VE8AYVF8O4DVOHYM17BTIKR7M58F4,1749,137367.jpg,6,60,live
554,A3VRDQJNM1IC0E:3VE8AYVF8O4DVOHYM17BTIKR7M58F4,1893,139088.jpg,7,61,live
555,A3VRDQJNM1IC0E:3VE8AYVF8O4DVOHYM17BTIKR7M58F4,3137,108522.jpg,7,62,live
556,A3VRDQJNM1IC0E:3VE8AYVF8O4DVOHYM17BTIKR7M58F4,3200,042749.jpg,6,63,live
557,A3VRDQJNM1IC0E:3VE8AYVF8O4DVOHYM17BTIKR7M58F4,2490,007208.jpg,6,64,live
558,A3VRDQJNM1IC0E:3VE8AYVF8O4DVOHYM17BTIKR7M58F4,3151,080434.jpg,7,65,live
559,A3VRDQJNM1IC0E:3VE8AYVF8O4DVOHYM17BTIKR7M58F4,1803,051409.jpg,7,66,live
560,A3VRDQJNM1IC0E:3VE8AYVF8O4DVOHYM17BTIKR7M58F4,2036,108821.jpg,6,68,live
561,A3VRDQJNM1IC0E:3VE8AYVF8O4DVOHYM17BTIKR7M58F4,1753,149194.jpg,7,69,live
562,A3VRDQJNM1IC0E:3VE8AYVF8O4DVOHYM17BTIKR7M58F4,3283,020990.jpg,7,70,live
563,A3VRDQJNM1IC0E:3VE8AYVF8O4DVOHYM17BTIKR7M58F4,1725,051409.jpg,7,71,live
564,A3VRDQJNM1IC0E:3VE8AYVF8O4DVOHYM17BTIKR7M58F4,1827,012584.jpg,6,72,live
565,A3VRDQJNM1IC0E:3VE8AYVF8O4DVOHYM17BTIKR7M58F4,2708,148109.jpg,7,73,live
566,A3VRDQJNM1IC0E:3VE8AYVF8O4DVOHYM17BTIKR7M58F4,1833,015082.jpg,6,74,live
567,A3VRDQJNM1IC0E:3VE8AYVF8O4DVOHYM17BTIKR7M58F4,1658,003704.jpg,5,75,live
568,A3VRDQJNM1IC0E:3VE8AYVF8O4DVOHYM17BTIKR7M58F4,1908,062808.jpg,6,76,live
569,A3VRDQJNM1IC0E:3VE8AYVF8O4DVOHYM17BTIKR7M58F4,3950,148547.jpg,6,77,live
570,A3VRDQJNM1IC0E:3VE8AYVF8O4DVOHYM17BTIKR7M58F4,2443,101536.jpg,7,79,live
571,A3VRDQJNM1IC0E:3VE8AYVF8O4DVOHYM17BTIKR7M58F4,1958,182044.jpg,6,80,live
572,A3VRDQJNM1IC0E:3VE8AYVF8O4DVOHYM17BTIKR7M58F4,2048,023754.jpg,7,81,live
573,A3VRDQJNM1IC0E:3VE8AYVF8O4DVOHYM17BTIKR7M58F4,2021,163934.jpg,7,82,live
574,A3VRDQJNM1IC0E:3VE8AYVF8O4DVOHYM17BTIKR7M58F4,2278,148852.jpg,7,83,live
575,A3VRDQJNM1IC0E:3VE8AYVF8O4DVOHYM17BTIKR7M58F4,2143,007374.jpg,6,84,live
576,A3VRDQJNM1IC0E:3VE8AYVF8O4DVOHYM17BTIKR7M58F4,1843,022216.jpg,5,85,live
577,A3VRDQJNM1IC0E:3VE8AYVF8O4DVOHYM17BTIKR7M58F4,1997,183037.jpg,6,86,live
578,A3VRDQJNM1IC0E:3VE8AYVF8O4DVOHYM17BTIKR7M58F4,3252,003704.jpg,7,87,live
579,A3VRDQJNM1IC0E:3VE8AYVF8O4DVOHYM17BTIKR7M58F4,1930,078290.jpg,7,88,live
580,A3VRDQJNM1IC0E:3VE8AYVF8O4DVOHYM17BTIKR7M58F4,7875,104972.jpg,7,90,live
581,A3VRDQJNM1IC0E:3VE8AYVF8O4DVOHYM17BTIKR7M58F4,2451,049195.jpg,7,91,live
582,A3VRDQJNM1IC0E:3VE8AYVF8O4DVOHYM17BTIKR7M58F4,3618,023754.jpg,6,92,live
583,A3VRDQJNM1IC0E:3VE8AYVF8O4DVOHYM17BTIKR7M58F4,1821,124963.jpg,7,93,live
584,A3VRDQJNM1IC0E:3VE8AYVF8O4DVOHYM17BTIKR7M58F4,4485,163099.jpg,6,94,live
585,A3VRDQJNM1IC0E:3VE8AYVF8O4DVOHYM17BTIKR7M58F4,2484,153416.jpg,7,95,live
586,A3VRDQJNM1IC0E:3VE8AYVF8O4DVOHYM17BTIKR7M58F4,2112,049175.jpg,6,96,live
587,A3VRDQJNM1IC0E:3VE8AYVF8O4DVOHYM17BTIKR7M58F4,3275,182044.jpg,6,97,live
588,A3VRDQJNM1IC0E:3VE8AYVF8O4DVOHYM17BTIKR7M58F4,1806,075690.jpg,7,98,live
589,A3VRDQJNM1IC0E:3VE8AYVF8O4DVOHYM17BTIKR7M58F4,3924,078487.jpg,5,99,live
590,A3VRDQJNM1IC0E:3VE8AYVF8O4DVOHYM17BTIKR7M58F4,1830,016389.jpg,6,101,live
591,A3VRDQJNM1IC0E:3VE8AYVF8O4DVOHYM17BTIKR7M58F4,1933,094816.jpg,7,102,live
592,A3VRDQJNM1IC0E:3VE8AYVF8O4DVOHYM17BTIKR7M58F4,3750,078487.jpg,5,103,live
593,A3VRDQJNM1IC0E:3VE8AYVF8O4DVOHYM17BTIKR7M58F4,1878,048872.jpg,7,104,live
594,A3VRDQJNM1IC0E:3VE8AYVF8O4DVOHYM17BTIKR7M58F4,2042,038546.jpg,7,105,live
595,A3VRDQJNM1IC0E:3VE8AYVF8O4DVOHYM17BTIKR7M58F4,1899,064172.jpg,7,106,live
596,A3VRDQJNM1IC0E:3VE8AYVF8O4DVOHYM17BTIKR7M58F4,1937,129344.jpg,6,107,live
597,A3VRDQJNM1IC0E:3VE8AYVF8O4DVOHYM17BTIKR7M58F4,2560,139565.jpg,7,108,live
598,A3VRDQJNM1IC0E:3VE8AYVF8O4DVOHYM17BTIKR7M58F4,2809,016389.jpg,7,109,live
599,A3VRDQJNM1IC0E:3VE8AYVF8O4DVOHYM17BTIKR7M58F4,2145,018905.jpg,6,110,live
600,A208PEBUMRIFP6:323Q6SJS8KN6OZIRP51H6VDQA5VFHQ,15280,049175.jpg,7,2,live
601,A208PEBUMRIFP6:323Q6SJS8KN6OZIRP51H6VDQA5VFHQ,5003,163934.jpg,5,3,live
602,A208PEBUMRIFP6:323Q6SJS8KN6OZIRP51H6VDQA5VFHQ,3287,038546.jpg,6,4,live
603,A208PEBUMRIFP6:323Q6SJS8KN6OZIRP51H6VDQA5VFHQ,4585,051469.jpg,5,5,live
604,A208PEBUMRIFP6:323Q6SJS8KN6OZIRP51H6VDQA5VFHQ,4606,139565.jpg,7,6,live
605,A208PEBUMRIFP6:323Q6SJS8KN6OZIRP51H6VDQA5VFHQ,4677,023754.jpg,9,7,live
606,A208PEBUMRIFP6:323Q6SJS8KN6OZIRP51H6VDQA5VFHQ,4377,002906.jpg,6,8,live
607,A208PEBUMRIFP6:323Q6SJS8KN6OZIRP51H6VDQA5VFHQ,6351,161399.jpg,7,9,live
608,A208PEBUMRIFP6:323Q6SJS8KN6OZIRP51H6VDQA5VFHQ,4566,078487.jpg,7,10,live
609,A208PEBUMRIFP6:323Q6SJS8KN6OZIRP51H6VDQA5VFHQ,4110,171858.jpg,8,11,live
610,A208PEBUMRIFP6:323Q6SJS8KN6OZIRP51H6VDQA5VFHQ,3094,064172.jpg,7,13,live
611,A208PEBUMRIFP6:323Q6SJS8KN6OZIRP51H6VDQA5VFHQ,3513,059649.jpg,8,14,live
612,A208PEBUMRIFP6:323Q6SJS8KN6OZIRP51H6VDQA5VFHQ,3734,147667.jpg,7,15,live
613,A208PEBUMRIFP6:323Q6SJS8KN6OZIRP51H6VDQA5VFHQ,4497,148109.jpg,7,16,live
614,A208PEBUMRIFP6:323Q6SJS8KN6OZIRP51H6VDQA5VFHQ,3517,105842.jpg,6,17,live
615,A208PEBUMRIFP6:323Q6SJS8KN6OZIRP51H6VDQA5VFHQ,3036,122039.jpg,7,18,live
616,A208PEBUMRIFP6:323Q6SJS8KN6OZIRP51H6VDQA5VFHQ,3097,183037.jpg,6,19,live
617,A208PEBUMRIFP6:323Q6SJS8KN6OZIRP51H6VDQA5VFHQ,2796,159382.jpg,7,20,live
618,A208PEBUMRIFP6:323Q6SJS8KN6OZIRP51H6VDQA5VFHQ,12417,007208.jpg,8,21,live
619,A208PEBUMRIFP6:323Q6SJS8KN6OZIRP51H6VDQA5VFHQ,4927,049195.jpg,7,22,live
620,A208PEBUMRIFP6:323Q6SJS8KN6OZIRP51H6VDQA5VFHQ,3493,028757.jpg,7,24,live
621,A208PEBUMRIFP6:323Q6SJS8KN6OZIRP51H6VDQA5VFHQ,3908,182463.jpg,8,25,live
622,A208PEBUMRIFP6:323Q6SJS8KN6OZIRP51H6VDQA5VFHQ,4558,043890.jpg,7,26,live
623,A208PEBUMRIFP6:323Q6SJS8KN6OZIRP51H6VDQA5VFHQ,5707,015082.jpg,7,27,live
624,A208PEBUMRIFP6:323Q6SJS8KN6OZIRP51H6VDQA5VFHQ,3490,059649.jpg,7,28,live
625,A208PEBUMRIFP6:323Q6SJS8KN6OZIRP51H6VDQA5VFHQ,4839,126447.jpg,6,29,live
626,A208PEBUMRIFP6:323Q6SJS8KN6OZIRP51H6VDQA5VFHQ,3958,018905.jpg,7,30,live
627,A208PEBUMRIFP6:323Q6SJS8KN6OZIRP51H6VDQA5VFHQ,4697,061668.jpg,7,31,live
628,A208PEBUMRIFP6:323Q6SJS8KN6OZIRP51H6VDQA5VFHQ,5057,108522.jpg,8,32,live
629,A208PEBUMRIFP6:323Q6SJS8KN6OZIRP51H6VDQA5VFHQ,3680,131025.jpg,7,33,live
630,A208PEBUMRIFP6:323Q6SJS8KN6OZIRP51H6VDQA5VFHQ,4124,048872.jpg,8,35,live
631,A208PEBUMRIFP6:323Q6SJS8KN6OZIRP51H6VDQA5VFHQ,3718,122676.jpg,7,36,live
632,A208PEBUMRIFP6:323Q6SJS8KN6OZIRP51H6VDQA5VFHQ,3577,018905.jpg,8,37,live
633,A208PEBUMRIFP6:323Q6SJS8KN6OZIRP51H6VDQA5VFHQ,4178,171858.jpg,7,38,live
634,A208PEBUMRIFP6:323Q6SJS8KN6OZIRP51H6VDQA5VFHQ,3705,014145.jpg,6,39,live
635,A208PEBUMRIFP6:323Q6SJS8KN6OZIRP51H6VDQA5VFHQ,3195,136140.jpg,7,40,live
636,A208PEBUMRIFP6:323Q6SJS8KN6OZIRP51H6VDQA5VFHQ,3324,042749.jpg,6,41,live
637,A208PEBUMRIFP6:323Q6SJS8KN6OZIRP51H6VDQA5VFHQ,5640,129344.jpg,7,42,live
638,A208PEBUMRIFP6:323Q6SJS8KN6OZIRP51H6VDQA5VFHQ,3587,163099.jpg,6,43,live
639,A208PEBUMRIFP6:323Q6SJS8KN6OZIRP51H6VDQA5VFHQ,2926,128593.jpg,7,44,live
640,A208PEBUMRIFP6:323Q6SJS8KN6OZIRP51H6VDQA5VFHQ,6076,094816.jpg,8,46,live
641,A208PEBUMRIFP6:323Q6SJS8KN6OZIRP51H6VDQA5VFHQ,4034,075690.jpg,7,47,live
642,A208PEBUMRIFP6:323Q6SJS8KN6OZIRP51H6VDQA5VFHQ,4686,111710.jpg,7,48,live
643,A208PEBUMRIFP6:323Q6SJS8KN6OZIRP51H6VDQA5VFHQ,3502,111710.jpg,7,49,live
644,A208PEBUMRIFP6:323Q6SJS8KN6OZIRP51H6VDQA5VFHQ,3717,082540.jpg,8,50,live
645,A208PEBUMRIFP6:323Q6SJS8KN6OZIRP51H6VDQA5VFHQ,3758,031302.jpg,7,51,live
646,A208PEBUMRIFP6:323Q6SJS8KN6OZIRP51H6VDQA5VFHQ,3527,011276.jpg,6,52,live
647,A208PEBUMRIFP6:323Q6SJS8KN6OZIRP51H6VDQA5VFHQ,3705,134288.jpg,7,53,live
648,A208PEBUMRIFP6:323Q6SJS8KN6OZIRP51H6VDQA5VFHQ,3274,104972.jpg,6,54,live
649,A208PEBUMRIFP6:323Q6SJS8KN6OZIRP51H6VDQA5VFHQ,3668,139088.jpg,6,55,live
650,A208PEBUMRIFP6:323Q6SJS8KN6OZIRP51H6VDQA5VFHQ,4045,139565.jpg,7,57,live
651,A208PEBUMRIFP6:323Q6SJS8KN6OZIRP51H6VDQA5VFHQ,5463,105666.jpg,6,58,live
652,A208PEBUMRIFP6:323Q6SJS8KN6OZIRP51H6VDQA5VFHQ,3465,051409.jpg,7,59,live
653,A208PEBUMRIFP6:323Q6SJS8KN6OZIRP51H6VDQA5VFHQ,4116,127983.jpg,7,60,live
654,A208PEBUMRIFP6:323Q6SJS8KN6OZIRP51H6VDQA5VFHQ,3979,016389.jpg,8,61,live
655,A208PEBUMRIFP6:323Q6SJS8KN6OZIRP51H6VDQA5VFHQ,3596,042749.jpg,7,62,live
656,A208PEBUMRIFP6:323Q6SJS8KN6OZIRP51H6VDQA5VFHQ,3063,124963.jpg,7,63,live
657,A208PEBUMRIFP6:323Q6SJS8KN6OZIRP51H6VDQA5VFHQ,2852,142336.jpg,6,64,live
658,A208PEBUMRIFP6:323Q6SJS8KN6OZIRP51H6VDQA5VFHQ,3289,003704.jpg,7,65,live
659,A208PEBUMRIFP6:323Q6SJS8KN6OZIRP51H6VDQA5VFHQ,3716,049175.jpg,7,66,live
660,A208PEBUMRIFP6:323Q6SJS8KN6OZIRP51H6VDQA5VFHQ,4671,027045.jpg,7,68,live
661,A208PEBUMRIFP6:323Q6SJS8KN6OZIRP51H6VDQA5VFHQ,3944,007374.jpg,6,69,live
662,A208PEBUMRIFP6:323Q6SJS8KN6OZIRP51H6VDQA5VFHQ,4563,057257.jpg,7,70,live
663,A208PEBUMRIFP6:323Q6SJS8KN6OZIRP51H6VDQA5VFHQ,4224,020990.jpg,7,71,live
664,A208PEBUMRIFP6:323Q6SJS8KN6OZIRP51H6VDQA5VFHQ,3584,148852.jpg,8,72,live
665,A208PEBUMRIFP6:323Q6SJS8KN6OZIRP51H6VDQA5VFHQ,3325,078290.jpg,6,73,live
666,A208PEBUMRIFP6:323Q6SJS8KN6OZIRP51H6VDQA5VFHQ,3325,108821.jpg,7,74,live
667,A208PEBUMRIFP6:323Q6SJS8KN6OZIRP51H6VDQA5VFHQ,3594,182044.jpg,7,75,live
668,A208PEBUMRIFP6:323Q6SJS8KN6OZIRP51H6VDQA5VFHQ,3459,137367.jpg,6,76,live
669,A208PEBUMRIFP6:323Q6SJS8KN6OZIRP51H6VDQA5VFHQ,2947,062808.jpg,7,77,live
670,A208PEBUMRIFP6:323Q6SJS8KN6OZIRP51H6VDQA5VFHQ,3687,122676.jpg,7,79,live
671,A208PEBUMRIFP6:323Q6SJS8KN6OZIRP51H6VDQA5VFHQ,3229,012584.jpg,8,80,live
672,A208PEBUMRIFP6:323Q6SJS8KN6OZIRP51H6VDQA5VFHQ,3177,007374.jpg,7,81,live
673,A208PEBUMRIFP6:323Q6SJS8KN6OZIRP51H6VDQA5VFHQ,3118,053040.jpg,8,82,live
674,A208PEBUMRIFP6:323Q6SJS8KN6OZIRP51H6VDQA5VFHQ,3267,095854.jpg,7,83,live
675,A208PEBUMRIFP6:323Q6SJS8KN6OZIRP51H6VDQA5VFHQ,3052,132670.jpg,6,84,live
676,A208PEBUMRIFP6:323Q6SJS8KN6OZIRP51H6VDQA5VFHQ,3049,078487.jpg,7,85,live
677,A208PEBUMRIFP6:323Q6SJS8KN6OZIRP51H6VDQA5VFHQ,3466,016389.jpg,8,86,live
678,A208PEBUMRIFP6:323Q6SJS8KN6OZIRP51H6VDQA5VFHQ,3176,153416.jpg,7,87,live
679,A208PEBUMRIFP6:323Q6SJS8KN6OZIRP51H6VDQA5VFHQ,3966,163099.jpg,8,88,live
680,A208PEBUMRIFP6:323Q6SJS8KN6OZIRP51H6VDQA5VFHQ,2874,003704.jpg,7,90,live
681,A208PEBUMRIFP6:323Q6SJS8KN6OZIRP51H6VDQA5VFHQ,3060,080434.jpg,6,91,live
682,A208PEBUMRIFP6:323Q6SJS8KN6OZIRP51H6VDQA5VFHQ,3713,023754.jpg,7,92,live
683,A208PEBUMRIFP6:323Q6SJS8KN6OZIRP51H6VDQA5VFHQ,3887,056283.jpg,8,93,live
684,A208PEBUMRIFP6:323Q6SJS8KN6OZIRP51H6VDQA5VFHQ,2815,109934.jpg,6,94,live
685,A208PEBUMRIFP6:323Q6SJS8KN6OZIRP51H6VDQA5VFHQ,2989,131025.jpg,7,95,live
686,A208PEBUMRIFP6:323Q6SJS8KN6OZIRP51H6VDQA5VFHQ,3266,182044.jpg,8,96,live
687,A208PEBUMRIFP6:323Q6SJS8KN6OZIRP51H6VDQA5VFHQ,3514,120299.jpg,6,97,live
688,A208PEBUMRIFP6:323Q6SJS8KN6OZIRP51H6VDQA5VFHQ,2759,051409.jpg,7,98,live
689,A208PEBUMRIFP6:323Q6SJS8KN6OZIRP51H6VDQA5VFHQ,2827,143688.jpg,6,99,live
690,A208PEBUMRIFP6:323Q6SJS8KN6OZIRP51H6VDQA5VFHQ,3783,027045.jpg,7,101,live
691,A208PEBUMRIFP6:323Q6SJS8KN6OZIRP51H6VDQA5VFHQ,6907,181931.jpg,8,102,live
692,A208PEBUMRIFP6:323Q6SJS8KN6OZIRP51H6VDQA5VFHQ,4422,149194.jpg,7,103,live
693,A208PEBUMRIFP6:323Q6SJS8KN6OZIRP51H6VDQA5VFHQ,4515,101536.jpg,6,104,live
694,A208PEBUMRIFP6:323Q6SJS8KN6OZIRP51H6VDQA5VFHQ,3465,095854.jpg,7,105,live
695,A208PEBUMRIFP6:323Q6SJS8KN6OZIRP51H6VDQA5VFHQ,3693,116939.jpg,8,106,live
696,A208PEBUMRIFP6:323Q6SJS8KN6OZIRP51H6VDQA5VFHQ,3378,065232.jpg,7,107,live
697,A208PEBUMRIFP6:323Q6SJS8KN6OZIRP51H6VDQA5VFHQ,5766,148109.jpg,7,108,live
698,A208PEBUMRIFP6:323Q6SJS8KN6OZIRP51H6VDQA5VFHQ,3720,148547.jpg,7,109,live
699,A208PEBUMRIFP6:323Q6SJS8KN6OZIRP51H6VDQA5VFHQ,3351,022216.jpg,7,110,live
700,A10JXOU89D5RXR:3LPW2N6LKV9JROVMJSV73YB3FKO5U5,15308,139565.jpg,6,2,live
701,A10JXOU89D5RXR:3LPW2N6LKV9JROVMJSV73YB3FKO5U5,9854,095854.jpg,7,3,live
702,A10JXOU89D5RXR:3LPW2N6LKV9JROVMJSV73YB3FKO5U5,12652,051409.jpg,9,4,live
703,A10JXOU89D5RXR:3LPW2N6LKV9JROVMJSV73YB3FKO5U5,9415,134288.jpg,6,5,live
704,A10JXOU89D5RXR:3LPW2N6LKV9JROVMJSV73YB3FKO5U5,9651,149194.jpg,4,6,live
705,A10JXOU89D5RXR:3LPW2N6LKV9JROVMJSV73YB3FKO5U5,6884,049175.jpg,3,7,live
706,A10JXOU89D5RXR:3LPW2N6LKV9JROVMJSV73YB3FKO5U5,6834,131025.jpg,8,8,live
707,A10JXOU89D5RXR:3LPW2N6LKV9JROVMJSV73YB3FKO5U5,6927,108821.jpg,2,9,live
708,A10JXOU89D5RXR:3LPW2N6LKV9JROVMJSV73YB3FKO5U5,11534,120299.jpg,4,10,live
709,A10JXOU89D5RXR:3LPW2N6LKV9JROVMJSV73YB3FKO5U5,5522,163099.jpg,3,11,live
710,A10JXOU89D5RXR:3LPW2N6LKV9JROVMJSV73YB3FKO5U5,7256,015082.jpg,3,13,live
711,A10JXOU89D5RXR:3LPW2N6LKV9JROVMJSV73YB3FKO5U5,11641,159382.jpg,4,14,live
712,A10JXOU89D5RXR:3LPW2N6LKV9JROVMJSV73YB3FKO5U5,7393,136140.jpg,7,15,live
713,A10JXOU89D5RXR:3LPW2N6LKV9JROVMJSV73YB3FKO5U5,6338,104972.jpg,2,16,live
714,A10JXOU89D5RXR:3LPW2N6LKV9JROVMJSV73YB3FKO5U5,4687,148547.jpg,5,17,live
715,A10JXOU89D5RXR:3LPW2N6LKV9JROVMJSV73YB3FKO5U5,5027,007374.jpg,8,18,live
716,A10JXOU89D5RXR:3LPW2N6LKV9JROVMJSV73YB3FKO5U5,5381,061668.jpg,5,19,live
717,A10JXOU89D5RXR:3LPW2N6LKV9JROVMJSV73YB3FKO5U5,11328,031302.jpg,6,20,live
718,A10JXOU89D5RXR:3LPW2N6LKV9JROVMJSV73YB3FKO5U5,7668,126447.jpg,7,21,live
719,A10JXOU89D5RXR:3LPW2N6LKV9JROVMJSV73YB3FKO5U5,5560,043890.jpg,8,22,live
720,A10JXOU89D5RXR:3LPW2N6LKV9JROVMJSV73YB3FKO5U5,5539,027045.jpg,6,24,live
721,A10JXOU89D5RXR:3LPW2N6LKV9JROVMJSV73YB3FKO5U5,8359,116939.jpg,4,25,live
722,A10JXOU89D5RXR:3LPW2N6LKV9JROVMJSV73YB3FKO5U5,6698,082540.jpg,7,26,live
723,A10JXOU89D5RXR:3LPW2N6LKV9JROVMJSV73YB3FKO5U5,6269,171858.jpg,9,27,live
724,A10JXOU89D5RXR:3LPW2N6LKV9JROVMJSV73YB3FKO5U5,6034,038546.jpg,3,28,live
725,A10JXOU89D5RXR:3LPW2N6LKV9JROVMJSV73YB3FKO5U5,4877,163099.jpg,4,29,live
726,A10JXOU89D5RXR:3LPW2N6LKV9JROVMJSV73YB3FKO5U5,5115,059649.jpg,5,30,live
727,A10JXOU89D5RXR:3LPW2N6LKV9JROVMJSV73YB3FKO5U5,6478,147667.jpg,2,31,live
728,A10JXOU89D5RXR:3LPW2N6LKV9JROVMJSV73YB3FKO5U5,7260,143688.jpg,7,32,live
729,A10JXOU89D5RXR:3LPW2N6LKV9JROVMJSV73YB3FKO5U5,7896,065232.jpg,1,33,live
730,A10JXOU89D5RXR:3LPW2N6LKV9JROVMJSV73YB3FKO5U5,7566,062808.jpg,8,35,live
731,A10JXOU89D5RXR:3LPW2N6LKV9JROVMJSV73YB3FKO5U5,4577,049175.jpg,6,36,live
732,A10JXOU89D5RXR:3LPW2N6LKV9JROVMJSV73YB3FKO5U5,4523,051409.jpg,8,37,live
733,A10JXOU89D5RXR:3LPW2N6LKV9JROVMJSV73YB3FKO5U5,6542,148852.jpg,3,38,live
734,A10JXOU89D5RXR:3LPW2N6LKV9JROVMJSV73YB3FKO5U5,5607,022216.jpg,8,39,live
735,A10JXOU89D5RXR:3LPW2N6LKV9JROVMJSV73YB3FKO5U5,5908,057257.jpg,5,40,live
736,A10JXOU89D5RXR:3LPW2N6LKV9JROVMJSV73YB3FKO5U5,4973,182044.jpg,5,41,live
737,A10JXOU89D5RXR:3LPW2N6LKV9JROVMJSV73YB3FKO5U5,6175,007208.jpg,8,42,live
738,A10JXOU89D5RXR:3LPW2N6LKV9JROVMJSV73YB3FKO5U5,5578,016389.jpg,8,43,live
739,A10JXOU89D5RXR:3LPW2N6LKV9JROVMJSV73YB3FKO5U5,5039,124963.jpg,2,44,live
740,A10JXOU89D5RXR:3LPW2N6LKV9JROVMJSV73YB3FKO5U5,4011,182044.jpg,5,46,live
741,A10JXOU89D5RXR:3LPW2N6LKV9JROVMJSV73YB3FKO5U5,5141,075690.jpg,2,47,live
742,A10JXOU89D5RXR:3LPW2N6LKV9JROVMJSV73YB3FKO5U5,5535,129344.jpg,4,48,live
743,A10JXOU89D5RXR:3LPW2N6LKV9JROVMJSV73YB3FKO5U5,7091,183037.jpg,3,49,live
744,A10JXOU89D5RXR:3LPW2N6LKV9JROVMJSV73YB3FKO5U5,5223,048872.jpg,5,50,live
745,A10JXOU89D5RXR:3LPW2N6LKV9JROVMJSV73YB3FKO5U5,8364,142336.jpg,2,51,live
746,A10JXOU89D5RXR:3LPW2N6LKV9JROVMJSV73YB3FKO5U5,5085,020990.jpg,8,52,live
747,A10JXOU89D5RXR:3LPW2N6LKV9JROVMJSV73YB3FKO5U5,5690,042749.jpg,8,53,live
748,A10JXOU89D5RXR:3LPW2N6LKV9JROVMJSV73YB3FKO5U5,5831,127983.jpg,4,54,live
749,A10JXOU89D5RXR:3LPW2N6LKV9JROVMJSV73YB3FKO5U5,5314,109934.jpg,4,55,live
750,A10JXOU89D5RXR:3LPW2N6LKV9JROVMJSV73YB3FKO5U5,5510,012584.jpg,3,57,live
751,A10JXOU89D5RXR:3LPW2N6LKV9JROVMJSV73YB3FKO5U5,4919,002906.jpg,5,58,live
752,A10JXOU89D5RXR:3LPW2N6LKV9JROVMJSV73YB3FKO5U5,4997,094816.jpg,4,59,live
753,A10JXOU89D5RXR:3LPW2N6LKV9JROVMJSV73YB3FKO5U5,5107,078290.jpg,9,60,live
754,A10JXOU89D5RXR:3LPW2N6LKV9JROVMJSV73YB3FKO5U5,9911,139565.jpg,7,61,live
755,A10JXOU89D5RXR:3LPW2N6LKV9JROVMJSV73YB3FKO5U5,7893,137367.jpg,7,62,live
756,A10JXOU89D5RXR:3LPW2N6LKV9JROVMJSV73YB3FKO5U5,5107,181931.jpg,2,63,live
757,A10JXOU89D5RXR:3LPW2N6LKV9JROVMJSV73YB3FKO5U5,4253,016389.jpg,8,64,live
758,A10JXOU89D5RXR:3LPW2N6LKV9JROVMJSV73YB3FKO5U5,5537,049195.jpg,5,65,live
759,A10JXOU89D5RXR:3LPW2N6LKV9JROVMJSV73YB3FKO5U5,5367,059649.jpg,3,66,live
760,A10JXOU89D5RXR:3LPW2N6LKV9JROVMJSV73YB3FKO5U5,5545,014145.jpg,2,68,live
761,A10JXOU89D5RXR:3LPW2N6LKV9JROVMJSV73YB3FKO5U5,5056,105842.jpg,8,69,live
762,A10JXOU89D5RXR:3LPW2N6LKV9JROVMJSV73YB3FKO5U5,5035,018905.jpg,9,70,live
763,A10JXOU89D5RXR:3LPW2N6LKV9JROVMJSV73YB3FKO5U5,6525,042749.jpg,9,71,live
764,A10JXOU89D5RXR:3LPW2N6LKV9JROVMJSV73YB3FKO5U5,6900,139088.jpg,7,72,live
765,A10JXOU89D5RXR:3LPW2N6LKV9JROVMJSV73YB3FKO5U5,5140,023754.jpg,2,73,live
766,A10JXOU89D5RXR:3LPW2N6LKV9JROVMJSV73YB3FKO5U5,5032,064172.jpg,8,74,live
767,A10JXOU89D5RXR:3LPW2N6LKV9JROVMJSV73YB3FKO5U5,5155,078487.jpg,4,75,live
768,A10JXOU89D5RXR:3LPW2N6LKV9JROVMJSV73YB3FKO5U5,4034,007374.jpg,9,76,live
769,A10JXOU89D5RXR:3LPW2N6LKV9JROVMJSV73YB3FKO5U5,5928,153416.jpg,8,77,live
770,A10JXOU89D5RXR:3LPW2N6LKV9JROVMJSV73YB3FKO5U5,4993,011276.jpg,6,79,live
771,A10JXOU89D5RXR:3LPW2N6LKV9JROVMJSV73YB3FKO5U5,4338,053040.jpg,2,80,live
772,A10JXOU89D5RXR:3LPW2N6LKV9JROVMJSV73YB3FKO5U5,6548,108522.jpg,3,81,live
773,A10JXOU89D5RXR:3LPW2N6LKV9JROVMJSV73YB3FKO5U5,3948,171858.jpg,8,82,live
774,A10JXOU89D5RXR:3LPW2N6LKV9JROVMJSV73YB3FKO5U5,6660,122039.jpg,2,83,live
775,A10JXOU89D5RXR:3LPW2N6LKV9JROVMJSV73YB3FKO5U5,6514,028757.jpg,4,84,live
776,A10JXOU89D5RXR:3LPW2N6LKV9JROVMJSV73YB3FKO5U5,4498,080434.jpg,8,85,live
777,A10JXOU89D5RXR:3LPW2N6LKV9JROVMJSV73YB3FKO5U5,4694,148109.jpg,8,86,live
778,A10JXOU89D5RXR:3LPW2N6LKV9JROVMJSV73YB3FKO5U5,4259,027045.jpg,5,87,live
779,A10JXOU89D5RXR:3LPW2N6LKV9JROVMJSV73YB3FKO5U5,6728,101536.jpg,3,88,live
780,A10JXOU89D5RXR:3LPW2N6LKV9JROVMJSV73YB3FKO5U5,4663,023754.jpg,2,90,live
781,A10JXOU89D5RXR:3LPW2N6LKV9JROVMJSV73YB3FKO5U5,5322,163934.jpg,7,91,live
782,A10JXOU89D5RXR:3LPW2N6LKV9JROVMJSV73YB3FKO5U5,5333,132670.jpg,3,92,live
783,A10JXOU89D5RXR:3LPW2N6LKV9JROVMJSV73YB3FKO5U5,5612,122676.jpg,5,93,live
784,A10JXOU89D5RXR:3LPW2N6LKV9JROVMJSV73YB3FKO5U5,7263,095854.jpg,7,94,live
785,A10JXOU89D5RXR:3LPW2N6LKV9JROVMJSV73YB3FKO5U5,7310,111710.jpg,7,95,live
786,A10JXOU89D5RXR:3LPW2N6LKV9JROVMJSV73YB3FKO5U5,4488,128593.jpg,8,96,live
787,A10JXOU89D5RXR:3LPW2N6LKV9JROVMJSV73YB3FKO5U5,6244,182463.jpg,5,97,live
788,A10JXOU89D5RXR:3LPW2N6LKV9JROVMJSV73YB3FKO5U5,6810,105666.jpg,4,98,live
789,A10JXOU89D5RXR:3LPW2N6LKV9JROVMJSV73YB3FKO5U5,6577,003704.jpg,6,99,live
790,A10JXOU89D5RXR:3LPW2N6LKV9JROVMJSV73YB3FKO5U5,4076,131025.jpg,8,101,live
791,A10JXOU89D5RXR:3LPW2N6LKV9JROVMJSV73YB3FKO5U5,4476,003704.jpg,7,102,live
792,A10JXOU89D5RXR:3LPW2N6LKV9JROVMJSV73YB3FKO5U5,3951,122676.jpg,5,103,live
793,A10JXOU89D5RXR:3LPW2N6LKV9JROVMJSV73YB3FKO5U5,4263,161399.jpg,7,104,live
794,A10JXOU89D5RXR:3LPW2N6LKV9JROVMJSV73YB3FKO5U5,4658,111710.jpg,7,105,live
795,A10JXOU89D5RXR:3LPW2N6LKV9JROVMJSV73YB3FKO5U5,3964,051469.jpg,3,106,live
796,A10JXOU89D5RXR:3LPW2N6LKV9JROVMJSV73YB3FKO5U5,3929,018905.jpg,8,107,live
797,A10JXOU89D5RXR:3LPW2N6LKV9JROVMJSV73YB3FKO5U5,7484,078487.jpg,4,108,live
798,A10JXOU89D5RXR:3LPW2N6LKV9JROVMJSV73YB3FKO5U5,4126,148109.jpg,6,109,live
799,A10JXOU89D5RXR:3LPW2N6LKV9JROVMJSV73YB3FKO5U5,4827,056283.jpg,5,110,live
800,A13KG877JUKJZO:3L0KT67Y8GN1EZD25P54ZUR8PS6SYR,2145,131025.jpg,8,2,live
801,A13KG877JUKJZO:3L0KT67Y8GN1EZD25P54ZUR8PS6SYR,1405,002906.jpg,8,3,live
802,A13KG877JUKJZO:3L0KT67Y8GN1EZD25P54ZUR8PS6SYR,1277,111710.jpg,8,4,live
803,A13KG877JUKJZO:3L0KT67Y8GN1EZD25P54ZUR8PS6SYR,1461,122676.jpg,9,5,live
804,A13KG877JUKJZO:3L0KT67Y8GN1EZD25P54ZUR8PS6SYR,1077,048872.jpg,8,6,live
805,A13KG877JUKJZO:3L0KT67Y8GN1EZD25P54ZUR8PS6SYR,1428,108522.jpg,7,7,live
806,A13KG877JUKJZO:3L0KT67Y8GN1EZD25P54ZUR8PS6SYR,1213,059649.jpg,8,8,live
807,A13KG877JUKJZO:3L0KT67Y8GN1EZD25P54ZUR8PS6SYR,1238,171858.jpg,7,9,live
808,A13KG877JUKJZO:3L0KT67Y8GN1EZD25P54ZUR8PS6SYR,1141,163099.jpg,8,10,live
809,A13KG877JUKJZO:3L0KT67Y8GN1EZD25P54ZUR8PS6SYR,1469,027045.jpg,7,11,live
810,A13KG877JUKJZO:3L0KT67Y8GN1EZD25P54ZUR8PS6SYR,1759,011276.jpg,7,13,live
811,A13KG877JUKJZO:3L0KT67Y8GN1EZD25P54ZUR8PS6SYR,175196,043890.jpg,7,14,live
812,A13KG877JUKJZO:3L0KT67Y8GN1EZD25P54ZUR8PS6SYR,1335,105842.jpg,7,15,live
813,A13KG877JUKJZO:3L0KT67Y8GN1EZD25P54ZUR8PS6SYR,1013,109934.jpg,7,16,live
814,A13KG877JUKJZO:3L0KT67Y8GN1EZD25P54ZUR8PS6SYR,1332,027045.jpg,8,17,live
815,A13KG877JUKJZO:3L0KT67Y8GN1EZD25P54ZUR8PS6SYR,1057,128593.jpg,7,18,live
816,A13KG877JUKJZO:3L0KT67Y8GN1EZD25P54ZUR8PS6SYR,1422,137367.jpg,8,19,live
817,A13KG877JUKJZO:3L0KT67Y8GN1EZD25P54ZUR8PS6SYR,2005,163934.jpg,7,20,live
818,A13KG877JUKJZO:3L0KT67Y8GN1EZD25P54ZUR8PS6SYR,1630,049175.jpg,8,21,live
819,A13KG877JUKJZO:3L0KT67Y8GN1EZD25P54ZUR8PS6SYR,1613,065232.jpg,7,22,live
820,A13KG877JUKJZO:3L0KT67Y8GN1EZD25P54ZUR8PS6SYR,4876,120299.jpg,7,24,live
821,A13KG877JUKJZO:3L0KT67Y8GN1EZD25P54ZUR8PS6SYR,1308,136140.jpg,8,25,live
822,A13KG877JUKJZO:3L0KT67Y8GN1EZD25P54ZUR8PS6SYR,1542,018905.jpg,7,26,live
823,A13KG877JUKJZO:3L0KT67Y8GN1EZD25P54ZUR8PS6SYR,1326,016389.jpg,8,27,live
824,A13KG877JUKJZO:3L0KT67Y8GN1EZD25P54ZUR8PS6SYR,1293,042749.jpg,7,28,live
825,A13KG877JUKJZO:3L0KT67Y8GN1EZD25P54ZUR8PS6SYR,1117,003704.jpg,8,29,live
826,A13KG877JUKJZO:3L0KT67Y8GN1EZD25P54ZUR8PS6SYR,2334,053040.jpg,7,30,live
827,A13KG877JUKJZO:3L0KT67Y8GN1EZD25P54ZUR8PS6SYR,1493,101536.jpg,8,31,live
828,A13KG877JUKJZO:3L0KT67Y8GN1EZD25P54ZUR8PS6SYR,1197,159382.jpg,7,32,live
829,A13KG877JUKJZO:3L0KT67Y8GN1EZD25P54ZUR8PS6SYR,1133,020990.jpg,6,33,live
830,A13KG877JUKJZO:3L0KT67Y8GN1EZD25P54ZUR8PS6SYR,1787,148852.jpg,7,35,live
831,A13KG877JUKJZO:3L0KT67Y8GN1EZD25P54ZUR8PS6SYR,1174,057257.jpg,8,36,live
832,A13KG877JUKJZO:3L0KT67Y8GN1EZD25P54ZUR8PS6SYR,2100,124963.jpg,6,37,live
833,A13KG877JUKJZO:3L0KT67Y8GN1EZD25P54ZUR8PS6SYR,4502,143688.jpg,8,38,live
834,A13KG877JUKJZO:3L0KT67Y8GN1EZD25P54ZUR8PS6SYR,1550,183037.jpg,7,39,live
835,A13KG877JUKJZO:3L0KT67Y8GN1EZD25P54ZUR8PS6SYR,1285,094816.jpg,8,40,live
836,A13KG877JUKJZO:3L0KT67Y8GN1EZD25P54ZUR8PS6SYR,1286,105666.jpg,7,41,live
837,A13KG877JUKJZO:3L0KT67Y8GN1EZD25P54ZUR8PS6SYR,1135,181931.jpg,6,42,live
838,A13KG877JUKJZO:3L0KT67Y8GN1EZD25P54ZUR8PS6SYR,1349,018905.jpg,7,43,live
839,A13KG877JUKJZO:3L0KT67Y8GN1EZD25P54ZUR8PS6SYR,1549,148109.jpg,8,44,live
840,A13KG877JUKJZO:3L0KT67Y8GN1EZD25P54ZUR8PS6SYR,1479,108821.jpg,8,46,live
841,A13KG877JUKJZO:3L0KT67Y8GN1EZD25P54ZUR8PS6SYR,1309,022216.jpg,6,47,live
842,A13KG877JUKJZO:3L0KT67Y8GN1EZD25P54ZUR8PS6SYR,1558,149194.jpg,7,48,live
843,A13KG877JUKJZO:3L0KT67Y8GN1EZD25P54ZUR8PS6SYR,4167,131025.jpg,7,49,live
844,A13KG877JUKJZO:3L0KT67Y8GN1EZD25P54ZUR8PS6SYR,4812,003704.jpg,7,50,live
845,A13KG877JUKJZO:3L0KT67Y8GN1EZD25P54ZUR8PS6SYR,1414,163099.jpg,7,51,live
846,A13KG877JUKJZO:3L0KT67Y8GN1EZD25P54ZUR8PS6SYR,2845,111710.jpg,8,52,live
847,A13KG877JUKJZO:3L0KT67Y8GN1EZD25P54ZUR8PS6SYR,1541,116939.jpg,8,53,live
848,A13KG877JUKJZO:3L0KT67Y8GN1EZD25P54ZUR8PS6SYR,1221,122039.jpg,7,54,live
849,A13KG877JUKJZO:3L0KT67Y8GN1EZD25P54ZUR8PS6SYR,2036,062808.jpg,8,55,live
850,A13KG877JUKJZO:3L0KT67Y8GN1EZD25P54ZUR8PS6SYR,1613,016389.jpg,8,57,live
851,A13KG877JUKJZO:3L0KT67Y8GN1EZD25P54ZUR8PS6SYR,1101,182463.jpg,7,58,live
852,A13KG877JUKJZO:3L0KT67Y8GN1EZD25P54ZUR8PS6SYR,1912,148109.jpg,8,59,live
853,A13KG877JUKJZO:3L0KT67Y8GN1EZD25P54ZUR8PS6SYR,1062,031302.jpg,7,60,live
854,A13KG877JUKJZO:3L0KT67Y8GN1EZD25P54ZUR8PS6SYR,2397,104972.jpg,6,61,live
855,A13KG877JUKJZO:3L0KT67Y8GN1EZD25P54ZUR8PS6SYR,1229,007208.jpg,7,62,live
856,A13KG877JUKJZO:3L0KT67Y8GN1EZD25P54ZUR8PS6SYR,3741,082540.jpg,6,63,live
857,A13KG877JUKJZO:3L0KT67Y8GN1EZD25P54ZUR8PS6SYR,2301,023754.jpg,7,64,live
858,A13KG877JUKJZO:3L0KT67Y8GN1EZD25P54ZUR8PS6SYR,1269,028757.jpg,6,65,live
859,A13KG877JUKJZO:3L0KT67Y8GN1EZD25P54ZUR8PS6SYR,1450,182044.jpg,7,66,live
860,A13KG877JUKJZO:3L0KT67Y8GN1EZD25P54ZUR8PS6SYR,1800,139565.jpg,8,68,live
861,A13KG877JUKJZO:3L0KT67Y8GN1EZD25P54ZUR8PS6SYR,1312,078487.jpg,7,69,live
862,A13KG877JUKJZO:3L0KT67Y8GN1EZD25P54ZUR8PS6SYR,1109,056283.jpg,6,70,live
863,A13KG877JUKJZO:3L0KT67Y8GN1EZD25P54ZUR8PS6SYR,1372,182044.jpg,7,71,live
864,A13KG877JUKJZO:3L0KT67Y8GN1EZD25P54ZUR8PS6SYR,1310,007374.jpg,8,72,live
865,A13KG877JUKJZO:3L0KT67Y8GN1EZD25P54ZUR8PS6SYR,1396,014145.jpg,7,73,live
866,A13KG877JUKJZO:3L0KT67Y8GN1EZD25P54ZUR8PS6SYR,1006,126447.jpg,6,74,live
867,A13KG877JUKJZO:3L0KT67Y8GN1EZD25P54ZUR8PS6SYR,1317,075690.jpg,7,75,live
868,A13KG877JUKJZO:3L0KT67Y8GN1EZD25P54ZUR8PS6SYR,1373,095854.jpg,6,76,live
869,A13KG877JUKJZO:3L0KT67Y8GN1EZD25P54ZUR8PS6SYR,1325,038546.jpg,7,77,live
870,A13KG877JUKJZO:3L0KT67Y8GN1EZD25P54ZUR8PS6SYR,1515,095854.jpg,8,79,live
871,A13KG877JUKJZO:3L0KT67Y8GN1EZD25P54ZUR8PS6SYR,1503,061668.jpg,7,80,live
872,A13KG877JUKJZO:3L0KT67Y8GN1EZD25P54ZUR8PS6SYR,2050,015082.jpg,8,81,live
873,A13KG877JUKJZO:3L0KT67Y8GN1EZD25P54ZUR8PS6SYR,1293,122676.jpg,7,82,live
874,A13KG877JUKJZO:3L0KT67Y8GN1EZD25P54ZUR8PS6SYR,1220,080434.jpg,6,83,live
875,A13KG877JUKJZO:3L0KT67Y8GN1EZD25P54ZUR8PS6SYR,1067,171858.jpg,7,84,live
876,A13KG877JUKJZO:3L0KT67Y8GN1EZD25P54ZUR8PS6SYR,1022,148547.jpg,6,85,live
877,A13KG877JUKJZO:3L0KT67Y8GN1EZD25P54ZUR8PS6SYR,1428,132670.jpg,8,86,live
878,A13KG877JUKJZO:3L0KT67Y8GN1EZD25P54ZUR8PS6SYR,2741,051469.jpg,6,87,live
879,A13KG877JUKJZO:3L0KT67Y8GN1EZD25P54ZUR8PS6SYR,1595,161399.jpg,7,88,live
880,A13KG877JUKJZO:3L0KT67Y8GN1EZD25P54ZUR8PS6SYR,1912,078487.jpg,7,90,live
881,A13KG877JUKJZO:3L0KT67Y8GN1EZD25P54ZUR8PS6SYR,1388,142336.jpg,6,91,live
882,A13KG877JUKJZO:3L0KT67Y8GN1EZD25P54ZUR8PS6SYR,2276,042749.jpg,8,92,live
883,A13KG877JUKJZO:3L0KT67Y8GN1EZD25P54ZUR8PS6SYR,1061,127983.jpg,7,93,live
884,A13KG877JUKJZO:3L0KT67Y8GN1EZD25P54ZUR8PS6SYR,1277,049175.jpg,6,94,live
885,A13KG877JUKJZO:3L0KT67Y8GN1EZD25P54ZUR8PS6SYR,1126,064172.jpg,8,95,live
886,A13KG877JUKJZO:3L0KT67Y8GN1EZD25P54ZUR8PS6SYR,2523,147667.jpg,6,96,live
887,A13KG877JUKJZO:3L0KT67Y8GN1EZD25P54ZUR8PS6SYR,1317,139088.jpg,7,97,live
888,A13KG877JUKJZO:3L0KT67Y8GN1EZD25P54ZUR8PS6SYR,1284,059649.jpg,6,98,live
889,A13KG877JUKJZO:3L0KT67Y8GN1EZD25P54ZUR8PS6SYR,1437,012584.jpg,7,99,live
890,A13KG877JUKJZO:3L0KT67Y8GN1EZD25P54ZUR8PS6SYR,1697,139565.jpg,7,101,live
891,A13KG877JUKJZO:3L0KT67Y8GN1EZD25P54ZUR8PS6SYR,1450,023754.jpg,6,102,live
892,A13KG877JUKJZO:3L0KT67Y8GN1EZD25P54ZUR8PS6SYR,1176,129344.jpg,7,103,live
893,A13KG877JUKJZO:3L0KT67Y8GN1EZD25P54ZUR8PS6SYR,4021,134288.jpg,7,104,live
894,A13KG877JUKJZO:3L0KT67Y8GN1EZD25P54ZUR8PS6SYR,1294,051409.jpg,6,105,live
895,A13KG877JUKJZO:3L0KT67Y8GN1EZD25P54ZUR8PS6SYR,3108,007374.jpg,8,106,live
896,A13KG877JUKJZO:3L0KT67Y8GN1EZD25P54ZUR8PS6SYR,1501,049195.jpg,7,107,live
897,A13KG877JUKJZO:3L0KT67Y8GN1EZD25P54ZUR8PS6SYR,1230,078290.jpg,7,108,live
898,A13KG877JUKJZO:3L0KT67Y8GN1EZD25P54ZUR8PS6SYR,3374,153416.jpg,8,109,live
899,A13KG877JUKJZO:3L0KT67Y8GN1EZD25P54ZUR8PS6SYR,1265,051409.jpg,7,110,live
900,A3KV9A4OE8HSU7:3WQQ9FUS6C1NI75IHZLFAST6SODB8P,5713,134288.jpg,8,2,live
901,A3KV9A4OE8HSU7:3WQQ9FUS6C1NI75IHZLFAST6SODB8P,8345,105842.jpg,7,3,live
902,A3KV9A4OE8HSU7:3WQQ9FUS6C1NI75IHZLFAST6SODB8P,4066,057257.jpg,7,4,live
903,A3KV9A4OE8HSU7:3WQQ9FUS6C1NI75IHZLFAST6SODB8P,4286,129344.jpg,8,5,live
904,A3KV9A4OE8HSU7:3WQQ9FUS6C1NI75IHZLFAST6SODB8P,4492,048872.jpg,7,6,live
905,A3KV9A4OE8HSU7:3WQQ9FUS6C1NI75IHZLFAST6SODB8P,3965,082540.jpg,7,7,live
906,A3KV9A4OE8HSU7:3WQQ9FUS6C1NI75IHZLFAST6SODB8P,3797,124963.jpg,8,8,live
907,A3KV9A4OE8HSU7:3WQQ9FUS6C1NI75IHZLFAST6SODB8P,4068,163934.jpg,6,9,live
908,A3KV9A4OE8HSU7:3WQQ9FUS6C1NI75IHZLFAST6SODB8P,4332,148852.jpg,7,10,live
909,A3KV9A4OE8HSU7:3WQQ9FUS6C1NI75IHZLFAST6SODB8P,5747,051469.jpg,6,11,live
910,A3KV9A4OE8HSU7:3WQQ9FUS6C1NI75IHZLFAST6SODB8P,4378,007374.jpg,7,13,live
911,A3KV9A4OE8HSU7:3WQQ9FUS6C1NI75IHZLFAST6SODB8P,4978,161399.jpg,7,14,live
912,A3KV9A4OE8HSU7:3WQQ9FUS6C1NI75IHZLFAST6SODB8P,4176,126447.jpg,6,15,live
913,A3KV9A4OE8HSU7:3WQQ9FUS6C1NI75IHZLFAST6SODB8P,3968,018905.jpg,7,16,live
914,A3KV9A4OE8HSU7:3WQQ9FUS6C1NI75IHZLFAST6SODB8P,4420,078487.jpg,7,17,live
915,A3KV9A4OE8HSU7:3WQQ9FUS6C1NI75IHZLFAST6SODB8P,4529,120299.jpg,8,18,live
916,A3KV9A4OE8HSU7:3WQQ9FUS6C1NI75IHZLFAST6SODB8P,4518,181931.jpg,7,19,live
917,A3KV9A4OE8HSU7:3WQQ9FUS6C1NI75IHZLFAST6SODB8P,4708,016389.jpg,8,20,live
918,A3KV9A4OE8HSU7:3WQQ9FUS6C1NI75IHZLFAST6SODB8P,4619,078290.jpg,7,21,live
919,A3KV9A4OE8HSU7:3WQQ9FUS6C1NI75IHZLFAST6SODB8P,9257,059649.jpg,8,22,live
920,A3KV9A4OE8HSU7:3WQQ9FUS6C1NI75IHZLFAST6SODB8P,5247,182463.jpg,7,24,live
921,A3KV9A4OE8HSU7:3WQQ9FUS6C1NI75IHZLFAST6SODB8P,29584,139565.jpg,8,25,live
922,A3KV9A4OE8HSU7:3WQQ9FUS6C1NI75IHZLFAST6SODB8P,3205,049175.jpg,7,26,live
923,A3KV9A4OE8HSU7:3WQQ9FUS6C1NI75IHZLFAST6SODB8P,3036,148109.jpg,8,27,live
924,A3KV9A4OE8HSU7:3WQQ9FUS6C1NI75IHZLFAST6SODB8P,17909,148547.jpg,7,28,live
925,A3KV9A4OE8HSU7:3WQQ9FUS6C1NI75IHZLFAST6SODB8P,3616,139088.jpg,7,29,live
926,A3KV9A4OE8HSU7:3WQQ9FUS6C1NI75IHZLFAST6SODB8P,2716,094816.jpg,8,30,live
927,A3KV9A4OE8HSU7:3WQQ9FUS6C1NI75IHZLFAST6SODB8P,5319,061668.jpg,7,31,live
928,A3KV9A4OE8HSU7:3WQQ9FUS6C1NI75IHZLFAST6SODB8P,3228,109934.jpg,8,32,live
929,A3KV9A4OE8HSU7:3WQQ9FUS6C1NI75IHZLFAST6SODB8P,3023,095854.jpg,7,33,live
930,A3KV9A4OE8HSU7:3WQQ9FUS6C1NI75IHZLFAST6SODB8P,27343,128593.jpg,8,35,live
931,A3KV9A4OE8HSU7:3WQQ9FUS6C1NI75IHZLFAST6SODB8P,6050,108821.jpg,8,36,live
932,A3KV9A4OE8HSU7:3WQQ9FUS6C1NI75IHZLFAST6SODB8P,47328,105666.jpg,8,37,live
933,A3KV9A4OE8HSU7:3WQQ9FUS6C1NI75IHZLFAST6SODB8P,3004,149194.jpg,8,38,live
934,A3KV9A4OE8HSU7:3WQQ9FUS6C1NI75IHZLFAST6SODB8P,4646,122676.jpg,7,39,live
935,A3KV9A4OE8HSU7:3WQQ9FUS6C1NI75IHZLFAST6SODB8P,2347,015082.jpg,8,40,live
936,A3KV9A4OE8HSU7:3WQQ9FUS6C1NI75IHZLFAST6SODB8P,57145,142336.jpg,7,41,live
937,A3KV9A4OE8HSU7:3WQQ9FUS6C1NI75IHZLFAST6SODB8P,3932,143688.jpg,8,42,live
938,A3KV9A4OE8HSU7:3WQQ9FUS6C1NI75IHZLFAST6SODB8P,3135,027045.jpg,7,43,live
939,A3KV9A4OE8HSU7:3WQQ9FUS6C1NI75IHZLFAST6SODB8P,6371,108522.jpg,8,44,live
940,A3KV9A4OE8HSU7:3WQQ9FUS6C1NI75IHZLFAST6SODB8P,3464,131025.jpg,7,46,live
941,A3KV9A4OE8HSU7:3WQQ9FUS6C1NI75IHZLFAST6SODB8P,2624,183037.jpg,8,47,live
942,A3KV9A4OE8HSU7:3WQQ9FUS6C1NI75IHZLFAST6SODB8P,42507,014145.jpg,8,48,live
943,A3KV9A4OE8HSU7:3WQQ9FUS6C1NI75IHZLFAST6SODB8P,2711,049175.jpg,7,49,live
944,A3KV9A4OE8HSU7:3WQQ9FUS6C1NI75IHZLFAST6SODB8P,2934,031302.jpg,8,50,live
945,A3KV9A4OE8HSU7:3WQQ9FUS6C1NI75IHZLFAST6SODB8P,2676,095854.jpg,7,51,live
946,A3KV9A4OE8HSU7:3WQQ9FUS6C1NI75IHZLFAST6SODB8P,2576,053040.jpg,8,52,live
947,A3KV9A4OE8HSU7:3WQQ9FUS6C1NI75IHZLFAST6SODB8P,10308,016389.jpg,8,53,live
948,A3KV9A4OE8HSU7:3WQQ9FUS6C1NI75IHZLFAST6SODB8P,2908,059649.jpg,8,54,live
949,A3KV9A4OE8HSU7:3WQQ9FUS6C1NI75IHZLFAST6SODB8P,2648,003704.jpg,8,55,live
950,A3KV9A4OE8HSU7:3WQQ9FUS6C1NI75IHZLFAST6SODB8P,54155,027045.jpg,7,57,live
951,A3KV9A4OE8HSU7:3WQQ9FUS6C1NI75IHZLFAST6SODB8P,4458,028757.jpg,8,58,live
952,A3KV9A4OE8HSU7:3WQQ9FUS6C1NI75IHZLFAST6SODB8P,2641,139565.jpg,7,59,live
953,A3KV9A4OE8HSU7:3WQQ9FUS6C1NI75IHZLFAST6SODB8P,2674,122676.jpg,8,60,live
954,A3KV9A4OE8HSU7:3WQQ9FUS6C1NI75IHZLFAST6SODB8P,2232,101536.jpg,7,61,live
955,A3KV9A4OE8HSU7:3WQQ9FUS6C1NI75IHZLFAST6SODB8P,2777,022216.jpg,8,62,live
956,A3KV9A4OE8HSU7:3WQQ9FUS6C1NI75IHZLFAST6SODB8P,2386,042749.jpg,7,63,live
957,A3KV9A4OE8HSU7:3WQQ9FUS6C1NI75IHZLFAST6SODB8P,12986,163099.jpg,8,64,live
958,A3KV9A4OE8HSU7:3WQQ9FUS6C1NI75IHZLFAST6SODB8P,42489,136140.jpg,8,65,live
959,A3KV9A4OE8HSU7:3WQQ9FUS6C1NI75IHZLFAST6SODB8P,2646,043890.jpg,7,66,live
960,A3KV9A4OE8HSU7:3WQQ9FUS6C1NI75IHZLFAST6SODB8P,7404,002906.jpg,8,68,live
961,A3KV9A4OE8HSU7:3WQQ9FUS6C1NI75IHZLFAST6SODB8P,2947,023754.jpg,7,69,live
962,A3KV9A4OE8HSU7:3WQQ9FUS6C1NI75IHZLFAST6SODB8P,2492,122039.jpg,8,70,live
963,A3KV9A4OE8HSU7:3WQQ9FUS6C1NI75IHZLFAST6SODB8P,39676,111710.jpg,8,71,live
964,A3KV9A4OE8HSU7:3WQQ9FUS6C1NI75IHZLFAST6SODB8P,4244,147667.jpg,7,72,live
965,A3KV9A4OE8HSU7:3WQQ9FUS6C1NI75IHZLFAST6SODB8P,22545,137367.jpg,8,73,live
966,A3KV9A4OE8HSU7:3WQQ9FUS6C1NI75IHZLFAST6SODB8P,5927,182044.jpg,7,74,live
967,A3KV9A4OE8HSU7:3WQQ9FUS6C1NI75IHZLFAST6SODB8P,3066,042749.jpg,8,75,live
968,A3KV9A4OE8HSU7:3WQQ9FUS6C1NI75IHZLFAST6SODB8P,3437,131025.jpg,7,76,live
969,A3KV9A4OE8HSU7:3WQQ9FUS6C1NI75IHZLFAST6SODB8P,2655,171858.jpg,8,77,live
970,A3KV9A4OE8HSU7:3WQQ9FUS6C1NI75IHZLFAST6SODB8P,74993,003704.jpg,8,79,live
971,A3KV9A4OE8HSU7:3WQQ9FUS6C1NI75IHZLFAST6SODB8P,2460,065232.jpg,7,80,live
972,A3KV9A4OE8HSU7:3WQQ9FUS6C1NI75IHZLFAST6SODB8P,3330,080434.jpg,8,81,live
973,A3KV9A4OE8HSU7:3WQQ9FUS6C1NI75IHZLFAST6SODB8P,2467,056283.jpg,7,82,live
974,A3KV9A4OE8HSU7:3WQQ9FUS6C1NI75IHZLFAST6SODB8P,2722,038546.jpg,7,83,live
975,A3KV9A4OE8HSU7:3WQQ9FUS6C1NI75IHZLFAST6SODB8P,2846,148109.jpg,8,84,live
976,A3KV9A4OE8HSU7:3WQQ9FUS6C1NI75IHZLFAST6SODB8P,2518,062808.jpg,7,85,live
977,A3KV9A4OE8HSU7:3WQQ9FUS6C1NI75IHZLFAST6SODB8P,2315,007374.jpg,8,86,live
978,A3KV9A4OE8HSU7:3WQQ9FUS6C1NI75IHZLFAST6SODB8P,2308,111710.jpg,7,87,live
979,A3KV9A4OE8HSU7:3WQQ9FUS6C1NI75IHZLFAST6SODB8P,2557,171858.jpg,8,88,live
980,A3KV9A4OE8HSU7:3WQQ9FUS6C1NI75IHZLFAST6SODB8P,3316,020990.jpg,7,90,live
981,A3KV9A4OE8HSU7:3WQQ9FUS6C1NI75IHZLFAST6SODB8P,2927,075690.jpg,8,91,live
982,A3KV9A4OE8HSU7:3WQQ9FUS6C1NI75IHZLFAST6SODB8P,2153,159382.jpg,7,92,live
983,A3KV9A4OE8HSU7:3WQQ9FUS6C1NI75IHZLFAST6SODB8P,2695,023754.jpg,8,93,live
984,A3KV9A4OE8HSU7:3WQQ9FUS6C1NI75IHZLFAST6SODB8P,2807,132670.jpg,7,94,live
985,A3KV9A4OE8HSU7:3WQQ9FUS6C1NI75IHZLFAST6SODB8P,2496,064172.jpg,8,95,live
986,A3KV9A4OE8HSU7:3WQQ9FUS6C1NI75IHZLFAST6SODB8P,2498,182044.jpg,7,96,live
987,A3KV9A4OE8HSU7:3WQQ9FUS6C1NI75IHZLFAST6SODB8P,2426,051409.jpg,8,97,live
988,A3KV9A4OE8HSU7:3WQQ9FUS6C1NI75IHZLFAST6SODB8P,2366,127983.jpg,7,98,live
989,A3KV9A4OE8HSU7:3WQQ9FUS6C1NI75IHZLFAST6SODB8P,2619,012584.jpg,7,99,live
990,A3KV9A4OE8HSU7:3WQQ9FUS6C1NI75IHZLFAST6SODB8P,3616,011276.jpg,8,101,live
991,A3KV9A4OE8HSU7:3WQQ9FUS6C1NI75IHZLFAST6SODB8P,2282,153416.jpg,7,102,live
992,A3KV9A4OE8HSU7:3WQQ9FUS6C1NI75IHZLFAST6SODB8P,2427,018905.jpg,8,103,live
993,A3KV9A4OE8HSU7:3WQQ9FUS6C1NI75IHZLFAST6SODB8P,2494,163099.jpg,7,104,live
994,A3KV9A4OE8HSU7:3WQQ9FUS6C1NI75IHZLFAST6SODB8P,2344,078487.jpg,7,105,live
995,A3KV9A4OE8HSU7:3WQQ9FUS6C1NI75IHZLFAST6SODB8P,2680,116939.jpg,8,106,live
996,A3KV9A4OE8HSU7:3WQQ9FUS6C1NI75IHZLFAST6SODB8P,2544,104972.jpg,7,107,live
997,A3KV9A4OE8HSU7:3WQQ9FUS6C1NI75IHZLFAST6SODB8P,2977,007208.jpg,8,108,live
998,A3KV9A4OE8HSU7:3WQQ9FUS6C1NI75IHZLFAST6SODB8P,2225,049195.jpg,7,109,live
999,A3KV9A4OE8HSU7:3WQQ9FUS6C1NI75IHZLFAST6SODB8P,2656,051409.jpg,8,110,live
1000,A223UBAD8S1SIB:3DR23U6WE7L4NU9QUOY02WVE9ZIETQ,2211,016389.jpg,5,2,live
1001,A223UBAD8S1SIB:3DR23U6WE7L4NU9QUOY02WVE9ZIETQ,1260,065232.jpg,6,3,live
1002,A223UBAD8S1SIB:3DR23U6WE7L4NU9QUOY02WVE9ZIETQ,1333,109934.jpg,4,4,live
1003,A223UBAD8S1SIB:3DR23U6WE7L4NU9QUOY02WVE9ZIETQ,2653,080434.jpg,6,5,live
1004,A223UBAD8S1SIB:3DR23U6WE7L4NU9QUOY02WVE9ZIETQ,1293,122676.jpg,5,6,live
1005,A223UBAD8S1SIB:3DR23U6WE7L4NU9QUOY02WVE9ZIETQ,1622,049195.jpg,6,7,live
1006,A223UBAD8S1SIB:3DR23U6WE7L4NU9QUOY02WVE9ZIETQ,1581,111710.jpg,4,8,live
1007,A223UBAD8S1SIB:3DR23U6WE7L4NU9QUOY02WVE9ZIETQ,1489,104972.jpg,6,9,live
1008,A223UBAD8S1SIB:3DR23U6WE7L4NU9QUOY02WVE9ZIETQ,1300,016389.jpg,5,10,live
1009,A223UBAD8S1SIB:3DR23U6WE7L4NU9QUOY02WVE9ZIETQ,6141,126447.jpg,5,11,live
1010,A223UBAD8S1SIB:3DR23U6WE7L4NU9QUOY02WVE9ZIETQ,2073,003704.jpg,4,13,live
1011,A223UBAD8S1SIB:3DR23U6WE7L4NU9QUOY02WVE9ZIETQ,1724,120299.jpg,5,14,live
1012,A223UBAD8S1SIB:3DR23U6WE7L4NU9QUOY02WVE9ZIETQ,1773,163099.jpg,4,15,live
1013,A223UBAD8S1SIB:3DR23U6WE7L4NU9QUOY02WVE9ZIETQ,3381,149194.jpg,6,16,live
1014,A223UBAD8S1SIB:3DR23U6WE7L4NU9QUOY02WVE9ZIETQ,1191,051469.jpg,5,17,live
1015,A223UBAD8S1SIB:3DR23U6WE7L4NU9QUOY02WVE9ZIETQ,2333,011276.jpg,6,18,live
1016,A223UBAD8S1SIB:3DR23U6WE7L4NU9QUOY02WVE9ZIETQ,1228,057257.jpg,4,19,live
1017,A223UBAD8S1SIB:3DR23U6WE7L4NU9QUOY02WVE9ZIETQ,1683,043890.jpg,6,20,live
1018,A223UBAD8S1SIB:3DR23U6WE7L4NU9QUOY02WVE9ZIETQ,1349,182463.jpg,5,21,live
1019,A223UBAD8S1SIB:3DR23U6WE7L4NU9QUOY02WVE9ZIETQ,1453,101536.jpg,7,22,live
1020,A223UBAD8S1SIB:3DR23U6WE7L4NU9QUOY02WVE9ZIETQ,2891,137367.jpg,5,24,live
1021,A223UBAD8S1SIB:3DR23U6WE7L4NU9QUOY02WVE9ZIETQ,1341,136140.jpg,6,25,live
1022,A223UBAD8S1SIB:3DR23U6WE7L4NU9QUOY02WVE9ZIETQ,2045,143688.jpg,4,26,live
1023,A223UBAD8S1SIB:3DR23U6WE7L4NU9QUOY02WVE9ZIETQ,1964,148547.jpg,6,27,live
1024,A223UBAD8S1SIB:3DR23U6WE7L4NU9QUOY02WVE9ZIETQ,1332,007208.jpg,5,28,live
1025,A223UBAD8S1SIB:3DR23U6WE7L4NU9QUOY02WVE9ZIETQ,1686,105842.jpg,7,29,live
1026,A223UBAD8S1SIB:3DR23U6WE7L4NU9QUOY02WVE9ZIETQ,1725,048872.jpg,5,30,live
1027,A223UBAD8S1SIB:3DR23U6WE7L4NU9QUOY02WVE9ZIETQ,1566,078487.jpg,6,31,live
1028,A223UBAD8S1SIB:3DR23U6WE7L4NU9QUOY02WVE9ZIETQ,2629,182044.jpg,4,32,live
1029,A223UBAD8S1SIB:3DR23U6WE7L4NU9QUOY02WVE9ZIETQ,1469,148109.jpg,6,33,live
1030,A223UBAD8S1SIB:3DR23U6WE7L4NU9QUOY02WVE9ZIETQ,2164,182044.jpg,4,35,live
1031,A223UBAD8S1SIB:3DR23U6WE7L4NU9QUOY02WVE9ZIETQ,2012,078290.jpg,7,36,live
1032,A223UBAD8S1SIB:3DR23U6WE7L4NU9QUOY02WVE9ZIETQ,1320,020990.jpg,5,37,live
1033,A223UBAD8S1SIB:3DR23U6WE7L4NU9QUOY02WVE9ZIETQ,1662,139565.jpg,3,38,live
1034,A223UBAD8S1SIB:3DR23U6WE7L4NU9QUOY02WVE9ZIETQ,2149,142336.jpg,4,39,live
1035,A223UBAD8S1SIB:3DR23U6WE7L4NU9QUOY02WVE9ZIETQ,1646,183037.jpg,3,40,live
1036,A223UBAD8S1SIB:3DR23U6WE7L4NU9QUOY02WVE9ZIETQ,1640,075690.jpg,4,41,live
1037,A223UBAD8S1SIB:3DR23U6WE7L4NU9QUOY02WVE9ZIETQ,1484,105666.jpg,6,42,live
1038,A223UBAD8S1SIB:3DR23U6WE7L4NU9QUOY02WVE9ZIETQ,1463,111710.jpg,7,43,live
1039,A223UBAD8S1SIB:3DR23U6WE7L4NU9QUOY02WVE9ZIETQ,1413,127983.jpg,5,44,live
1040,A223UBAD8S1SIB:3DR23U6WE7L4NU9QUOY02WVE9ZIETQ,2923,053040.jpg,4,46,live
1041,A223UBAD8S1SIB:3DR23U6WE7L4NU9QUOY02WVE9ZIETQ,1325,124963.jpg,5,47,live
1042,A223UBAD8S1SIB:3DR23U6WE7L4NU9QUOY02WVE9ZIETQ,1541,147667.jpg,6,48,live
1043,A223UBAD8S1SIB:3DR23U6WE7L4NU9QUOY02WVE9ZIETQ,2021,129344.jpg,5,49,live
1044,A223UBAD8S1SIB:3DR23U6WE7L4NU9QUOY02WVE9ZIETQ,1365,031302.jpg,4,50,live
1045,A223UBAD8S1SIB:3DR23U6WE7L4NU9QUOY02WVE9ZIETQ,1492,028757.jpg,5,51,live
1046,A223UBAD8S1SIB:3DR23U6WE7L4NU9QUOY02WVE9ZIETQ,1638,062808.jpg,7,52,live
1047,A223UBAD8S1SIB:3DR23U6WE7L4NU9QUOY02WVE9ZIETQ,1422,148852.jpg,4,53,live
1048,A223UBAD8S1SIB:3DR23U6WE7L4NU9QUOY02WVE9ZIETQ,2549,061668.jpg,8,54,live
1049,A223UBAD8S1SIB:3DR23U6WE7L4NU9QUOY02WVE9ZIETQ,2534,131025.jpg,6,55,live
1050,A223UBAD8S1SIB:3DR23U6WE7L4NU9QUOY02WVE9ZIETQ,2990,082540.jpg,3,57,live
1051,A223UBAD8S1SIB:3DR23U6WE7L4NU9QUOY02WVE9ZIETQ,2461,003704.jpg,5,58,live
1052,A223UBAD8S1SIB:3DR23U6WE7L4NU9QUOY02WVE9ZIETQ,1516,116939.jpg,6,59,live
1053,A223UBAD8S1SIB:3DR23U6WE7L4NU9QUOY02WVE9ZIETQ,2478,078487.jpg,7,60,live
1054,A223UBAD8S1SIB:3DR23U6WE7L4NU9QUOY02WVE9ZIETQ,1876,139565.jpg,8,61,live
1055,A223UBAD8S1SIB:3DR23U6WE7L4NU9QUOY02WVE9ZIETQ,3142,095854.jpg,6,62,live
1056,A223UBAD8S1SIB:3DR23U6WE7L4NU9QUOY02WVE9ZIETQ,1485,022216.jpg,5,63,live
1057,A223UBAD8S1SIB:3DR23U6WE7L4NU9QUOY02WVE9ZIETQ,2850,153416.jpg,8,64,live
1058,A223UBAD8S1SIB:3DR23U6WE7L4NU9QUOY02WVE9ZIETQ,1920,027045.jpg,7,65,live
1059,A223UBAD8S1SIB:3DR23U6WE7L4NU9QUOY02WVE9ZIETQ,1981,018905.jpg,4,66,live
1060,A223UBAD8S1SIB:3DR23U6WE7L4NU9QUOY02WVE9ZIETQ,3569,148109.jpg,6,68,live
1061,A223UBAD8S1SIB:3DR23U6WE7L4NU9QUOY02WVE9ZIETQ,1754,056283.jpg,5,69,live
1062,A223UBAD8S1SIB:3DR23U6WE7L4NU9QUOY02WVE9ZIETQ,1637,042749.jpg,8,70,live
1063,A223UBAD8S1SIB:3DR23U6WE7L4NU9QUOY02WVE9ZIETQ,1574,023754.jpg,4,71,live
1064,A223UBAD8S1SIB:3DR23U6WE7L4NU9QUOY02WVE9ZIETQ,1800,042749.jpg,6,72,live
1065,A223UBAD8S1SIB:3DR23U6WE7L4NU9QUOY02WVE9ZIETQ,1406,015082.jpg,5,73,live
1066,A223UBAD8S1SIB:3DR23U6WE7L4NU9QUOY02WVE9ZIETQ,2221,007374.jpg,8,74,live
1067,A223UBAD8S1SIB:3DR23U6WE7L4NU9QUOY02WVE9ZIETQ,1685,122039.jpg,6,75,live
1068,A223UBAD8S1SIB:3DR23U6WE7L4NU9QUOY02WVE9ZIETQ,1454,049175.jpg,4,76,live
1069,A223UBAD8S1SIB:3DR23U6WE7L4NU9QUOY02WVE9ZIETQ,1967,038546.jpg,6,77,live
1070,A223UBAD8S1SIB:3DR23U6WE7L4NU9QUOY02WVE9ZIETQ,2729,108821.jpg,5,79,live
1071,A223UBAD8S1SIB:3DR23U6WE7L4NU9QUOY02WVE9ZIETQ,1309,159382.jpg,6,80,live
1072,A223UBAD8S1SIB:3DR23U6WE7L4NU9QUOY02WVE9ZIETQ,1621,134288.jpg,4,81,live
1073,A223UBAD8S1SIB:3DR23U6WE7L4NU9QUOY02WVE9ZIETQ,2101,171858.jpg,8,82,live
1074,A223UBAD8S1SIB:3DR23U6WE7L4NU9QUOY02WVE9ZIETQ,1661,139088.jpg,6,83,live
1075,A223UBAD8S1SIB:3DR23U6WE7L4NU9QUOY02WVE9ZIETQ,1342,128593.jpg,5,84,live
1076,A223UBAD8S1SIB:3DR23U6WE7L4NU9QUOY02WVE9ZIETQ,1504,064172.jpg,4,85,live
1077,A223UBAD8S1SIB:3DR23U6WE7L4NU9QUOY02WVE9ZIETQ,1637,132670.jpg,6,86,live
1078,A223UBAD8S1SIB:3DR23U6WE7L4NU9QUOY02WVE9ZIETQ,2061,014145.jpg,5,87,live
1079,A223UBAD8S1SIB:3DR23U6WE7L4NU9QUOY02WVE9ZIETQ,1910,161399.jpg,7,88,live
1080,A223UBAD8S1SIB:3DR23U6WE7L4NU9QUOY02WVE9ZIETQ,1808,095854.jpg,4,90,live
1081,A223UBAD8S1SIB:3DR23U6WE7L4NU9QUOY02WVE9ZIETQ,1613,163934.jpg,6,91,live
1082,A223UBAD8S1SIB:3DR23U6WE7L4NU9QUOY02WVE9ZIETQ,1485,094816.jpg,5,92,live
1083,A223UBAD8S1SIB:3DR23U6WE7L4NU9QUOY02WVE9ZIETQ,2349,059649.jpg,7,93,live
1084,A223UBAD8S1SIB:3DR23U6WE7L4NU9QUOY02WVE9ZIETQ,1413,059649.jpg,6,94,live
1085,A223UBAD8S1SIB:3DR23U6WE7L4NU9QUOY02WVE9ZIETQ,1381,002906.jpg,5,95,live
1086,A223UBAD8S1SIB:3DR23U6WE7L4NU9QUOY02WVE9ZIETQ,1669,007374.jpg,6,96,live
1087,A223UBAD8S1SIB:3DR23U6WE7L4NU9QUOY02WVE9ZIETQ,2797,122676.jpg,4,97,live
1088,A223UBAD8S1SIB:3DR23U6WE7L4NU9QUOY02WVE9ZIETQ,1630,012584.jpg,6,98,live
1089,A223UBAD8S1SIB:3DR23U6WE7L4NU9QUOY02WVE9ZIETQ,2124,049175.jpg,5,99,live
1090,A223UBAD8S1SIB:3DR23U6WE7L4NU9QUOY02WVE9ZIETQ,2016,018905.jpg,5,101,live
1091,A223UBAD8S1SIB:3DR23U6WE7L4NU9QUOY02WVE9ZIETQ,2500,171858.jpg,7,102,live
1092,A223UBAD8S1SIB:3DR23U6WE7L4NU9QUOY02WVE9ZIETQ,2429,131025.jpg,4,103,live
1093,A223UBAD8S1SIB:3DR23U6WE7L4NU9QUOY02WVE9ZIETQ,2053,163099.jpg,6,104,live
1094,A223UBAD8S1SIB:3DR23U6WE7L4NU9QUOY02WVE9ZIETQ,1592,023754.jpg,7,105,live
1095,A223UBAD8S1SIB:3DR23U6WE7L4NU9QUOY02WVE9ZIETQ,1708,051409.jpg,4,106,live
1096,A223UBAD8S1SIB:3DR23U6WE7L4NU9QUOY02WVE9ZIETQ,1583,027045.jpg,6,107,live
1097,A223UBAD8S1SIB:3DR23U6WE7L4NU9QUOY02WVE9ZIETQ,2100,051409.jpg,5,108,live
1098,A223UBAD8S1SIB:3DR23U6WE7L4NU9QUOY02WVE9ZIETQ,1459,108522.jpg,7,109,live
1099,A223UBAD8S1SIB:3DR23U6WE7L4NU9QUOY02WVE9ZIETQ,1741,181931.jpg,4,110,live
1100,A2ZMKRBA31G2IX:3RWE2M8QWJH71RPCPLD988NIQGK0NN,8640,163099.jpg,5,2,live
1101,A2ZMKRBA31G2IX:3RWE2M8QWJH71RPCPLD988NIQGK0NN,3405,062808.jpg,4,3,live
1102,A2ZMKRBA31G2IX:3RWE2M8QWJH71RPCPLD988NIQGK0NN,2925,043890.jpg,5,4,live
1103,A2ZMKRBA31G2IX:3RWE2M8QWJH71RPCPLD988NIQGK0NN,2214,075690.jpg,6,5,live
1104,A2ZMKRBA31G2IX:3RWE2M8QWJH71RPCPLD988NIQGK0NN,2763,108821.jpg,7,6,live
1105,A2ZMKRBA31G2IX:3RWE2M8QWJH71RPCPLD988NIQGK0NN,2222,011276.jpg,8,7,live
1106,A2ZMKRBA31G2IX:3RWE2M8QWJH71RPCPLD988NIQGK0NN,3236,023754.jpg,3,8,live
1107,A2ZMKRBA31G2IX:3RWE2M8QWJH71RPCPLD988NIQGK0NN,2135,108522.jpg,4,9,live
1108,A2ZMKRBA31G2IX:3RWE2M8QWJH71RPCPLD988NIQGK0NN,1820,147667.jpg,5,10,live
1109,A2ZMKRBA31G2IX:3RWE2M8QWJH71RPCPLD988NIQGK0NN,1877,101536.jpg,6,11,live
1110,A2ZMKRBA31G2IX:3RWE2M8QWJH71RPCPLD988NIQGK0NN,2925,149194.jpg,4,13,live
1111,A2ZMKRBA31G2IX:3RWE2M8QWJH71RPCPLD988NIQGK0NN,4117,139565.jpg,4,14,live
1112,A2ZMKRBA31G2IX:3RWE2M8QWJH71RPCPLD988NIQGK0NN,5543,065232.jpg,3,15,live
1113,A2ZMKRBA31G2IX:3RWE2M8QWJH71RPCPLD988NIQGK0NN,2283,163099.jpg,6,16,live
1114,A2ZMKRBA31G2IX:3RWE2M8QWJH71RPCPLD988NIQGK0NN,2771,016389.jpg,4,17,live
1115,A2ZMKRBA31G2IX:3RWE2M8QWJH71RPCPLD988NIQGK0NN,3580,028757.jpg,4,18,live
1116,A2ZMKRBA31G2IX:3RWE2M8QWJH71RPCPLD988NIQGK0NN,3006,171858.jpg,5,19,live
1117,A2ZMKRBA31G2IX:3RWE2M8QWJH71RPCPLD988NIQGK0NN,3189,105666.jpg,4,20,live
1118,A2ZMKRBA31G2IX:3RWE2M8QWJH71RPCPLD988NIQGK0NN,2893,007208.jpg,4,21,live
1119,A2ZMKRBA31G2IX:3RWE2M8QWJH71RPCPLD988NIQGK0NN,2649,022216.jpg,6,22,live
1120,A2ZMKRBA31G2IX:3RWE2M8QWJH71RPCPLD988NIQGK0NN,3198,139565.jpg,5,24,live
1121,A2ZMKRBA31G2IX:3RWE2M8QWJH71RPCPLD988NIQGK0NN,3140,038546.jpg,3,25,live
1122,A2ZMKRBA31G2IX:3RWE2M8QWJH71RPCPLD988NIQGK0NN,2893,095854.jpg,4,26,live
1123,A2ZMKRBA31G2IX:3RWE2M8QWJH71RPCPLD988NIQGK0NN,1782,139088.jpg,5,27,live
1124,A2ZMKRBA31G2IX:3RWE2M8QWJH71RPCPLD988NIQGK0NN,4596,136140.jpg,7,28,live
1125,A2ZMKRBA31G2IX:3RWE2M8QWJH71RPCPLD988NIQGK0NN,4389,127983.jpg,2,29,live
1126,A2ZMKRBA31G2IX:3RWE2M8QWJH71RPCPLD988NIQGK0NN,3173,057257.jpg,3,30,live
1127,A2ZMKRBA31G2IX:3RWE2M8QWJH71RPCPLD988NIQGK0NN,2894,078487.jpg,4,31,live
1128,A2ZMKRBA31G2IX:3RWE2M8QWJH71RPCPLD988NIQGK0NN,2803,148109.jpg,5,32,live
1129,A2ZMKRBA31G2IX:3RWE2M8QWJH71RPCPLD988NIQGK0NN,2902,002906.jpg,7,33,live
1130,A2ZMKRBA31G2IX:3RWE2M8QWJH71RPCPLD988NIQGK0NN,15494,051469.jpg,3,35,live
1131,A2ZMKRBA31G2IX:3RWE2M8QWJH71RPCPLD988NIQGK0NN,3598,161399.jpg,6,36,live
1132,A2ZMKRBA31G2IX:3RWE2M8QWJH71RPCPLD988NIQGK0NN,3028,131025.jpg,7,37,live
1133,A2ZMKRBA31G2IX:3RWE2M8QWJH71RPCPLD988NIQGK0NN,3325,049175.jpg,4,38,live
1134,A2ZMKRBA31G2IX:3RWE2M8QWJH71RPCPLD988NIQGK0NN,4660,116939.jpg,3,39,live
1135,A2ZMKRBA31G2IX:3RWE2M8QWJH71RPCPLD988NIQGK0NN,2030,049175.jpg,5,40,live
1136,A2ZMKRBA31G2IX:3RWE2M8QWJH71RPCPLD988NIQGK0NN,2806,182044.jpg,4,41,live
1137,A2ZMKRBA31G2IX:3RWE2M8QWJH71RPCPLD988NIQGK0NN,2229,104972.jpg,4,42,live
1138,A2ZMKRBA31G2IX:3RWE2M8QWJH71RPCPLD988NIQGK0NN,4307,031302.jpg,5,43,live
1139,A2ZMKRBA31G2IX:3RWE2M8QWJH71RPCPLD988NIQGK0NN,2573,015082.jpg,4,44,live
1140,A2ZMKRBA31G2IX:3RWE2M8QWJH71RPCPLD988NIQGK0NN,11218,148547.jpg,6,46,live
1141,A2ZMKRBA31G2IX:3RWE2M8QWJH71RPCPLD988NIQGK0NN,3686,105842.jpg,7,47,live
1142,A2ZMKRBA31G2IX:3RWE2M8QWJH71RPCPLD988NIQGK0NN,1846,003704.jpg,4,48,live
1143,A2ZMKRBA31G2IX:3RWE2M8QWJH71RPCPLD988NIQGK0NN,3454,124963.jpg,2,49,live
1144,A2ZMKRBA31G2IX:3RWE2M8QWJH71RPCPLD988NIQGK0NN,2721,143688.jpg,3,50,live
1145,A2ZMKRBA31G2IX:3RWE2M8QWJH71RPCPLD988NIQGK0NN,2117,053040.jpg,4,51,live
1146,A2ZMKRBA31G2IX:3RWE2M8QWJH71RPCPLD988NIQGK0NN,2667,018905.jpg,6,52,live
1147,A2ZMKRBA31G2IX:3RWE2M8QWJH71RPCPLD988NIQGK0NN,3235,148852.jpg,4,53,live
1148,A2ZMKRBA31G2IX:3RWE2M8QWJH71RPCPLD988NIQGK0NN,2637,132670.jpg,3,54,live
1149,A2ZMKRBA31G2IX:3RWE2M8QWJH71RPCPLD988NIQGK0NN,3893,059649.jpg,4,55,live
1150,A2ZMKRBA31G2IX:3RWE2M8QWJH71RPCPLD988NIQGK0NN,3366,142336.jpg,3,57,live
1151,A2ZMKRBA31G2IX:3RWE2M8QWJH71RPCPLD988NIQGK0NN,5902,182463.jpg,4,58,live
1152,A2ZMKRBA31G2IX:3RWE2M8QWJH71RPCPLD988NIQGK0NN,3157,042749.jpg,5,59,live
1153,A2ZMKRBA31G2IX:3RWE2M8QWJH71RPCPLD988NIQGK0NN,1845,148109.jpg,4,60,live
1154,A2ZMKRBA31G2IX:3RWE2M8QWJH71RPCPLD988NIQGK0NN,1571,078487.jpg,5,61,live
1155,A2ZMKRBA31G2IX:3RWE2M8QWJH71RPCPLD988NIQGK0NN,3029,134288.jpg,6,62,live
1156,A2ZMKRBA31G2IX:3RWE2M8QWJH71RPCPLD988NIQGK0NN,4244,027045.jpg,6,63,live
1157,A2ZMKRBA31G2IX:3RWE2M8QWJH71RPCPLD988NIQGK0NN,2837,056283.jpg,3,64,live
1158,A2ZMKRBA31G2IX:3RWE2M8QWJH71RPCPLD988NIQGK0NN,3605,049195.jpg,4,65,live
1159,A2ZMKRBA31G2IX:3RWE2M8QWJH71RPCPLD988NIQGK0NN,2334,094816.jpg,5,66,live
1160,A2ZMKRBA31G2IX:3RWE2M8QWJH71RPCPLD988NIQGK0NN,3296,120299.jpg,3,68,live
1161,A2ZMKRBA31G2IX:3RWE2M8QWJH71RPCPLD988NIQGK0NN,3301,159382.jpg,5,69,live
1162,A2ZMKRBA31G2IX:3RWE2M8QWJH71RPCPLD988NIQGK0NN,2141,183037.jpg,4,70,live
1163,A2ZMKRBA31G2IX:3RWE2M8QWJH71RPCPLD988NIQGK0NN,2693,027045.jpg,6,71,live
1164,A2ZMKRBA31G2IX:3RWE2M8QWJH71RPCPLD988NIQGK0NN,2782,181931.jpg,2,72,live
1165,A2ZMKRBA31G2IX:3RWE2M8QWJH71RPCPLD988NIQGK0NN,3148,163934.jpg,3,73,live
1166,A2ZMKRBA31G2IX:3RWE2M8QWJH71RPCPLD988NIQGK0NN,2847,061668.jpg,5,74,live
1167,A2ZMKRBA31G2IX:3RWE2M8QWJH71RPCPLD988NIQGK0NN,2765,082540.jpg,5,75,live
1168,A2ZMKRBA31G2IX:3RWE2M8QWJH71RPCPLD988NIQGK0NN,2245,153416.jpg,5,76,live
1169,A2ZMKRBA31G2IX:3RWE2M8QWJH71RPCPLD988NIQGK0NN,2516,003704.jpg,6,77,live
1170,A2ZMKRBA31G2IX:3RWE2M8QWJH71RPCPLD988NIQGK0NN,2636,018905.jpg,7,79,live
1171,A2ZMKRBA31G2IX:3RWE2M8QWJH71RPCPLD988NIQGK0NN,2572,080434.jpg,6,80,live
1172,A2ZMKRBA31G2IX:3RWE2M8QWJH71RPCPLD988NIQGK0NN,1741,122676.jpg,5,81,live
1173,A2ZMKRBA31G2IX:3RWE2M8QWJH71RPCPLD988NIQGK0NN,2909,111710.jpg,6,82,live
1174,A2ZMKRBA31G2IX:3RWE2M8QWJH71RPCPLD988NIQGK0NN,1922,064172.jpg,6,83,live
1175,A2ZMKRBA31G2IX:3RWE2M8QWJH71RPCPLD988NIQGK0NN,2646,182044.jpg,4,84,live
1176,A2ZMKRBA31G2IX:3RWE2M8QWJH71RPCPLD988NIQGK0NN,2179,007374.jpg,5,85,live
1177,A2ZMKRBA31G2IX:3RWE2M8QWJH71RPCPLD988NIQGK0NN,1996,111710.jpg,6,86,live
1178,A2ZMKRBA31G2IX:3RWE2M8QWJH71RPCPLD988NIQGK0NN,3317,109934.jpg,4,87,live
1179,A2ZMKRBA31G2IX:3RWE2M8QWJH71RPCPLD988NIQGK0NN,2735,014145.jpg,3,88,live
1180,A2ZMKRBA31G2IX:3RWE2M8QWJH71RPCPLD988NIQGK0NN,3873,048872.jpg,2,90,live
1181,A2ZMKRBA31G2IX:3RWE2M8QWJH71RPCPLD988NIQGK0NN,2835,171858.jpg,6,91,live
1182,A2ZMKRBA31G2IX:3RWE2M8QWJH71RPCPLD988NIQGK0NN,3301,051409.jpg,6,92,live
1183,A2ZMKRBA31G2IX:3RWE2M8QWJH71RPCPLD988NIQGK0NN,1782,007374.jpg,5,93,live
1184,A2ZMKRBA31G2IX:3RWE2M8QWJH71RPCPLD988NIQGK0NN,2229,078290.jpg,6,94,live
1185,A2ZMKRBA31G2IX:3RWE2M8QWJH71RPCPLD988NIQGK0NN,1821,137367.jpg,5,95,live
1186,A2ZMKRBA31G2IX:3RWE2M8QWJH71RPCPLD988NIQGK0NN,3069,059649.jpg,3,96,live
1187,A2ZMKRBA31G2IX:3RWE2M8QWJH71RPCPLD988NIQGK0NN,1837,095854.jpg,4,97,live
1188,A2ZMKRBA31G2IX:3RWE2M8QWJH71RPCPLD988NIQGK0NN,1970,020990.jpg,5,98,live
1189,A2ZMKRBA31G2IX:3RWE2M8QWJH71RPCPLD988NIQGK0NN,1684,012584.jpg,6,99,live
1190,A2ZMKRBA31G2IX:3RWE2M8QWJH71RPCPLD988NIQGK0NN,3451,042749.jpg,7,101,live
1191,A2ZMKRBA31G2IX:3RWE2M8QWJH71RPCPLD988NIQGK0NN,2029,126447.jpg,6,102,live
1192,A2ZMKRBA31G2IX:3RWE2M8QWJH71RPCPLD988NIQGK0NN,1934,023754.jpg,5,103,live
1193,A2ZMKRBA31G2IX:3RWE2M8QWJH71RPCPLD988NIQGK0NN,1428,051409.jpg,4,104,live
1194,A2ZMKRBA31G2IX:3RWE2M8QWJH71RPCPLD988NIQGK0NN,2235,016389.jpg,4,105,live
1195,A2ZMKRBA31G2IX:3RWE2M8QWJH71RPCPLD988NIQGK0NN,4092,122039.jpg,3,106,live
1196,A2ZMKRBA31G2IX:3RWE2M8QWJH71RPCPLD988NIQGK0NN,1918,128593.jpg,4,107,live
1197,A2ZMKRBA31G2IX:3RWE2M8QWJH71RPCPLD988NIQGK0NN,1676,131025.jpg,5,108,live
1198,A2ZMKRBA31G2IX:3RWE2M8QWJH71RPCPLD988NIQGK0NN,3268,122676.jpg,3,109,live
1199,A2ZMKRBA31G2IX:3RWE2M8QWJH71RPCPLD988NIQGK0NN,1768,129344.jpg,4,110,live
1200,A1RZA4LHOI15J9:3OXV7EAXLGXVBYIH9R9B8VZ3Y2K36G,3718,159382.jpg,5,2,live
1201,A1RZA4LHOI15J9:3OXV7EAXLGXVBYIH9R9B8VZ3Y2K36G,6835,027045.jpg,6,3,live
1202,A1RZA4LHOI15J9:3OXV7EAXLGXVBYIH9R9B8VZ3Y2K36G,5522,007374.jpg,6,4,live
1203,A1RZA4LHOI15J9:3OXV7EAXLGXVBYIH9R9B8VZ3Y2K36G,3119,031302.jpg,4,5,live
1204,A1RZA4LHOI15J9:3OXV7EAXLGXVBYIH9R9B8VZ3Y2K36G,2173,161399.jpg,5,6,live
1205,A1RZA4LHOI15J9:3OXV7EAXLGXVBYIH9R9B8VZ3Y2K36G,1661,020990.jpg,6,7,live
1206,A1RZA4LHOI15J9:3OXV7EAXLGXVBYIH9R9B8VZ3Y2K36G,1540,002906.jpg,5,8,live
1207,A1RZA4LHOI15J9:3OXV7EAXLGXVBYIH9R9B8VZ3Y2K36G,1730,109934.jpg,7,9,live
1208,A1RZA4LHOI15J9:3OXV7EAXLGXVBYIH9R9B8VZ3Y2K36G,2044,049195.jpg,4,10,live
1209,A1RZA4LHOI15J9:3OXV7EAXLGXVBYIH9R9B8VZ3Y2K36G,1765,148109.jpg,5,11,live
1210,A1RZA4LHOI15J9:3OXV7EAXLGXVBYIH9R9B8VZ3Y2K36G,3484,053040.jpg,5,13,live
1211,A1RZA4LHOI15J9:3OXV7EAXLGXVBYIH9R9B8VZ3Y2K36G,4717,014145.jpg,4,14,live
1212,A1RZA4LHOI15J9:3OXV7EAXLGXVBYIH9R9B8VZ3Y2K36G,4099,095854.jpg,6,15,live
1213,A1RZA4LHOI15J9:3OXV7EAXLGXVBYIH9R9B8VZ3Y2K36G,3284,163099.jpg,5,16,live
1214,A1RZA4LHOI15J9:3OXV7EAXLGXVBYIH9R9B8VZ3Y2K36G,2373,171858.jpg,4,17,live
1215,A1RZA4LHOI15J9:3OXV7EAXLGXVBYIH9R9B8VZ3Y2K36G,2082,148109.jpg,4,18,live
1216,A1RZA4LHOI15J9:3OXV7EAXLGXVBYIH9R9B8VZ3Y2K36G,5277,065232.jpg,3,19,live
1217,A1RZA4LHOI15J9:3OXV7EAXLGXVBYIH9R9B8VZ3Y2K36G,3277,131025.jpg,4,20,live
1218,A1RZA4LHOI15J9:3OXV7EAXLGXVBYIH9R9B8VZ3Y2K36G,1931,163099.jpg,5,21,live
1219,A1RZA4LHOI15J9:3OXV7EAXLGXVBYIH9R9B8VZ3Y2K36G,25860,028757.jpg,4,22,live
1220,A1RZA4LHOI15J9:3OXV7EAXLGXVBYIH9R9B8VZ3Y2K36G,1625,015082.jpg,5,24,live
1221,A1RZA4LHOI15J9:3OXV7EAXLGXVBYIH9R9B8VZ3Y2K36G,4117,080434.jpg,6,25,live
1222,A1RZA4LHOI15J9:3OXV7EAXLGXVBYIH9R9B8VZ3Y2K36G,2949,111710.jpg,4,26,live
1223,A1RZA4LHOI15J9:3OXV7EAXLGXVBYIH9R9B8VZ3Y2K36G,4635,023754.jpg,3,27,live
1224,A1RZA4LHOI15J9:3OXV7EAXLGXVBYIH9R9B8VZ3Y2K36G,2660,038546.jpg,4,28,live
1225,A1RZA4LHOI15J9:3OXV7EAXLGXVBYIH9R9B8VZ3Y2K36G,3565,051409.jpg,6,29,live
1226,A1RZA4LHOI15J9:3OXV7EAXLGXVBYIH9R9B8VZ3Y2K36G,2637,018905.jpg,6,30,live
1227,A1RZA4LHOI15J9:3OXV7EAXLGXVBYIH9R9B8VZ3Y2K36G,5933,105842.jpg,5,31,live
1228,A1RZA4LHOI15J9:3OXV7EAXLGXVBYIH9R9B8VZ3Y2K36G,2427,148547.jpg,7,32,live
1229,A1RZA4LHOI15J9:3OXV7EAXLGXVBYIH9R9B8VZ3Y2K36G,2151,139565.jpg,6,33,live
1230,A1RZA4LHOI15J9:3OXV7EAXLGXVBYIH9R9B8VZ3Y2K36G,1838,131025.jpg,5,35,live
1231,A1RZA4LHOI15J9:3OXV7EAXLGXVBYIH9R9B8VZ3Y2K36G,1767,059649.jpg,6,36,live
1232,A1RZA4LHOI15J9:3OXV7EAXLGXVBYIH9R9B8VZ3Y2K36G,1612,056283.jpg,4,37,live
1233,A1RZA4LHOI15J9:3OXV7EAXLGXVBYIH9R9B8VZ3Y2K36G,1627,042749.jpg,4,38,live
1234,A1RZA4LHOI15J9:3OXV7EAXLGXVBYIH9R9B8VZ3Y2K36G,1601,149194.jpg,5,39,live
1235,A1RZA4LHOI15J9:3OXV7EAXLGXVBYIH9R9B8VZ3Y2K36G,1800,116939.jpg,6,40,live
1236,A1RZA4LHOI15J9:3OXV7EAXLGXVBYIH9R9B8VZ3Y2K36G,1571,171858.jpg,5,41,live
1237,A1RZA4LHOI15J9:3OXV7EAXLGXVBYIH9R9B8VZ3Y2K36G,1611,101536.jpg,4,42,live
1238,A1RZA4LHOI15J9:3OXV7EAXLGXVBYIH9R9B8VZ3Y2K36G,1932,049175.jpg,3,43,live
1239,A1RZA4LHOI15J9:3OXV7EAXLGXVBYIH9R9B8VZ3Y2K36G,1908,062808.jpg,5,44,live
1240,A1RZA4LHOI15J9:3OXV7EAXLGXVBYIH9R9B8VZ3Y2K36G,2343,183037.jpg,6,46,live
1241,A1RZA4LHOI15J9:3OXV7EAXLGXVBYIH9R9B8VZ3Y2K36G,1876,082540.jpg,5,47,live
1242,A1RZA4LHOI15J9:3OXV7EAXLGXVBYIH9R9B8VZ3Y2K36G,3308,181931.jpg,3,48,live
1243,A1RZA4LHOI15J9:3OXV7EAXLGXVBYIH9R9B8VZ3Y2K36G,1716,049175.jpg,4,49,live
1244,A1RZA4LHOI15J9:3OXV7EAXLGXVBYIH9R9B8VZ3Y2K36G,4013,057257.jpg,4,50,live
1245,A1RZA4LHOI15J9:3OXV7EAXLGXVBYIH9R9B8VZ3Y2K36G,2139,003704.jpg,4,51,live
1246,A1RZA4LHOI15J9:3OXV7EAXLGXVBYIH9R9B8VZ3Y2K36G,9316,136140.jpg,5,52,live
1247,A1RZA4LHOI15J9:3OXV7EAXLGXVBYIH9R9B8VZ3Y2K36G,2341,134288.jpg,6,53,live
1248,A1RZA4LHOI15J9:3OXV7EAXLGXVBYIH9R9B8VZ3Y2K36G,1917,182044.jpg,4,54,live
1249,A1RZA4LHOI15J9:3OXV7EAXLGXVBYIH9R9B8VZ3Y2K36G,2401,018905.jpg,5,55,live
1250,A1RZA4LHOI15J9:3OXV7EAXLGXVBYIH9R9B8VZ3Y2K36G,2405,078290.jpg,4,57,live
1251,A1RZA4LHOI15J9:3OXV7EAXLGXVBYIH9R9B8VZ3Y2K36G,1756,139565.jpg,4,58,live
1252,A1RZA4LHOI15J9:3OXV7EAXLGXVBYIH9R9B8VZ3Y2K36G,3797,007374.jpg,7,59,live
1253,A1RZA4LHOI15J9:3OXV7EAXLGXVBYIH9R9B8VZ3Y2K36G,2323,022216.jpg,6,60,live
1254,A1RZA4LHOI15J9:3OXV7EAXLGXVBYIH9R9B8VZ3Y2K36G,2316,061668.jpg,5,61,live
1255,A1RZA4LHOI15J9:3OXV7EAXLGXVBYIH9R9B8VZ3Y2K36G,3972,108821.jpg,4,62,live
1256,A1RZA4LHOI15J9:3OXV7EAXLGXVBYIH9R9B8VZ3Y2K36G,2907,132670.jpg,3,63,live
1257,A1RZA4LHOI15J9:3OXV7EAXLGXVBYIH9R9B8VZ3Y2K36G,2252,139088.jpg,5,64,live
1258,A1RZA4LHOI15J9:3OXV7EAXLGXVBYIH9R9B8VZ3Y2K36G,2484,078487.jpg,4,65,live
1259,A1RZA4LHOI15J9:3OXV7EAXLGXVBYIH9R9B8VZ3Y2K36G,2338,075690.jpg,5,66,live
1260,A1RZA4LHOI15J9:3OXV7EAXLGXVBYIH9R9B8VZ3Y2K36G,2328,007208.jpg,4,68,live
1261,A1RZA4LHOI15J9:3OXV7EAXLGXVBYIH9R9B8VZ3Y2K36G,7946,027045.jpg,6,69,live
1262,A1RZA4LHOI15J9:3OXV7EAXLGXVBYIH9R9B8VZ3Y2K36G,1707,059649.jpg,5,70,live
1263,A1RZA4LHOI15J9:3OXV7EAXLGXVBYIH9R9B8VZ3Y2K36G,1998,104972.jpg,4,71,live
1264,A1RZA4LHOI15J9:3OXV7EAXLGXVBYIH9R9B8VZ3Y2K36G,2156,016389.jpg,7,72,live
1265,A1RZA4LHOI15J9:3OXV7EAXLGXVBYIH9R9B8VZ3Y2K36G,3052,023754.jpg,3,73,live
1266,A1RZA4LHOI15J9:3OXV7EAXLGXVBYIH9R9B8VZ3Y2K36G,2053,043890.jpg,4,74,live
1267,A1RZA4LHOI15J9:3OXV7EAXLGXVBYIH9R9B8VZ3Y2K36G,1468,095854.jpg,5,75,live
1268,A1RZA4LHOI15J9:3OXV7EAXLGXVBYIH9R9B8VZ3Y2K36G,3155,011276.jpg,7,76,live
1269,A1RZA4LHOI15J9:3OXV7EAXLGXVBYIH9R9B8VZ3Y2K36G,3508,129344.jpg,3,77,live
1270,A1RZA4LHOI15J9:3OXV7EAXLGXVBYIH9R9B8VZ3Y2K36G,3027,142336.jpg,5,79,live
1271,A1RZA4LHOI15J9:3OXV7EAXLGXVBYIH9R9B8VZ3Y2K36G,1748,051409.jpg,6,80,live
1272,A1RZA4LHOI15J9:3OXV7EAXLGXVBYIH9R9B8VZ3Y2K36G,2028,094816.jpg,4,81,live
1273,A1RZA4LHOI15J9:3OXV7EAXLGXVBYIH9R9B8VZ3Y2K36G,1955,078487.jpg,3,82,live
1274,A1RZA4LHOI15J9:3OXV7EAXLGXVBYIH9R9B8VZ3Y2K36G,2141,137367.jpg,5,83,live
1275,A1RZA4LHOI15J9:3OXV7EAXLGXVBYIH9R9B8VZ3Y2K36G,2108,064172.jpg,7,84,live
1276,A1RZA4LHOI15J9:3OXV7EAXLGXVBYIH9R9B8VZ3Y2K36G,4379,051469.jpg,3,85,live
1277,A1RZA4LHOI15J9:3OXV7EAXLGXVBYIH9R9B8VZ3Y2K36G,1931,153416.jpg,4,86,live
1278,A1RZA4LHOI15J9:3OXV7EAXLGXVBYIH9R9B8VZ3Y2K36G,1940,120299.jpg,3,87,live
1279,A1RZA4LHOI15J9:3OXV7EAXLGXVBYIH9R9B8VZ3Y2K36G,1948,122039.jpg,4,88,live
1280,A1RZA4LHOI15J9:3OXV7EAXLGXVBYIH9R9B8VZ3Y2K36G,4002,048872.jpg,3,90,live
1281,A1RZA4LHOI15J9:3OXV7EAXLGXVBYIH9R9B8VZ3Y2K36G,1739,182044.jpg,4,91,live
1282,A1RZA4LHOI15J9:3OXV7EAXLGXVBYIH9R9B8VZ3Y2K36G,2420,016389.jpg,5,92,live
1283,A1RZA4LHOI15J9:3OXV7EAXLGXVBYIH9R9B8VZ3Y2K36G,3202,148852.jpg,4,93,live
1284,A1RZA4LHOI15J9:3OXV7EAXLGXVBYIH9R9B8VZ3Y2K36G,2449,108522.jpg,5,94,live
1285,A1RZA4LHOI15J9:3OXV7EAXLGXVBYIH9R9B8VZ3Y2K36G,3637,012584.jpg,4,95,live
1286,A1RZA4LHOI15J9:3OXV7EAXLGXVBYIH9R9B8VZ3Y2K36G,1483,042749.jpg,5,96,live
1287,A1RZA4LHOI15J9:3OXV7EAXLGXVBYIH9R9B8VZ3Y2K36G,3099,127983.jpg,3,97,live
1288,A1RZA4LHOI15J9:3OXV7EAXLGXVBYIH9R9B8VZ3Y2K36G,2020,003704.jpg,4,98,live
1289,A1RZA4LHOI15J9:3OXV7EAXLGXVBYIH9R9B8VZ3Y2K36G,3156,122676.jpg,4,99,live
1290,A1RZA4LHOI15J9:3OXV7EAXLGXVBYIH9R9B8VZ3Y2K36G,4273,126447.jpg,6,101,live
1291,A1RZA4LHOI15J9:3OXV7EAXLGXVBYIH9R9B8VZ3Y2K36G,4012,147667.jpg,4,102,live
1292,A1RZA4LHOI15J9:3OXV7EAXLGXVBYIH9R9B8VZ3Y2K36G,2541,105666.jpg,5,103,live
1293,A1RZA4LHOI15J9:3OXV7EAXLGXVBYIH9R9B8VZ3Y2K36G,2356,111710.jpg,4,104,live
1294,A1RZA4LHOI15J9:3OXV7EAXLGXVBYIH9R9B8VZ3Y2K36G,2627,143688.jpg,5,105,live
1295,A1RZA4LHOI15J9:3OXV7EAXLGXVBYIH9R9B8VZ3Y2K36G,2023,163934.jpg,4,106,live
1296,A1RZA4LHOI15J9:3OXV7EAXLGXVBYIH9R9B8VZ3Y2K36G,3073,124963.jpg,3,107,live
1297,A1RZA4LHOI15J9:3OXV7EAXLGXVBYIH9R9B8VZ3Y2K36G,2516,182463.jpg,5,108,live
1298,A1RZA4LHOI15J9:3OXV7EAXLGXVBYIH9R9B8VZ3Y2K36G,2540,122676.jpg,4,109,live
1299,A1RZA4LHOI15J9:3OXV7EAXLGXVBYIH9R9B8VZ3Y2K36G,3755,128593.jpg,5,110,live
1300,A3TJZX1E8D9RN0:3A1COHJ8NL2X9K84HRVBW3W4N2U8HG,5387,031302.jpg,7,2,live
1301,A3TJZX1E8D9RN0:3A1COHJ8NL2X9K84HRVBW3W4N2U8HG,3941,137367.jpg,8,3,live
1302,A3TJZX1E8D9RN0:3A1COHJ8NL2X9K84HRVBW3W4N2U8HG,4271,171858.jpg,8,4,live
1303,A3TJZX1E8D9RN0:3A1COHJ8NL2X9K84HRVBW3W4N2U8HG,3190,056283.jpg,6,5,live
1304,A3TJZX1E8D9RN0:3A1COHJ8NL2X9K84HRVBW3W4N2U8HG,3462,007374.jpg,8,6,live
1305,A3TJZX1E8D9RN0:3A1COHJ8NL2X9K84HRVBW3W4N2U8HG,4422,007374.jpg,9,7,live
1306,A3TJZX1E8D9RN0:3A1COHJ8NL2X9K84HRVBW3W4N2U8HG,5432,171858.jpg,7,8,live
1307,A3TJZX1E8D9RN0:3A1COHJ8NL2X9K84HRVBW3W4N2U8HG,4917,163099.jpg,6,9,live
1308,A3TJZX1E8D9RN0:3A1COHJ8NL2X9K84HRVBW3W4N2U8HG,4038,007208.jpg,7,10,live
1309,A3TJZX1E8D9RN0:3A1COHJ8NL2X9K84HRVBW3W4N2U8HG,4678,148852.jpg,6,11,live
1310,A3TJZX1E8D9RN0:3A1COHJ8NL2X9K84HRVBW3W4N2U8HG,5632,016389.jpg,7,13,live
1311,A3TJZX1E8D9RN0:3A1COHJ8NL2X9K84HRVBW3W4N2U8HG,4246,051409.jpg,8,14,live
1312,A3TJZX1E8D9RN0:3A1COHJ8NL2X9K84HRVBW3W4N2U8HG,4062,111710.jpg,6,15,live
1313,A3TJZX1E8D9RN0:3A1COHJ8NL2X9K84HRVBW3W4N2U8HG,5102,027045.jpg,7,16,live
