,subId,rt,imgName,rating,trial_index,debug_mode
0,A1QVNF19XSRSD7:369J354OFFHW5AU546GVRPOC3B76GI,2388,104389_0.40909090909090917.png,4,2,live
1,A1QVNF19XSRSD7:369J354OFFHW5AU546GVRPOC3B76GI,2482,186898_-0.035353535353535304.png,3,3,live
2,A1QVNF19XSRSD7:369J354OFFHW5AU546GVRPOC3B76GI,1693,099209_-0.045454545454545414.png,6,4,live
3,A1QVNF19XSRSD7:369J354OFFHW5AU546GVRPOC3B76GI,1791,043227_-0.10606060606060602.png,7,5,live
4,A1QVNF19XSRSD7:369J354OFFHW5AU546GVRPOC3B76GI,1867,078578_-0.28787878787878785.png,9,6,live
5,A1QVNF19XSRSD7:369J354OFFHW5AU546GVRPOC3B76GI,1586,165313_-0.11616161616161613.png,6,7,live
6,A1QVNF19XSRSD7:369J354OFFHW5AU546GVRPOC3B76GI,1630,036503_-0.4494949494949495.png,5,8,live
7,A1QVNF19XSRSD7:369J354OFFHW5AU546GVRPOC3B76GI,1660,043227_-0.10606060606060602.png,7,9,live
8,A1QVNF19XSRSD7:369J354OFFHW5AU546GVRPOC3B76GI,2092,017660_-0.025252525252525193.png,6,10,live
9,A1QVNF19XSRSD7:369J354OFFHW5AU546GVRPOC3B76GI,2584,186898_-0.035353535353535304.png,4,11,live
10,A1QVNF19XSRSD7:369J354OFFHW5AU546GVRPOC3B76GI,2206,141987_-0.29797979797979796.png,5,13,live
11,A1QVNF19XSRSD7:369J354OFFHW5AU546GVRPOC3B76GI,1889,062769_0.3989898989898991.png,3,14,live
12,A1QVNF19XSRSD7:369J354OFFHW5AU546GVRPOC3B76GI,2217,153694_-0.4898989898989899.png,3,15,live
13,A1QVNF19XSRSD7:369J354OFFHW5AU546GVRPOC3B76GI,1469,064914_-0.07575757575757575.png,4,16,live
14,A1QVNF19XSRSD7:369J354OFFHW5AU546GVRPOC3B76GI,2591,159919_0.1767676767676768.png,4,17,live
15,A1QVNF19XSRSD7:369J354OFFHW5AU546GVRPOC3B76GI,1217,005291_0.4797979797979799.png,5,18,live
16,A1QVNF19XSRSD7:369J354OFFHW5AU546GVRPOC3B76GI,2764,179053_-0.2777777777777778.png,5,19,live
17,A1QVNF19XSRSD7:369J354OFFHW5AU546GVRPOC3B76GI,1459,178771_-0.3484848484848485.png,4,20,live
18,A1QVNF19XSRSD7:369J354OFFHW5AU546GVRPOC3B76GI,1814,135849_0.36868686868686873.png,6,21,live
19,A1QVNF19XSRSD7:369J354OFFHW5AU546GVRPOC3B76GI,1880,046067_0.19696969696969702.png,6,22,live
20,A1QVNF19XSRSD7:369J354OFFHW5AU546GVRPOC3B76GI,2801,162991_-0.1464646464646464.png,6,24,live
21,A1QVNF19XSRSD7:369J354OFFHW5AU546GVRPOC3B76GI,4004,165771_0.26767676767676774.png,7,25,live
22,A1QVNF19XSRSD7:369J354OFFHW5AU546GVRPOC3B76GI,2016,180549_0.03535353535353536.png,6,26,live
23,A1QVNF19XSRSD7:369J354OFFHW5AU546GVRPOC3B76GI,1570,051002_-0.4696969696969697.png,5,27,live
24,A1QVNF19XSRSD7:369J354OFFHW5AU546GVRPOC3B76GI,1947,112214_-0.055555555555555525.png,6,28,live
25,A1QVNF19XSRSD7:369J354OFFHW5AU546GVRPOC3B76GI,2331,147096_0.4696969696969697.png,4,29,live
26,A1QVNF19XSRSD7:369J354OFFHW5AU546GVRPOC3B76GI,1930,122663_0.0757575757575758.png,5,30,live
27,A1QVNF19XSRSD7:369J354OFFHW5AU546GVRPOC3B76GI,2165,131690_0.2575757575757577.png,4,31,live
28,A1QVNF19XSRSD7:369J354OFFHW5AU546GVRPOC3B76GI,2476,188020_-0.16666666666666663.png,3,32,live
29,A1QVNF19XSRSD7:369J354OFFHW5AU546GVRPOC3B76GI,2397,062768_-0.15656565656565652.png,4,33,live
30,A1QVNF19XSRSD7:369J354OFFHW5AU546GVRPOC3B76GI,1930,075861_0.43939393939393945.png,5,35,live
31,A1QVNF19XSRSD7:369J354OFFHW5AU546GVRPOC3B76GI,1766,112902_-0.398989898989899.png,6,36,live
32,A1QVNF19XSRSD7:369J354OFFHW5AU546GVRPOC3B76GI,1983,026046_0.06565656565656575.png,7,37,live
33,A1QVNF19XSRSD7:369J354OFFHW5AU546GVRPOC3B76GI,2031,003566_0.11616161616161624.png,4,38,live
34,A1QVNF19XSRSD7:369J354OFFHW5AU546GVRPOC3B76GI,3033,112214_-0.055555555555555525.png,5,39,live
35,A1QVNF19XSRSD7:369J354OFFHW5AU546GVRPOC3B76GI,1758,170306_-0.21717171717171713.png,4,40,live
36,A1QVNF19XSRSD7:369J354OFFHW5AU546GVRPOC3B76GI,1837,135849_0.36868686868686873.png,3,41,live
37,A1QVNF19XSRSD7:369J354OFFHW5AU546GVRPOC3B76GI,2893,005291_0.4797979797979799.png,4,42,live
38,A1QVNF19XSRSD7:369J354OFFHW5AU546GVRPOC3B76GI,1246,107379_-0.3181818181818182.png,5,43,live
39,A1QVNF19XSRSD7:369J354OFFHW5AU546GVRPOC3B76GI,1397,081501_-0.3888888888888889.png,5,44,live
40,A1QVNF19XSRSD7:369J354OFFHW5AU546GVRPOC3B76GI,2213,131742_-0.23737373737373735.png,4,46,live
41,A1QVNF19XSRSD7:369J354OFFHW5AU546GVRPOC3B76GI,1748,140101_0.09595959595959602.png,5,47,live
42,A1QVNF19XSRSD7:369J354OFFHW5AU546GVRPOC3B76GI,1471,156125_0.13636363636363646.png,5,48,live
43,A1QVNF19XSRSD7:369J354OFFHW5AU546GVRPOC3B76GI,1795,170842_-0.09595959595959591.png,7,49,live
44,A1QVNF19XSRSD7:369J354OFFHW5AU546GVRPOC3B76GI,1661,164022_0.025252525252525304.png,6,50,live
45,A1QVNF19XSRSD7:369J354OFFHW5AU546GVRPOC3B76GI,1569,062768_-0.15656565656565652.png,6,51,live
46,A1QVNF19XSRSD7:369J354OFFHW5AU546GVRPOC3B76GI,1444,177685_-0.41919191919191917.png,5,52,live
47,A1QVNF19XSRSD7:369J354OFFHW5AU546GVRPOC3B76GI,2347,025236_0.05555555555555558.png,4,53,live
48,A1QVNF19XSRSD7:369J354OFFHW5AU546GVRPOC3B76GI,1940,165927_-0.19696969696969696.png,4,54,live
49,A1QVNF19XSRSD7:369J354OFFHW5AU546GVRPOC3B76GI,1527,108588_0.15656565656565657.png,5,55,live
50,A1QVNF19XSRSD7:369J354OFFHW5AU546GVRPOC3B76GI,2216,098800_-0.4292929292929293.png,3,57,live
51,A1QVNF19XSRSD7:369J354OFFHW5AU546GVRPOC3B76GI,1577,063261_0.33838383838383845.png,4,58,live
52,A1QVNF19XSRSD7:369J354OFFHW5AU546GVRPOC3B76GI,1440,015409_-0.13636363636363635.png,4,59,live
53,A1QVNF19XSRSD7:369J354OFFHW5AU546GVRPOC3B76GI,3148,156125_0.13636363636363646.png,3,60,live
54,A1QVNF19XSRSD7:369J354OFFHW5AU546GVRPOC3B76GI,1485,127006_0.3282828282828284.png,5,61,live
55,A1QVNF19XSRSD7:369J354OFFHW5AU546GVRPOC3B76GI,4612,170263_0.4494949494949496.png,6,62,live
56,A1QVNF19XSRSD7:369J354OFFHW5AU546GVRPOC3B76GI,3555,106232_-0.4797979797979798.png,6,63,live
57,A1QVNF19XSRSD7:369J354OFFHW5AU546GVRPOC3B76GI,3491,040946_0.3080808080808082.png,5,64,live
58,A1QVNF19XSRSD7:369J354OFFHW5AU546GVRPOC3B76GI,1726,088129_0.2272727272727273.png,7,65,live
59,A1QVNF19XSRSD7:369J354OFFHW5AU546GVRPOC3B76GI,1807,195524_0.4191919191919192.png,6,66,live
60,A1QVNF19XSRSD7:369J354OFFHW5AU546GVRPOC3B76GI,1952,066335_0.3787878787878789.png,5,68,live
61,A1QVNF19XSRSD7:369J354OFFHW5AU546GVRPOC3B76GI,1825,104389_0.40909090909090917.png,4,69,live
62,A1QVNF19XSRSD7:369J354OFFHW5AU546GVRPOC3B76GI,2590,187313_-0.20707070707070707.png,3,70,live
63,A1QVNF19XSRSD7:369J354OFFHW5AU546GVRPOC3B76GI,2921,065751_0.16666666666666674.png,6,71,live
64,A1QVNF19XSRSD7:369J354OFFHW5AU546GVRPOC3B76GI,1757,017328_-0.12626262626262624.png,6,72,live
65,A1QVNF19XSRSD7:369J354OFFHW5AU546GVRPOC3B76GI,1601,035632_-0.2676767676767676.png,5,73,live
66,A1QVNF19XSRSD7:369J354OFFHW5AU546GVRPOC3B76GI,1795,141987_-0.29797979797979796.png,7,74,live
67,A1QVNF19XSRSD7:369J354OFFHW5AU546GVRPOC3B76GI,2237,198895_-0.4393939393939394.png,6,75,live
68,A1QVNF19XSRSD7:369J354OFFHW5AU546GVRPOC3B76GI,2131,135637_0.015151515151515249.png,5,76,live
69,A1QVNF19XSRSD7:369J354OFFHW5AU546GVRPOC3B76GI,1970,159336_0.20707070707070718.png,7,77,live
70,A1QVNF19XSRSD7:369J354OFFHW5AU546GVRPOC3B76GI,2089,179053_-0.2777777777777778.png,3,79,live
71,A1QVNF19XSRSD7:369J354OFFHW5AU546GVRPOC3B76GI,1827,056825_0.24747474747474751.png,4,80,live
72,A1QVNF19XSRSD7:369J354OFFHW5AU546GVRPOC3B76GI,1858,053976_0.10606060606060608.png,4,81,live
73,A1QVNF19XSRSD7:369J354OFFHW5AU546GVRPOC3B76GI,1952,040946_0.3080808080808082.png,3,82,live
74,A1QVNF19XSRSD7:369J354OFFHW5AU546GVRPOC3B76GI,1613,200785_0.2777777777777778.png,5,83,live
75,A1QVNF19XSRSD7:369J354OFFHW5AU546GVRPOC3B76GI,1975,164022_0.025252525252525304.png,6,84,live
76,A1QVNF19XSRSD7:369J354OFFHW5AU546GVRPOC3B76GI,1905,122663_0.0757575757575758.png,7,85,live
77,A1QVNF19XSRSD7:369J354OFFHW5AU546GVRPOC3B76GI,2547,034745_0.28787878787878796.png,7,86,live
78,A1QVNF19XSRSD7:369J354OFFHW5AU546GVRPOC3B76GI,2045,197011_0.21717171717171724.png,6,87,live
79,A1QVNF19XSRSD7:369J354OFFHW5AU546GVRPOC3B76GI,1824,192160_0.3585858585858587.png,4,88,live
80,A1QVNF19XSRSD7:369J354OFFHW5AU546GVRPOC3B76GI,1827,180549_0.03535353535353536.png,5,90,live
81,A1QVNF19XSRSD7:369J354OFFHW5AU546GVRPOC3B76GI,2163,119066_-0.22727272727272724.png,7,91,live
82,A1QVNF19XSRSD7:369J354OFFHW5AU546GVRPOC3B76GI,1524,087481_-0.015151515151515138.png,6,92,live
83,A1QVNF19XSRSD7:369J354OFFHW5AU546GVRPOC3B76GI,1922,106232_-0.4797979797979798.png,7,93,live
84,A1QVNF19XSRSD7:369J354OFFHW5AU546GVRPOC3B76GI,1485,120202_0.005050505050505083.png,6,94,live
85,A1QVNF19XSRSD7:369J354OFFHW5AU546GVRPOC3B76GI,2554,187715_0.297979797979798.png,6,95,live
86,A1QVNF19XSRSD7:369J354OFFHW5AU546GVRPOC3B76GI,2162,040428_-0.06565656565656564.png,5,96,live
87,A1QVNF19XSRSD7:369J354OFFHW5AU546GVRPOC3B76GI,1668,170032_0.3484848484848485.png,4,97,live
88,A1QVNF19XSRSD7:369J354OFFHW5AU546GVRPOC3B76GI,2479,125460_-0.0050505050505050275.png,5,98,live
89,A1QVNF19XSRSD7:369J354OFFHW5AU546GVRPOC3B76GI,1720,196291_-0.24747474747474746.png,5,99,live
90,A1QVNF19XSRSD7:369J354OFFHW5AU546GVRPOC3B76GI,1741,165313_-0.11616161616161613.png,6,101,live
91,A1QVNF19XSRSD7:369J354OFFHW5AU546GVRPOC3B76GI,1407,135421_0.045454545454545525.png,6,102,live
92,A1QVNF19XSRSD7:369J354OFFHW5AU546GVRPOC3B76GI,1371,005839_0.45959595959595967.png,5,103,live
93,A1QVNF19XSRSD7:369J354OFFHW5AU546GVRPOC3B76GI,1926,140101_0.09595959595959602.png,4,104,live
94,A1QVNF19XSRSD7:369J354OFFHW5AU546GVRPOC3B76GI,1688,021699_0.5.png,4,105,live
95,A1QVNF19XSRSD7:369J354OFFHW5AU546GVRPOC3B76GI,1969,141781_0.14646464646464652.png,3,106,live
96,A1QVNF19XSRSD7:369J354OFFHW5AU546GVRPOC3B76GI,1689,135637_0.015151515151515249.png,7,107,live
97,A1QVNF19XSRSD7:369J354OFFHW5AU546GVRPOC3B76GI,1629,177685_-0.41919191919191917.png,6,108,live
98,A1QVNF19XSRSD7:369J354OFFHW5AU546GVRPOC3B76GI,2050,135421_0.045454545454545525.png,7,109,live
99,A1QVNF19XSRSD7:369J354OFFHW5AU546GVRPOC3B76GI,1714,066124_-0.25757575757575757.png,6,110,live
100,AOWY4TEB0UCMX:3P4RDNWND7DMPWF7EDANL56X4URJI1,10138,075861_0.43939393939393945.png,5,2,live
101,AOWY4TEB0UCMX:3P4RDNWND7DMPWF7EDANL56X4URJI1,4106,040428_-0.06565656565656564.png,6,3,live
102,AOWY4TEB0UCMX:3P4RDNWND7DMPWF7EDANL56X4URJI1,3478,177685_-0.41919191919191917.png,4,4,live
103,AOWY4TEB0UCMX:3P4RDNWND7DMPWF7EDANL56X4URJI1,4514,051002_-0.4696969696969697.png,4,5,live
104,AOWY4TEB0UCMX:3P4RDNWND7DMPWF7EDANL56X4URJI1,3926,179053_-0.2777777777777778.png,5,6,live
105,AOWY4TEB0UCMX:3P4RDNWND7DMPWF7EDANL56X4URJI1,4177,040946_0.3080808080808082.png,6,7,live
106,AOWY4TEB0UCMX:3P4RDNWND7DMPWF7EDANL56X4URJI1,2909,135421_0.045454545454545525.png,7,8,live
107,AOWY4TEB0UCMX:3P4RDNWND7DMPWF7EDANL56X4URJI1,5138,015409_-0.13636363636363635.png,1,9,live
108,AOWY4TEB0UCMX:3P4RDNWND7DMPWF7EDANL56X4URJI1,4739,140101_0.09595959595959602.png,5,10,live
109,AOWY4TEB0UCMX:3P4RDNWND7DMPWF7EDANL56X4URJI1,4413,017660_-0.025252525252525193.png,5,11,live
110,AOWY4TEB0UCMX:3P4RDNWND7DMPWF7EDANL56X4URJI1,8344,106232_-0.4797979797979798.png,6,13,live
111,AOWY4TEB0UCMX:3P4RDNWND7DMPWF7EDANL56X4URJI1,3739,165313_-0.11616161616161613.png,5,14,live
112,AOWY4TEB0UCMX:3P4RDNWND7DMPWF7EDANL56X4URJI1,4310,186898_-0.035353535353535304.png,6,15,live
113,AOWY4TEB0UCMX:3P4RDNWND7DMPWF7EDANL56X4URJI1,4309,164022_0.025252525252525304.png,6,16,live
114,AOWY4TEB0UCMX:3P4RDNWND7DMPWF7EDANL56X4URJI1,3902,017328_-0.12626262626262624.png,6,17,live
115,AOWY4TEB0UCMX:3P4RDNWND7DMPWF7EDANL56X4URJI1,3529,127006_0.3282828282828284.png,8,18,live
116,AOWY4TEB0UCMX:3P4RDNWND7DMPWF7EDANL56X4URJI1,3346,135637_0.015151515151515249.png,3,19,live
117,AOWY4TEB0UCMX:3P4RDNWND7DMPWF7EDANL56X4URJI1,5718,165771_0.26767676767676774.png,4,20,live
118,AOWY4TEB0UCMX:3P4RDNWND7DMPWF7EDANL56X4URJI1,4307,140101_0.09595959595959602.png,5,21,live
119,AOWY4TEB0UCMX:3P4RDNWND7DMPWF7EDANL56X4URJI1,3080,179053_-0.2777777777777778.png,5,22,live
120,AOWY4TEB0UCMX:3P4RDNWND7DMPWF7EDANL56X4URJI1,7397,122663_0.0757575757575758.png,6,24,live
121,AOWY4TEB0UCMX:3P4RDNWND7DMPWF7EDANL56X4URJI1,5044,141987_-0.29797979797979796.png,5,25,live
122,AOWY4TEB0UCMX:3P4RDNWND7DMPWF7EDANL56X4URJI1,3792,040946_0.3080808080808082.png,6,26,live
123,AOWY4TEB0UCMX:3P4RDNWND7DMPWF7EDANL56X4URJI1,3236,180549_0.03535353535353536.png,3,27,live
124,AOWY4TEB0UCMX:3P4RDNWND7DMPWF7EDANL56X4URJI1,5066,164022_0.025252525252525304.png,6,28,live
125,AOWY4TEB0UCMX:3P4RDNWND7DMPWF7EDANL56X4URJI1,5224,197011_0.21717171717171724.png,5,29,live
126,AOWY4TEB0UCMX:3P4RDNWND7DMPWF7EDANL56X4URJI1,3410,156125_0.13636363636363646.png,3,30,live
127,AOWY4TEB0UCMX:3P4RDNWND7DMPWF7EDANL56X4URJI1,3119,165313_-0.11616161616161613.png,5,31,live
128,AOWY4TEB0UCMX:3P4RDNWND7DMPWF7EDANL56X4URJI1,3870,187715_0.297979797979798.png,7,32,live
129,AOWY4TEB0UCMX:3P4RDNWND7DMPWF7EDANL56X4URJI1,3519,195524_0.4191919191919192.png,4,33,live
130,AOWY4TEB0UCMX:3P4RDNWND7DMPWF7EDANL56X4URJI1,9199,178771_-0.3484848484848485.png,7,35,live
131,AOWY4TEB0UCMX:3P4RDNWND7DMPWF7EDANL56X4URJI1,4300,186898_-0.035353535353535304.png,6,36,live
132,AOWY4TEB0UCMX:3P4RDNWND7DMPWF7EDANL56X4URJI1,3738,065751_0.16666666666666674.png,6,37,live
133,AOWY4TEB0UCMX:3P4RDNWND7DMPWF7EDANL56X4URJI1,3815,165927_-0.19696969696969696.png,3,38,live
134,AOWY4TEB0UCMX:3P4RDNWND7DMPWF7EDANL56X4URJI1,3416,131690_0.2575757575757577.png,7,39,live
135,AOWY4TEB0UCMX:3P4RDNWND7DMPWF7EDANL56X4URJI1,2642,135637_0.015151515151515249.png,3,40,live
136,AOWY4TEB0UCMX:3P4RDNWND7DMPWF7EDANL56X4URJI1,4378,081501_-0.3888888888888889.png,4,41,live
137,AOWY4TEB0UCMX:3P4RDNWND7DMPWF7EDANL56X4URJI1,7494,153694_-0.4898989898989899.png,4,42,live
138,AOWY4TEB0UCMX:3P4RDNWND7DMPWF7EDANL56X4URJI1,2642,162991_-0.1464646464646464.png,6,43,live
139,AOWY4TEB0UCMX:3P4RDNWND7DMPWF7EDANL56X4URJI1,4181,003566_0.11616161616161624.png,2,44,live
140,AOWY4TEB0UCMX:3P4RDNWND7DMPWF7EDANL56X4URJI1,4947,034745_0.28787878787878796.png,9,46,live
141,AOWY4TEB0UCMX:3P4RDNWND7DMPWF7EDANL56X4URJI1,3510,170263_0.4494949494949496.png,9,47,live
142,AOWY4TEB0UCMX:3P4RDNWND7DMPWF7EDANL56X4URJI1,4370,062768_-0.15656565656565652.png,4,48,live
143,AOWY4TEB0UCMX:3P4RDNWND7DMPWF7EDANL56X4URJI1,3125,104389_0.40909090909090917.png,6,49,live
144,AOWY4TEB0UCMX:3P4RDNWND7DMPWF7EDANL56X4URJI1,3505,005291_0.4797979797979799.png,5,50,live
145,AOWY4TEB0UCMX:3P4RDNWND7DMPWF7EDANL56X4URJI1,2758,156125_0.13636363636363646.png,3,51,live
146,AOWY4TEB0UCMX:3P4RDNWND7DMPWF7EDANL56X4URJI1,4198,046067_0.19696969696969702.png,6,52,live
147,AOWY4TEB0UCMX:3P4RDNWND7DMPWF7EDANL56X4URJI1,3011,120202_0.005050505050505083.png,5,53,live
148,AOWY4TEB0UCMX:3P4RDNWND7DMPWF7EDANL56X4URJI1,3400,141987_-0.29797979797979796.png,5,54,live
149,AOWY4TEB0UCMX:3P4RDNWND7DMPWF7EDANL56X4URJI1,3658,066124_-0.25757575757575757.png,6,55,live
150,AOWY4TEB0UCMX:3P4RDNWND7DMPWF7EDANL56X4URJI1,5709,026046_0.06565656565656575.png,4,57,live
151,AOWY4TEB0UCMX:3P4RDNWND7DMPWF7EDANL56X4URJI1,5137,005839_0.45959595959595967.png,8,58,live
152,AOWY4TEB0UCMX:3P4RDNWND7DMPWF7EDANL56X4URJI1,2728,035632_-0.2676767676767676.png,6,59,live
153,AOWY4TEB0UCMX:3P4RDNWND7DMPWF7EDANL56X4URJI1,4442,187313_-0.20707070707070707.png,5,60,live
154,AOWY4TEB0UCMX:3P4RDNWND7DMPWF7EDANL56X4URJI1,4322,159919_0.1767676767676768.png,8,61,live
155,AOWY4TEB0UCMX:3P4RDNWND7DMPWF7EDANL56X4URJI1,3416,036503_-0.4494949494949495.png,9,62,live
156,AOWY4TEB0UCMX:3P4RDNWND7DMPWF7EDANL56X4URJI1,6732,198895_-0.4393939393939394.png,7,63,live
157,AOWY4TEB0UCMX:3P4RDNWND7DMPWF7EDANL56X4URJI1,2830,104389_0.40909090909090917.png,6,64,live
158,AOWY4TEB0UCMX:3P4RDNWND7DMPWF7EDANL56X4URJI1,3721,192160_0.3585858585858587.png,6,65,live
159,AOWY4TEB0UCMX:3P4RDNWND7DMPWF7EDANL56X4URJI1,3127,112902_-0.398989898989899.png,6,66,live
160,AOWY4TEB0UCMX:3P4RDNWND7DMPWF7EDANL56X4URJI1,3939,200785_0.2777777777777778.png,7,68,live
161,AOWY4TEB0UCMX:3P4RDNWND7DMPWF7EDANL56X4URJI1,3680,088129_0.2272727272727273.png,4,69,live
162,AOWY4TEB0UCMX:3P4RDNWND7DMPWF7EDANL56X4URJI1,5840,025236_0.05555555555555558.png,1,70,live
163,AOWY4TEB0UCMX:3P4RDNWND7DMPWF7EDANL56X4URJI1,2987,062769_0.3989898989898991.png,8,71,live
164,AOWY4TEB0UCMX:3P4RDNWND7DMPWF7EDANL56X4URJI1,3209,196291_-0.24747474747474746.png,7,72,live
165,AOWY4TEB0UCMX:3P4RDNWND7DMPWF7EDANL56X4URJI1,2986,087481_-0.015151515151515138.png,8,73,live
166,AOWY4TEB0UCMX:3P4RDNWND7DMPWF7EDANL56X4URJI1,3196,021699_0.5.png,2,74,live
167,AOWY4TEB0UCMX:3P4RDNWND7DMPWF7EDANL56X4URJI1,3312,107379_-0.3181818181818182.png,1,75,live
168,AOWY4TEB0UCMX:3P4RDNWND7DMPWF7EDANL56X4URJI1,3469,131742_-0.23737373737373735.png,5,76,live
169,AOWY4TEB0UCMX:3P4RDNWND7DMPWF7EDANL56X4URJI1,3761,170306_-0.21717171717171713.png,7,77,live
170,AOWY4TEB0UCMX:3P4RDNWND7DMPWF7EDANL56X4URJI1,3320,112214_-0.055555555555555525.png,7,79,live
171,AOWY4TEB0UCMX:3P4RDNWND7DMPWF7EDANL56X4URJI1,5621,125460_-0.0050505050505050275.png,8,80,live
172,AOWY4TEB0UCMX:3P4RDNWND7DMPWF7EDANL56X4URJI1,2672,053976_0.10606060606060608.png,6,81,live
173,AOWY4TEB0UCMX:3P4RDNWND7DMPWF7EDANL56X4URJI1,3190,066335_0.3787878787878789.png,7,82,live
174,AOWY4TEB0UCMX:3P4RDNWND7DMPWF7EDANL56X4URJI1,3516,064914_-0.07575757575757575.png,3,83,live
175,AOWY4TEB0UCMX:3P4RDNWND7DMPWF7EDANL56X4URJI1,3603,122663_0.0757575757575758.png,6,84,live
176,AOWY4TEB0UCMX:3P4RDNWND7DMPWF7EDANL56X4URJI1,2705,135421_0.045454545454545525.png,6,85,live
177,AOWY4TEB0UCMX:3P4RDNWND7DMPWF7EDANL56X4URJI1,3118,112214_-0.055555555555555525.png,6,86,live
178,AOWY4TEB0UCMX:3P4RDNWND7DMPWF7EDANL56X4URJI1,3331,135849_0.36868686868686873.png,8,87,live
179,AOWY4TEB0UCMX:3P4RDNWND7DMPWF7EDANL56X4URJI1,3110,147096_0.4696969696969697.png,4,88,live
180,AOWY4TEB0UCMX:3P4RDNWND7DMPWF7EDANL56X4URJI1,5176,099209_-0.045454545454545414.png,6,90,live
181,AOWY4TEB0UCMX:3P4RDNWND7DMPWF7EDANL56X4URJI1,3416,106232_-0.4797979797979798.png,7,91,live
182,AOWY4TEB0UCMX:3P4RDNWND7DMPWF7EDANL56X4URJI1,3257,170842_-0.09595959595959591.png,7,92,live
183,AOWY4TEB0UCMX:3P4RDNWND7DMPWF7EDANL56X4URJI1,3540,108588_0.15656565656565657.png,8,93,live
184,AOWY4TEB0UCMX:3P4RDNWND7DMPWF7EDANL56X4URJI1,2890,159336_0.20707070707070718.png,5,94,live
185,AOWY4TEB0UCMX:3P4RDNWND7DMPWF7EDANL56X4URJI1,3765,135849_0.36868686868686873.png,8,95,live
186,AOWY4TEB0UCMX:3P4RDNWND7DMPWF7EDANL56X4URJI1,3019,180549_0.03535353535353536.png,4,96,live
187,AOWY4TEB0UCMX:3P4RDNWND7DMPWF7EDANL56X4URJI1,3986,170032_0.3484848484848485.png,5,97,live
188,AOWY4TEB0UCMX:3P4RDNWND7DMPWF7EDANL56X4URJI1,2944,078578_-0.28787878787878785.png,8,98,live
189,AOWY4TEB0UCMX:3P4RDNWND7DMPWF7EDANL56X4URJI1,2642,005291_0.4797979797979799.png,5,99,live
190,AOWY4TEB0UCMX:3P4RDNWND7DMPWF7EDANL56X4URJI1,4688,141781_0.14646464646464652.png,6,101,live
191,AOWY4TEB0UCMX:3P4RDNWND7DMPWF7EDANL56X4URJI1,4363,043227_-0.10606060606060602.png,5,102,live
192,AOWY4TEB0UCMX:3P4RDNWND7DMPWF7EDANL56X4URJI1,3955,177685_-0.41919191919191917.png,5,103,live
193,AOWY4TEB0UCMX:3P4RDNWND7DMPWF7EDANL56X4URJI1,4907,063261_0.33838383838383845.png,4,104,live
194,AOWY4TEB0UCMX:3P4RDNWND7DMPWF7EDANL56X4URJI1,2563,062768_-0.15656565656565652.png,4,105,live
195,AOWY4TEB0UCMX:3P4RDNWND7DMPWF7EDANL56X4URJI1,2687,056825_0.24747474747474751.png,5,106,live
196,AOWY4TEB0UCMX:3P4RDNWND7DMPWF7EDANL56X4URJI1,3455,098800_-0.4292929292929293.png,5,107,live
197,AOWY4TEB0UCMX:3P4RDNWND7DMPWF7EDANL56X4URJI1,2951,043227_-0.10606060606060602.png,6,108,live
198,AOWY4TEB0UCMX:3P4RDNWND7DMPWF7EDANL56X4URJI1,2906,188020_-0.16666666666666663.png,4,109,live
199,AOWY4TEB0UCMX:3P4RDNWND7DMPWF7EDANL56X4URJI1,3728,119066_-0.22727272727272724.png,4,110,live
200,AOOGCOBAZBWJ2:3I33IC7ZWH97DIY1V4CI5QWXPBXA2Y,5780,120202_0.005050505050505083.png,6,2,live
201,AOOGCOBAZBWJ2:3I33IC7ZWH97DIY1V4CI5QWXPBXA2Y,3843,188020_-0.16666666666666663.png,5,3,live
202,AOOGCOBAZBWJ2:3I33IC7ZWH97DIY1V4CI5QWXPBXA2Y,5356,179053_-0.2777777777777778.png,5,4,live
203,AOOGCOBAZBWJ2:3I33IC7ZWH97DIY1V4CI5QWXPBXA2Y,4331,017660_-0.025252525252525193.png,7,5,live
204,AOOGCOBAZBWJ2:3I33IC7ZWH97DIY1V4CI5QWXPBXA2Y,4523,034745_0.28787878787878796.png,8,6,live
205,AOOGCOBAZBWJ2:3I33IC7ZWH97DIY1V4CI5QWXPBXA2Y,4199,135421_0.045454545454545525.png,7,7,live
206,AOOGCOBAZBWJ2:3I33IC7ZWH97DIY1V4CI5QWXPBXA2Y,4813,056825_0.24747474747474751.png,5,8,live
207,AOOGCOBAZBWJ2:3I33IC7ZWH97DIY1V4CI5QWXPBXA2Y,4814,170263_0.4494949494949496.png,7,9,live
208,AOOGCOBAZBWJ2:3I33IC7ZWH97DIY1V4CI5QWXPBXA2Y,4697,066124_-0.25757575757575757.png,4,10,live
209,AOOGCOBAZBWJ2:3I33IC7ZWH97DIY1V4CI5QWXPBXA2Y,6181,005839_0.45959595959595967.png,6,11,live
210,AOOGCOBAZBWJ2:3I33IC7ZWH97DIY1V4CI5QWXPBXA2Y,7562,053976_0.10606060606060608.png,4,13,live
211,AOOGCOBAZBWJ2:3I33IC7ZWH97DIY1V4CI5QWXPBXA2Y,3675,051002_-0.4696969696969697.png,6,14,live
212,AOOGCOBAZBWJ2:3I33IC7ZWH97DIY1V4CI5QWXPBXA2Y,3425,159336_0.20707070707070718.png,5,15,live
213,AOOGCOBAZBWJ2:3I33IC7ZWH97DIY1V4CI5QWXPBXA2Y,3416,104389_0.40909090909090917.png,3,16,live
214,AOOGCOBAZBWJ2:3I33IC7ZWH97DIY1V4CI5QWXPBXA2Y,4699,119066_-0.22727272727272724.png,6,17,live
215,AOOGCOBAZBWJ2:3I33IC7ZWH97DIY1V4CI5QWXPBXA2Y,4055,141987_-0.29797979797979796.png,7,18,live
216,AOOGCOBAZBWJ2:3I33IC7ZWH97DIY1V4CI5QWXPBXA2Y,3704,112902_-0.398989898989899.png,3,19,live
217,AOOGCOBAZBWJ2:3I33IC7ZWH97DIY1V4CI5QWXPBXA2Y,4306,141781_0.14646464646464652.png,7,20,live
218,AOOGCOBAZBWJ2:3I33IC7ZWH97DIY1V4CI5QWXPBXA2Y,4120,198895_-0.4393939393939394.png,6,21,live
219,AOOGCOBAZBWJ2:3I33IC7ZWH97DIY1V4CI5QWXPBXA2Y,4876,165771_0.26767676767676774.png,8,22,live
220,AOOGCOBAZBWJ2:3I33IC7ZWH97DIY1V4CI5QWXPBXA2Y,8196,087481_-0.015151515151515138.png,7,24,live
221,AOOGCOBAZBWJ2:3I33IC7ZWH97DIY1V4CI5QWXPBXA2Y,3752,026046_0.06565656565656575.png,7,25,live
222,AOOGCOBAZBWJ2:3I33IC7ZWH97DIY1V4CI5QWXPBXA2Y,4143,135849_0.36868686868686873.png,8,26,live
223,AOOGCOBAZBWJ2:3I33IC7ZWH97DIY1V4CI5QWXPBXA2Y,4909,040946_0.3080808080808082.png,2,27,live
224,AOOGCOBAZBWJ2:3I33IC7ZWH97DIY1V4CI5QWXPBXA2Y,3683,005291_0.4797979797979799.png,6,28,live
225,AOOGCOBAZBWJ2:3I33IC7ZWH97DIY1V4CI5QWXPBXA2Y,3359,106232_-0.4797979797979798.png,4,29,live
226,AOOGCOBAZBWJ2:3I33IC7ZWH97DIY1V4CI5QWXPBXA2Y,4435,005291_0.4797979797979799.png,7,30,live
227,AOOGCOBAZBWJ2:3I33IC7ZWH97DIY1V4CI5QWXPBXA2Y,3603,141987_-0.29797979797979796.png,6,31,live
228,AOOGCOBAZBWJ2:3I33IC7ZWH97DIY1V4CI5QWXPBXA2Y,4551,197011_0.21717171717171724.png,5,32,live
229,AOOGCOBAZBWJ2:3I33IC7ZWH97DIY1V4CI5QWXPBXA2Y,4283,196291_-0.24747474747474746.png,7,33,live
230,AOOGCOBAZBWJ2:3I33IC7ZWH97DIY1V4CI5QWXPBXA2Y,4918,127006_0.3282828282828284.png,8,35,live
231,AOOGCOBAZBWJ2:3I33IC7ZWH97DIY1V4CI5QWXPBXA2Y,6549,035632_-0.2676767676767676.png,5,36,live
232,AOOGCOBAZBWJ2:3I33IC7ZWH97DIY1V4CI5QWXPBXA2Y,5634,156125_0.13636363636363646.png,6,37,live
233,AOOGCOBAZBWJ2:3I33IC7ZWH97DIY1V4CI5QWXPBXA2Y,4744,153694_-0.4898989898989899.png,4,38,live
234,AOOGCOBAZBWJ2:3I33IC7ZWH97DIY1V4CI5QWXPBXA2Y,3837,098800_-0.4292929292929293.png,6,39,live
235,AOOGCOBAZBWJ2:3I33IC7ZWH97DIY1V4CI5QWXPBXA2Y,4558,179053_-0.2777777777777778.png,2,40,live
236,AOOGCOBAZBWJ2:3I33IC7ZWH97DIY1V4CI5QWXPBXA2Y,5032,147096_0.4696969696969697.png,3,41,live
237,AOOGCOBAZBWJ2:3I33IC7ZWH97DIY1V4CI5QWXPBXA2Y,3704,062768_-0.15656565656565652.png,3,42,live
238,AOOGCOBAZBWJ2:3I33IC7ZWH97DIY1V4CI5QWXPBXA2Y,5794,063261_0.33838383838383845.png,5,43,live
239,AOOGCOBAZBWJ2:3I33IC7ZWH97DIY1V4CI5QWXPBXA2Y,7005,062768_-0.15656565656565652.png,3,44,live
240,AOOGCOBAZBWJ2:3I33IC7ZWH97DIY1V4CI5QWXPBXA2Y,3743,125460_-0.0050505050505050275.png,6,46,live
241,AOOGCOBAZBWJ2:3I33IC7ZWH97DIY1V4CI5QWXPBXA2Y,4076,017328_-0.12626262626262624.png,7,47,live
242,AOOGCOBAZBWJ2:3I33IC7ZWH97DIY1V4CI5QWXPBXA2Y,4228,099209_-0.045454545454545414.png,7,48,live
243,AOOGCOBAZBWJ2:3I33IC7ZWH97DIY1V4CI5QWXPBXA2Y,3613,065751_0.16666666666666674.png,6,49,live
244,AOOGCOBAZBWJ2:3I33IC7ZWH97DIY1V4CI5QWXPBXA2Y,3666,088129_0.2272727272727273.png,3,50,live
245,AOOGCOBAZBWJ2:3I33IC7ZWH97DIY1V4CI5QWXPBXA2Y,3791,043227_-0.10606060606060602.png,6,51,live
246,AOOGCOBAZBWJ2:3I33IC7ZWH97DIY1V4CI5QWXPBXA2Y,8795,043227_-0.10606060606060602.png,7,52,live
247,AOOGCOBAZBWJ2:3I33IC7ZWH97DIY1V4CI5QWXPBXA2Y,4778,165927_-0.19696969696969696.png,2,53,live
248,AOOGCOBAZBWJ2:3I33IC7ZWH97DIY1V4CI5QWXPBXA2Y,3755,025236_0.05555555555555558.png,5,54,live
249,AOOGCOBAZBWJ2:3I33IC7ZWH97DIY1V4CI5QWXPBXA2Y,3441,131742_-0.23737373737373735.png,4,55,live
250,AOOGCOBAZBWJ2:3I33IC7ZWH97DIY1V4CI5QWXPBXA2Y,5025,062769_0.3989898989898991.png,9,57,live
251,AOOGCOBAZBWJ2:3I33IC7ZWH97DIY1V4CI5QWXPBXA2Y,3608,159919_0.1767676767676768.png,7,58,live
252,AOOGCOBAZBWJ2:3I33IC7ZWH97DIY1V4CI5QWXPBXA2Y,4576,122663_0.0757575757575758.png,8,59,live
253,AOOGCOBAZBWJ2:3I33IC7ZWH97DIY1V4CI5QWXPBXA2Y,3975,187715_0.297979797979798.png,7,60,live
254,AOOGCOBAZBWJ2:3I33IC7ZWH97DIY1V4CI5QWXPBXA2Y,4194,156125_0.13636363636363646.png,7,61,live
255,AOOGCOBAZBWJ2:3I33IC7ZWH97DIY1V4CI5QWXPBXA2Y,4514,164022_0.025252525252525304.png,5,62,live
256,AOOGCOBAZBWJ2:3I33IC7ZWH97DIY1V4CI5QWXPBXA2Y,3826,066335_0.3787878787878789.png,5,63,live
257,AOOGCOBAZBWJ2:3I33IC7ZWH97DIY1V4CI5QWXPBXA2Y,4876,177685_-0.41919191919191917.png,4,64,live
258,AOOGCOBAZBWJ2:3I33IC7ZWH97DIY1V4CI5QWXPBXA2Y,3944,200785_0.2777777777777778.png,2,65,live
259,AOOGCOBAZBWJ2:3I33IC7ZWH97DIY1V4CI5QWXPBXA2Y,3433,040946_0.3080808080808082.png,3,66,live
260,AOOGCOBAZBWJ2:3I33IC7ZWH97DIY1V4CI5QWXPBXA2Y,3453,104389_0.40909090909090917.png,2,68,live
261,AOOGCOBAZBWJ2:3I33IC7ZWH97DIY1V4CI5QWXPBXA2Y,3454,140101_0.09595959595959602.png,4,69,live
262,AOOGCOBAZBWJ2:3I33IC7ZWH97DIY1V4CI5QWXPBXA2Y,3556,135637_0.015151515151515249.png,5,70,live
263,AOOGCOBAZBWJ2:3I33IC7ZWH97DIY1V4CI5QWXPBXA2Y,3806,170032_0.3484848484848485.png,4,71,live
264,AOOGCOBAZBWJ2:3I33IC7ZWH97DIY1V4CI5QWXPBXA2Y,3939,177685_-0.41919191919191917.png,5,72,live
265,AOOGCOBAZBWJ2:3I33IC7ZWH97DIY1V4CI5QWXPBXA2Y,3194,040428_-0.06565656565656564.png,6,73,live
266,AOOGCOBAZBWJ2:3I33IC7ZWH97DIY1V4CI5QWXPBXA2Y,4087,187313_-0.20707070707070707.png,4,74,live
267,AOOGCOBAZBWJ2:3I33IC7ZWH97DIY1V4CI5QWXPBXA2Y,3299,192160_0.3585858585858587.png,4,75,live
268,AOOGCOBAZBWJ2:3I33IC7ZWH97DIY1V4CI5QWXPBXA2Y,5150,165313_-0.11616161616161613.png,5,76,live
269,AOOGCOBAZBWJ2:3I33IC7ZWH97DIY1V4CI5QWXPBXA2Y,3980,078578_-0.28787878787878785.png,7,77,live
270,AOOGCOBAZBWJ2:3I33IC7ZWH97DIY1V4CI5QWXPBXA2Y,4684,112214_-0.055555555555555525.png,7,79,live
271,AOOGCOBAZBWJ2:3I33IC7ZWH97DIY1V4CI5QWXPBXA2Y,3782,178771_-0.3484848484848485.png,5,80,live
272,AOOGCOBAZBWJ2:3I33IC7ZWH97DIY1V4CI5QWXPBXA2Y,3826,170306_-0.21717171717171713.png,8,81,live
273,AOOGCOBAZBWJ2:3I33IC7ZWH97DIY1V4CI5QWXPBXA2Y,5251,180549_0.03535353535353536.png,6,82,live
274,AOOGCOBAZBWJ2:3I33IC7ZWH97DIY1V4CI5QWXPBXA2Y,3460,195524_0.4191919191919192.png,4,83,live
275,AOOGCOBAZBWJ2:3I33IC7ZWH97DIY1V4CI5QWXPBXA2Y,3289,108588_0.15656565656565657.png,6,84,live
276,AOOGCOBAZBWJ2:3I33IC7ZWH97DIY1V4CI5QWXPBXA2Y,4546,064914_-0.07575757575757575.png,5,85,live
277,AOOGCOBAZBWJ2:3I33IC7ZWH97DIY1V4CI5QWXPBXA2Y,3978,021699_0.5.png,6,86,live
278,AOOGCOBAZBWJ2:3I33IC7ZWH97DIY1V4CI5QWXPBXA2Y,4076,081501_-0.3888888888888889.png,7,87,live
279,AOOGCOBAZBWJ2:3I33IC7ZWH97DIY1V4CI5QWXPBXA2Y,4130,046067_0.19696969696969702.png,1,88,live
280,AOOGCOBAZBWJ2:3I33IC7ZWH97DIY1V4CI5QWXPBXA2Y,3493,112214_-0.055555555555555525.png,6,90,live
281,AOOGCOBAZBWJ2:3I33IC7ZWH97DIY1V4CI5QWXPBXA2Y,3218,135637_0.015151515151515249.png,5,91,live
282,AOOGCOBAZBWJ2:3I33IC7ZWH97DIY1V4CI5QWXPBXA2Y,3426,186898_-0.035353535353535304.png,6,92,live
283,AOOGCOBAZBWJ2:3I33IC7ZWH97DIY1V4CI5QWXPBXA2Y,3916,135849_0.36868686868686873.png,9,93,live
284,AOOGCOBAZBWJ2:3I33IC7ZWH97DIY1V4CI5QWXPBXA2Y,3528,122663_0.0757575757575758.png,7,94,live
285,AOOGCOBAZBWJ2:3I33IC7ZWH97DIY1V4CI5QWXPBXA2Y,3439,135421_0.045454545454545525.png,7,95,live
286,AOOGCOBAZBWJ2:3I33IC7ZWH97DIY1V4CI5QWXPBXA2Y,3650,036503_-0.4494949494949495.png,7,96,live
287,AOOGCOBAZBWJ2:3I33IC7ZWH97DIY1V4CI5QWXPBXA2Y,3358,131690_0.2575757575757577.png,4,97,live
288,AOOGCOBAZBWJ2:3I33IC7ZWH97DIY1V4CI5QWXPBXA2Y,7470,003566_0.11616161616161624.png,6,98,live
289,AOOGCOBAZBWJ2:3I33IC7ZWH97DIY1V4CI5QWXPBXA2Y,3985,106232_-0.4797979797979798.png,5,99,live
290,AOOGCOBAZBWJ2:3I33IC7ZWH97DIY1V4CI5QWXPBXA2Y,3595,170842_-0.09595959595959591.png,5,101,live
291,AOOGCOBAZBWJ2:3I33IC7ZWH97DIY1V4CI5QWXPBXA2Y,9722,165313_-0.11616161616161613.png,5,102,live
292,AOOGCOBAZBWJ2:3I33IC7ZWH97DIY1V4CI5QWXPBXA2Y,9961,015409_-0.13636363636363635.png,4,103,live
293,AOOGCOBAZBWJ2:3I33IC7ZWH97DIY1V4CI5QWXPBXA2Y,3979,180549_0.03535353535353536.png,6,104,live
294,AOOGCOBAZBWJ2:3I33IC7ZWH97DIY1V4CI5QWXPBXA2Y,4642,075861_0.43939393939393945.png,5,105,live
295,AOOGCOBAZBWJ2:3I33IC7ZWH97DIY1V4CI5QWXPBXA2Y,3562,107379_-0.3181818181818182.png,7,106,live
296,AOOGCOBAZBWJ2:3I33IC7ZWH97DIY1V4CI5QWXPBXA2Y,4184,140101_0.09595959595959602.png,4,107,live
297,AOOGCOBAZBWJ2:3I33IC7ZWH97DIY1V4CI5QWXPBXA2Y,4227,162991_-0.1464646464646464.png,5,108,live
298,AOOGCOBAZBWJ2:3I33IC7ZWH97DIY1V4CI5QWXPBXA2Y,3116,186898_-0.035353535353535304.png,6,109,live
299,AOOGCOBAZBWJ2:3I33IC7ZWH97DIY1V4CI5QWXPBXA2Y,4300,164022_0.025252525252525304.png,7,110,live
300,A22VACRM9GC73M:30OG32W0SWI6SH46XSCOTXPMLMRNE4,10732,075861_0.43939393939393945.png,7,2,live
301,A22VACRM9GC73M:30OG32W0SWI6SH46XSCOTXPMLMRNE4,3438,165313_-0.11616161616161613.png,3,3,live
302,A22VACRM9GC73M:30OG32W0SWI6SH46XSCOTXPMLMRNE4,3623,195524_0.4191919191919192.png,6,4,live
303,A22VACRM9GC73M:30OG32W0SWI6SH46XSCOTXPMLMRNE4,3630,005291_0.4797979797979799.png,2,5,live
304,A22VACRM9GC73M:30OG32W0SWI6SH46XSCOTXPMLMRNE4,3650,078578_-0.28787878787878785.png,8,6,live
305,A22VACRM9GC73M:30OG32W0SWI6SH46XSCOTXPMLMRNE4,5064,127006_0.3282828282828284.png,6,7,live
306,A22VACRM9GC73M:30OG32W0SWI6SH46XSCOTXPMLMRNE4,4049,056825_0.24747474747474751.png,4,8,live
307,A22VACRM9GC73M:30OG32W0SWI6SH46XSCOTXPMLMRNE4,6016,153694_-0.4898989898989899.png,4,9,live
308,A22VACRM9GC73M:30OG32W0SWI6SH46XSCOTXPMLMRNE4,3026,200785_0.2777777777777778.png,5,10,live
309,A22VACRM9GC73M:30OG32W0SWI6SH46XSCOTXPMLMRNE4,2800,062768_-0.15656565656565652.png,4,11,live
310,A22VACRM9GC73M:30OG32W0SWI6SH46XSCOTXPMLMRNE4,4385,112214_-0.055555555555555525.png,5,13,live
311,A22VACRM9GC73M:30OG32W0SWI6SH46XSCOTXPMLMRNE4,6243,040428_-0.06565656565656564.png,7,14,live
312,A22VACRM9GC73M:30OG32W0SWI6SH46XSCOTXPMLMRNE4,4018,177685_-0.41919191919191917.png,5,15,live
313,A22VACRM9GC73M:30OG32W0SWI6SH46XSCOTXPMLMRNE4,3618,043227_-0.10606060606060602.png,3,16,live
314,A22VACRM9GC73M:30OG32W0SWI6SH46XSCOTXPMLMRNE4,2647,120202_0.005050505050505083.png,5,17,live
315,A22VACRM9GC73M:30OG32W0SWI6SH46XSCOTXPMLMRNE4,3617,119066_-0.22727272727272724.png,3,18,live
316,A22VACRM9GC73M:30OG32W0SWI6SH46XSCOTXPMLMRNE4,3077,140101_0.09595959595959602.png,4,19,live
317,A22VACRM9GC73M:30OG32W0SWI6SH46XSCOTXPMLMRNE4,2759,098800_-0.4292929292929293.png,4,20,live
318,A22VACRM9GC73M:30OG32W0SWI6SH46XSCOTXPMLMRNE4,3557,198895_-0.4393939393939394.png,5,21,live
319,A22VACRM9GC73M:30OG32W0SWI6SH46XSCOTXPMLMRNE4,4454,164022_0.025252525252525304.png,5,22,live
320,A22VACRM9GC73M:30OG32W0SWI6SH46XSCOTXPMLMRNE4,3517,186898_-0.035353535353535304.png,3,24,live
321,A22VACRM9GC73M:30OG32W0SWI6SH46XSCOTXPMLMRNE4,2672,192160_0.3585858585858587.png,4,25,live
322,A22VACRM9GC73M:30OG32W0SWI6SH46XSCOTXPMLMRNE4,5216,066335_0.3787878787878789.png,5,26,live
323,A22VACRM9GC73M:30OG32W0SWI6SH46XSCOTXPMLMRNE4,3865,125460_-0.0050505050505050275.png,7,27,live
324,A22VACRM9GC73M:30OG32W0SWI6SH46XSCOTXPMLMRNE4,3206,179053_-0.2777777777777778.png,5,28,live
325,A22VACRM9GC73M:30OG32W0SWI6SH46XSCOTXPMLMRNE4,4942,025236_0.05555555555555558.png,5,29,live
326,A22VACRM9GC73M:30OG32W0SWI6SH46XSCOTXPMLMRNE4,3376,034745_0.28787878787878796.png,5,30,live
327,A22VACRM9GC73M:30OG32W0SWI6SH46XSCOTXPMLMRNE4,3198,053976_0.10606060606060608.png,5,31,live
328,A22VACRM9GC73M:30OG32W0SWI6SH46XSCOTXPMLMRNE4,2838,040946_0.3080808080808082.png,4,32,live
329,A22VACRM9GC73M:30OG32W0SWI6SH46XSCOTXPMLMRNE4,2819,063261_0.33838383838383845.png,4,33,live
330,A22VACRM9GC73M:30OG32W0SWI6SH46XSCOTXPMLMRNE4,4964,021699_0.5.png,7,35,live
331,A22VACRM9GC73M:30OG32W0SWI6SH46XSCOTXPMLMRNE4,5554,112902_-0.398989898989899.png,4,36,live
332,A22VACRM9GC73M:30OG32W0SWI6SH46XSCOTXPMLMRNE4,3608,005291_0.4797979797979799.png,2,37,live
333,A22VACRM9GC73M:30OG32W0SWI6SH46XSCOTXPMLMRNE4,2805,065751_0.16666666666666674.png,3,38,live
334,A22VACRM9GC73M:30OG32W0SWI6SH46XSCOTXPMLMRNE4,3001,162991_-0.1464646464646464.png,3,39,live
335,A22VACRM9GC73M:30OG32W0SWI6SH46XSCOTXPMLMRNE4,2597,186898_-0.035353535353535304.png,3,40,live
336,A22VACRM9GC73M:30OG32W0SWI6SH46XSCOTXPMLMRNE4,3564,081501_-0.3888888888888889.png,5,41,live
337,A22VACRM9GC73M:30OG32W0SWI6SH46XSCOTXPMLMRNE4,3057,170032_0.3484848484848485.png,6,42,live
338,A22VACRM9GC73M:30OG32W0SWI6SH46XSCOTXPMLMRNE4,2645,104389_0.40909090909090917.png,4,43,live
339,A22VACRM9GC73M:30OG32W0SWI6SH46XSCOTXPMLMRNE4,2767,087481_-0.015151515151515138.png,5,44,live
340,A22VACRM9GC73M:30OG32W0SWI6SH46XSCOTXPMLMRNE4,5390,141987_-0.29797979797979796.png,3,46,live
341,A22VACRM9GC73M:30OG32W0SWI6SH46XSCOTXPMLMRNE4,3874,187313_-0.20707070707070707.png,4,47,live
342,A22VACRM9GC73M:30OG32W0SWI6SH46XSCOTXPMLMRNE4,2306,156125_0.13636363636363646.png,5,48,live
343,A22VACRM9GC73M:30OG32W0SWI6SH46XSCOTXPMLMRNE4,2744,122663_0.0757575757575758.png,6,49,live
344,A22VACRM9GC73M:30OG32W0SWI6SH46XSCOTXPMLMRNE4,3108,141781_0.14646464646464652.png,7,50,live
345,A22VACRM9GC73M:30OG32W0SWI6SH46XSCOTXPMLMRNE4,3281,062769_0.3989898989898991.png,5,51,live
346,A22VACRM9GC73M:30OG32W0SWI6SH46XSCOTXPMLMRNE4,3563,187715_0.297979797979798.png,5,52,live
347,A22VACRM9GC73M:30OG32W0SWI6SH46XSCOTXPMLMRNE4,2738,165771_0.26767676767676774.png,4,53,live
348,A22VACRM9GC73M:30OG32W0SWI6SH46XSCOTXPMLMRNE4,3863,017660_-0.025252525252525193.png,5,54,live
349,A22VACRM9GC73M:30OG32W0SWI6SH46XSCOTXPMLMRNE4,3815,046067_0.19696969696969702.png,5,55,live
350,A22VACRM9GC73M:30OG32W0SWI6SH46XSCOTXPMLMRNE4,7685,051002_-0.4696969696969697.png,5,57,live
351,A22VACRM9GC73M:30OG32W0SWI6SH46XSCOTXPMLMRNE4,2349,156125_0.13636363636363646.png,5,58,live
352,A22VACRM9GC73M:30OG32W0SWI6SH46XSCOTXPMLMRNE4,3845,035632_-0.2676767676767676.png,5,59,live
353,A22VACRM9GC73M:30OG32W0SWI6SH46XSCOTXPMLMRNE4,4662,196291_-0.24747474747474746.png,8,60,live
354,A22VACRM9GC73M:30OG32W0SWI6SH46XSCOTXPMLMRNE4,3048,040946_0.3080808080808082.png,4,61,live
355,A22VACRM9GC73M:30OG32W0SWI6SH46XSCOTXPMLMRNE4,4631,108588_0.15656565656565657.png,3,62,live
356,A22VACRM9GC73M:30OG32W0SWI6SH46XSCOTXPMLMRNE4,3469,099209_-0.045454545454545414.png,3,63,live
357,A22VACRM9GC73M:30OG32W0SWI6SH46XSCOTXPMLMRNE4,6563,062768_-0.15656565656565652.png,4,64,live
358,A22VACRM9GC73M:30OG32W0SWI6SH46XSCOTXPMLMRNE4,3680,131742_-0.23737373737373735.png,4,65,live
359,A22VACRM9GC73M:30OG32W0SWI6SH46XSCOTXPMLMRNE4,4433,015409_-0.13636363636363635.png,4,66,live
360,A22VACRM9GC73M:30OG32W0SWI6SH46XSCOTXPMLMRNE4,3852,107379_-0.3181818181818182.png,5,68,live
361,A22VACRM9GC73M:30OG32W0SWI6SH46XSCOTXPMLMRNE4,3820,122663_0.0757575757575758.png,5,69,live
362,A22VACRM9GC73M:30OG32W0SWI6SH46XSCOTXPMLMRNE4,6136,177685_-0.41919191919191917.png,5,70,live
363,A22VACRM9GC73M:30OG32W0SWI6SH46XSCOTXPMLMRNE4,3912,112214_-0.055555555555555525.png,5,71,live
364,A22VACRM9GC73M:30OG32W0SWI6SH46XSCOTXPMLMRNE4,4110,180549_0.03535353535353536.png,6,72,live
365,A22VACRM9GC73M:30OG32W0SWI6SH46XSCOTXPMLMRNE4,5391,188020_-0.16666666666666663.png,5,73,live
366,A22VACRM9GC73M:30OG32W0SWI6SH46XSCOTXPMLMRNE4,2792,066124_-0.25757575757575757.png,4,74,live
367,A22VACRM9GC73M:30OG32W0SWI6SH46XSCOTXPMLMRNE4,4672,135637_0.015151515151515249.png,3,75,live
368,A22VACRM9GC73M:30OG32W0SWI6SH46XSCOTXPMLMRNE4,3389,036503_-0.4494949494949495.png,5,76,live
369,A22VACRM9GC73M:30OG32W0SWI6SH46XSCOTXPMLMRNE4,3455,179053_-0.2777777777777778.png,5,77,live
370,A22VACRM9GC73M:30OG32W0SWI6SH46XSCOTXPMLMRNE4,3582,043227_-0.10606060606060602.png,3,79,live
371,A22VACRM9GC73M:30OG32W0SWI6SH46XSCOTXPMLMRNE4,2566,017328_-0.12626262626262624.png,6,80,live
372,A22VACRM9GC73M:30OG32W0SWI6SH46XSCOTXPMLMRNE4,3720,159336_0.20707070707070718.png,4,81,live
373,A22VACRM9GC73M:30OG32W0SWI6SH46XSCOTXPMLMRNE4,3654,106232_-0.4797979797979798.png,5,82,live
374,A22VACRM9GC73M:30OG32W0SWI6SH46XSCOTXPMLMRNE4,4456,147096_0.4696969696969697.png,4,83,live
375,A22VACRM9GC73M:30OG32W0SWI6SH46XSCOTXPMLMRNE4,3179,135421_0.045454545454545525.png,7,84,live
376,A22VACRM9GC73M:30OG32W0SWI6SH46XSCOTXPMLMRNE4,4044,197011_0.21717171717171724.png,5,85,live
377,A22VACRM9GC73M:30OG32W0SWI6SH46XSCOTXPMLMRNE4,4119,170842_-0.09595959595959591.png,6,86,live
378,A22VACRM9GC73M:30OG32W0SWI6SH46XSCOTXPMLMRNE4,2791,159919_0.1767676767676768.png,5,87,live
379,A22VACRM9GC73M:30OG32W0SWI6SH46XSCOTXPMLMRNE4,3172,141987_-0.29797979797979796.png,2,88,live
380,A22VACRM9GC73M:30OG32W0SWI6SH46XSCOTXPMLMRNE4,2811,064914_-0.07575757575757575.png,5,90,live
381,A22VACRM9GC73M:30OG32W0SWI6SH46XSCOTXPMLMRNE4,3310,088129_0.2272727272727273.png,4,91,live
382,A22VACRM9GC73M:30OG32W0SWI6SH46XSCOTXPMLMRNE4,2518,026046_0.06565656565656575.png,5,92,live
383,A22VACRM9GC73M:30OG32W0SWI6SH46XSCOTXPMLMRNE4,2991,165927_-0.19696969696969696.png,5,93,live
384,A22VACRM9GC73M:30OG32W0SWI6SH46XSCOTXPMLMRNE4,2344,106232_-0.4797979797979798.png,5,94,live
385,A22VACRM9GC73M:30OG32W0SWI6SH46XSCOTXPMLMRNE4,5868,131690_0.2575757575757577.png,6,95,live
386,A22VACRM9GC73M:30OG32W0SWI6SH46XSCOTXPMLMRNE4,2991,178771_-0.3484848484848485.png,5,96,live
387,A22VACRM9GC73M:30OG32W0SWI6SH46XSCOTXPMLMRNE4,2290,180549_0.03535353535353536.png,6,97,live
388,A22VACRM9GC73M:30OG32W0SWI6SH46XSCOTXPMLMRNE4,4317,003566_0.11616161616161624.png,5,98,live
389,A22VACRM9GC73M:30OG32W0SWI6SH46XSCOTXPMLMRNE4,4255,165313_-0.11616161616161613.png,3,99,live
390,A22VACRM9GC73M:30OG32W0SWI6SH46XSCOTXPMLMRNE4,3210,135849_0.36868686868686873.png,8,101,live
391,A22VACRM9GC73M:30OG32W0SWI6SH46XSCOTXPMLMRNE4,4264,170306_-0.21717171717171713.png,6,102,live
392,A22VACRM9GC73M:30OG32W0SWI6SH46XSCOTXPMLMRNE4,3060,135849_0.36868686868686873.png,8,103,live
393,A22VACRM9GC73M:30OG32W0SWI6SH46XSCOTXPMLMRNE4,2566,164022_0.025252525252525304.png,5,104,live
394,A22VACRM9GC73M:30OG32W0SWI6SH46XSCOTXPMLMRNE4,2787,135637_0.015151515151515249.png,4,105,live
395,A22VACRM9GC73M:30OG32W0SWI6SH46XSCOTXPMLMRNE4,3472,005839_0.45959595959595967.png,6,106,live
396,A22VACRM9GC73M:30OG32W0SWI6SH46XSCOTXPMLMRNE4,3094,104389_0.40909090909090917.png,4,107,live
397,A22VACRM9GC73M:30OG32W0SWI6SH46XSCOTXPMLMRNE4,2695,135421_0.045454545454545525.png,7,108,live
398,A22VACRM9GC73M:30OG32W0SWI6SH46XSCOTXPMLMRNE4,3760,170263_0.4494949494949496.png,4,109,live
399,A22VACRM9GC73M:30OG32W0SWI6SH46XSCOTXPMLMRNE4,2741,140101_0.09595959595959602.png,4,110,live
400,A301FEJ1JE99F5:3FIJLY1B6WBY1GGF8I9MF4FHX1WPF7,3989,141987_-0.29797979797979796.png,3,2,live
401,A301FEJ1JE99F5:3FIJLY1B6WBY1GGF8I9MF4FHX1WPF7,2653,043227_-0.10606060606060602.png,8,3,live
402,A301FEJ1JE99F5:3FIJLY1B6WBY1GGF8I9MF4FHX1WPF7,3071,135637_0.015151515151515249.png,1,4,live
403,A301FEJ1JE99F5:3FIJLY1B6WBY1GGF8I9MF4FHX1WPF7,2469,122663_0.0757575757575758.png,5,5,live
404,A301FEJ1JE99F5:3FIJLY1B6WBY1GGF8I9MF4FHX1WPF7,3302,017328_-0.12626262626262624.png,8,6,live
405,A301FEJ1JE99F5:3FIJLY1B6WBY1GGF8I9MF4FHX1WPF7,3357,081501_-0.3888888888888889.png,8,7,live
406,A301FEJ1JE99F5:3FIJLY1B6WBY1GGF8I9MF4FHX1WPF7,5205,135421_0.045454545454545525.png,7,8,live
407,A301FEJ1JE99F5:3FIJLY1B6WBY1GGF8I9MF4FHX1WPF7,2893,040946_0.3080808080808082.png,2,9,live
408,A301FEJ1JE99F5:3FIJLY1B6WBY1GGF8I9MF4FHX1WPF7,4447,062768_-0.15656565656565652.png,1,10,live
409,A301FEJ1JE99F5:3FIJLY1B6WBY1GGF8I9MF4FHX1WPF7,2927,034745_0.28787878787878796.png,8,11,live
410,A301FEJ1JE99F5:3FIJLY1B6WBY1GGF8I9MF4FHX1WPF7,5901,035632_-0.2676767676767676.png,3,13,live
411,A301FEJ1JE99F5:3FIJLY1B6WBY1GGF8I9MF4FHX1WPF7,4181,140101_0.09595959595959602.png,1,14,live
412,A301FEJ1JE99F5:3FIJLY1B6WBY1GGF8I9MF4FHX1WPF7,3350,141781_0.14646464646464652.png,7,15,live
413,A301FEJ1JE99F5:3FIJLY1B6WBY1GGF8I9MF4FHX1WPF7,3446,046067_0.19696969696969702.png,2,16,live
414,A301FEJ1JE99F5:3FIJLY1B6WBY1GGF8I9MF4FHX1WPF7,2902,179053_-0.2777777777777778.png,1,17,live
415,A301FEJ1JE99F5:3FIJLY1B6WBY1GGF8I9MF4FHX1WPF7,3332,021699_0.5.png,6,18,live
416,A301FEJ1JE99F5:3FIJLY1B6WBY1GGF8I9MF4FHX1WPF7,2838,119066_-0.22727272727272724.png,1,19,live
417,A301FEJ1JE99F5:3FIJLY1B6WBY1GGF8I9MF4FHX1WPF7,2917,147096_0.4696969696969697.png,2,20,live
418,A301FEJ1JE99F5:3FIJLY1B6WBY1GGF8I9MF4FHX1WPF7,2829,053976_0.10606060606060608.png,4,21,live
419,A301FEJ1JE99F5:3FIJLY1B6WBY1GGF8I9MF4FHX1WPF7,3582,062769_0.3989898989898991.png,7,22,live
420,A301FEJ1JE99F5:3FIJLY1B6WBY1GGF8I9MF4FHX1WPF7,3641,153694_-0.4898989898989899.png,1,24,live
421,A301FEJ1JE99F5:3FIJLY1B6WBY1GGF8I9MF4FHX1WPF7,3359,177685_-0.41919191919191917.png,5,25,live
422,A301FEJ1JE99F5:3FIJLY1B6WBY1GGF8I9MF4FHX1WPF7,2933,197011_0.21717171717171724.png,6,26,live
423,A301FEJ1JE99F5:3FIJLY1B6WBY1GGF8I9MF4FHX1WPF7,2815,135849_0.36868686868686873.png,9,27,live
424,A301FEJ1JE99F5:3FIJLY1B6WBY1GGF8I9MF4FHX1WPF7,4734,005839_0.45959595959595967.png,4,28,live
425,A301FEJ1JE99F5:3FIJLY1B6WBY1GGF8I9MF4FHX1WPF7,3964,104389_0.40909090909090917.png,2,29,live
426,A301FEJ1JE99F5:3FIJLY1B6WBY1GGF8I9MF4FHX1WPF7,2759,043227_-0.10606060606060602.png,9,30,live
427,A301FEJ1JE99F5:3FIJLY1B6WBY1GGF8I9MF4FHX1WPF7,2705,107379_-0.3181818181818182.png,5,31,live
428,A301FEJ1JE99F5:3FIJLY1B6WBY1GGF8I9MF4FHX1WPF7,3922,125460_-0.0050505050505050275.png,4,32,live
429,A301FEJ1JE99F5:3FIJLY1B6WBY1GGF8I9MF4FHX1WPF7,3207,188020_-0.16666666666666663.png,2,33,live
430,A301FEJ1JE99F5:3FIJLY1B6WBY1GGF8I9MF4FHX1WPF7,4589,025236_0.05555555555555558.png,3,35,live
431,A301FEJ1JE99F5:3FIJLY1B6WBY1GGF8I9MF4FHX1WPF7,3141,164022_0.025252525252525304.png,7,36,live
432,A301FEJ1JE99F5:3FIJLY1B6WBY1GGF8I9MF4FHX1WPF7,2631,051002_-0.4696969696969697.png,5,37,live
433,A301FEJ1JE99F5:3FIJLY1B6WBY1GGF8I9MF4FHX1WPF7,2463,170032_0.3484848484848485.png,3,38,live
434,A301FEJ1JE99F5:3FIJLY1B6WBY1GGF8I9MF4FHX1WPF7,3125,170263_0.4494949494949496.png,8,39,live
435,A301FEJ1JE99F5:3FIJLY1B6WBY1GGF8I9MF4FHX1WPF7,3732,063261_0.33838383838383845.png,2,40,live
436,A301FEJ1JE99F5:3FIJLY1B6WBY1GGF8I9MF4FHX1WPF7,3397,040428_-0.06565656565656564.png,9,41,live
437,A301FEJ1JE99F5:3FIJLY1B6WBY1GGF8I9MF4FHX1WPF7,2741,159919_0.1767676767676768.png,8,42,live
438,A301FEJ1JE99F5:3FIJLY1B6WBY1GGF8I9MF4FHX1WPF7,2462,122663_0.0757575757575758.png,6,43,live
439,A301FEJ1JE99F5:3FIJLY1B6WBY1GGF8I9MF4FHX1WPF7,3014,066335_0.3787878787878789.png,7,44,live
440,A301FEJ1JE99F5:3FIJLY1B6WBY1GGF8I9MF4FHX1WPF7,2595,140101_0.09595959595959602.png,1,46,live
441,A301FEJ1JE99F5:3FIJLY1B6WBY1GGF8I9MF4FHX1WPF7,2894,159336_0.20707070707070718.png,1,47,live
442,A301FEJ1JE99F5:3FIJLY1B6WBY1GGF8I9MF4FHX1WPF7,6903,200785_0.2777777777777778.png,1,48,live
443,A301FEJ1JE99F5:3FIJLY1B6WBY1GGF8I9MF4FHX1WPF7,2999,178771_-0.3484848484848485.png,2,49,live
444,A301FEJ1JE99F5:3FIJLY1B6WBY1GGF8I9MF4FHX1WPF7,2590,005291_0.4797979797979799.png,1,50,live
445,A301FEJ1JE99F5:3FIJLY1B6WBY1GGF8I9MF4FHX1WPF7,2870,017660_-0.025252525252525193.png,3,51,live
446,A301FEJ1JE99F5:3FIJLY1B6WBY1GGF8I9MF4FHX1WPF7,3557,104389_0.40909090909090917.png,2,52,live
447,A301FEJ1JE99F5:3FIJLY1B6WBY1GGF8I9MF4FHX1WPF7,3999,165313_-0.11616161616161613.png,3,53,live
448,A301FEJ1JE99F5:3FIJLY1B6WBY1GGF8I9MF4FHX1WPF7,3134,003566_0.11616161616161624.png,2,54,live
449,A301FEJ1JE99F5:3FIJLY1B6WBY1GGF8I9MF4FHX1WPF7,3678,187715_0.297979797979798.png,6,55,live
450,A301FEJ1JE99F5:3FIJLY1B6WBY1GGF8I9MF4FHX1WPF7,4326,180549_0.03535353535353536.png,9,57,live
451,A301FEJ1JE99F5:3FIJLY1B6WBY1GGF8I9MF4FHX1WPF7,2885,156125_0.13636363636363646.png,8,58,live
452,A301FEJ1JE99F5:3FIJLY1B6WBY1GGF8I9MF4FHX1WPF7,3774,162991_-0.1464646464646464.png,3,59,live
453,A301FEJ1JE99F5:3FIJLY1B6WBY1GGF8I9MF4FHX1WPF7,2740,135421_0.045454545454545525.png,9,60,live
454,A301FEJ1JE99F5:3FIJLY1B6WBY1GGF8I9MF4FHX1WPF7,2911,196291_-0.24747474747474746.png,9,61,live
455,A301FEJ1JE99F5:3FIJLY1B6WBY1GGF8I9MF4FHX1WPF7,3446,186898_-0.035353535353535304.png,8,62,live
456,A301FEJ1JE99F5:3FIJLY1B6WBY1GGF8I9MF4FHX1WPF7,2629,135849_0.36868686868686873.png,9,63,live
457,A301FEJ1JE99F5:3FIJLY1B6WBY1GGF8I9MF4FHX1WPF7,3085,112214_-0.055555555555555525.png,8,64,live
458,A301FEJ1JE99F5:3FIJLY1B6WBY1GGF8I9MF4FHX1WPF7,2382,066124_-0.25757575757575757.png,2,65,live
459,A301FEJ1JE99F5:3FIJLY1B6WBY1GGF8I9MF4FHX1WPF7,2703,127006_0.3282828282828284.png,9,66,live
460,A301FEJ1JE99F5:3FIJLY1B6WBY1GGF8I9MF4FHX1WPF7,3079,062768_-0.15656565656565652.png,1,68,live
461,A301FEJ1JE99F5:3FIJLY1B6WBY1GGF8I9MF4FHX1WPF7,3290,165927_-0.19696969696969696.png,1,69,live
462,A301FEJ1JE99F5:3FIJLY1B6WBY1GGF8I9MF4FHX1WPF7,2776,099209_-0.045454545454545414.png,5,70,live
463,A301FEJ1JE99F5:3FIJLY1B6WBY1GGF8I9MF4FHX1WPF7,2620,075861_0.43939393939393945.png,2,71,live
464,A301FEJ1JE99F5:3FIJLY1B6WBY1GGF8I9MF4FHX1WPF7,3543,187313_-0.20707070707070707.png,4,72,live
465,A301FEJ1JE99F5:3FIJLY1B6WBY1GGF8I9MF4FHX1WPF7,2628,165313_-0.11616161616161613.png,3,73,live
466,A301FEJ1JE99F5:3FIJLY1B6WBY1GGF8I9MF4FHX1WPF7,3300,198895_-0.4393939393939394.png,2,74,live
467,A301FEJ1JE99F5:3FIJLY1B6WBY1GGF8I9MF4FHX1WPF7,3506,098800_-0.4292929292929293.png,6,75,live
468,A301FEJ1JE99F5:3FIJLY1B6WBY1GGF8I9MF4FHX1WPF7,2742,170306_-0.21717171717171713.png,8,76,live
469,A301FEJ1JE99F5:3FIJLY1B6WBY1GGF8I9MF4FHX1WPF7,3758,015409_-0.13636363636363635.png,2,77,live
470,A301FEJ1JE99F5:3FIJLY1B6WBY1GGF8I9MF4FHX1WPF7,3028,195524_0.4191919191919192.png,2,79,live
471,A301FEJ1JE99F5:3FIJLY1B6WBY1GGF8I9MF4FHX1WPF7,3181,131690_0.2575757575757577.png,1,80,live
472,A301FEJ1JE99F5:3FIJLY1B6WBY1GGF8I9MF4FHX1WPF7,2879,112214_-0.055555555555555525.png,7,81,live
473,A301FEJ1JE99F5:3FIJLY1B6WBY1GGF8I9MF4FHX1WPF7,2702,135637_0.015151515151515249.png,1,82,live
474,A301FEJ1JE99F5:3FIJLY1B6WBY1GGF8I9MF4FHX1WPF7,3139,106232_-0.4797979797979798.png,1,83,live
475,A301FEJ1JE99F5:3FIJLY1B6WBY1GGF8I9MF4FHX1WPF7,3080,064914_-0.07575757575757575.png,2,84,live
476,A301FEJ1JE99F5:3FIJLY1B6WBY1GGF8I9MF4FHX1WPF7,2623,177685_-0.41919191919191917.png,4,85,live
477,A301FEJ1JE99F5:3FIJLY1B6WBY1GGF8I9MF4FHX1WPF7,2501,108588_0.15656565656565657.png,8,86,live
478,A301FEJ1JE99F5:3FIJLY1B6WBY1GGF8I9MF4FHX1WPF7,2887,141987_-0.29797979797979796.png,2,87,live
479,A301FEJ1JE99F5:3FIJLY1B6WBY1GGF8I9MF4FHX1WPF7,3710,179053_-0.2777777777777778.png,1,88,live
480,A301FEJ1JE99F5:3FIJLY1B6WBY1GGF8I9MF4FHX1WPF7,2985,005291_0.4797979797979799.png,1,90,live
481,A301FEJ1JE99F5:3FIJLY1B6WBY1GGF8I9MF4FHX1WPF7,3959,087481_-0.015151515151515138.png,6,91,live
482,A301FEJ1JE99F5:3FIJLY1B6WBY1GGF8I9MF4FHX1WPF7,6414,112902_-0.398989898989899.png,2,92,live
483,A301FEJ1JE99F5:3FIJLY1B6WBY1GGF8I9MF4FHX1WPF7,2677,131742_-0.23737373737373735.png,1,93,live
484,A301FEJ1JE99F5:3FIJLY1B6WBY1GGF8I9MF4FHX1WPF7,3696,120202_0.005050505050505083.png,5,94,live
485,A301FEJ1JE99F5:3FIJLY1B6WBY1GGF8I9MF4FHX1WPF7,3925,026046_0.06565656565656575.png,7,95,live
486,A301FEJ1JE99F5:3FIJLY1B6WBY1GGF8I9MF4FHX1WPF7,2871,164022_0.025252525252525304.png,8,96,live
487,A301FEJ1JE99F5:3FIJLY1B6WBY1GGF8I9MF4FHX1WPF7,4082,165771_0.26767676767676774.png,9,97,live
488,A301FEJ1JE99F5:3FIJLY1B6WBY1GGF8I9MF4FHX1WPF7,4288,170842_-0.09595959595959591.png,7,98,live
489,A301FEJ1JE99F5:3FIJLY1B6WBY1GGF8I9MF4FHX1WPF7,3686,036503_-0.4494949494949495.png,5,99,live
490,A301FEJ1JE99F5:3FIJLY1B6WBY1GGF8I9MF4FHX1WPF7,2337,106232_-0.4797979797979798.png,1,101,live
491,A301FEJ1JE99F5:3FIJLY1B6WBY1GGF8I9MF4FHX1WPF7,3670,186898_-0.035353535353535304.png,8,102,live
492,A301FEJ1JE99F5:3FIJLY1B6WBY1GGF8I9MF4FHX1WPF7,5118,156125_0.13636363636363646.png,7,103,live
493,A301FEJ1JE99F5:3FIJLY1B6WBY1GGF8I9MF4FHX1WPF7,2830,056825_0.24747474747474751.png,2,104,live
494,A301FEJ1JE99F5:3FIJLY1B6WBY1GGF8I9MF4FHX1WPF7,2837,192160_0.3585858585858587.png,1,105,live
495,A301FEJ1JE99F5:3FIJLY1B6WBY1GGF8I9MF4FHX1WPF7,3261,040946_0.3080808080808082.png,1,106,live
496,A301FEJ1JE99F5:3FIJLY1B6WBY1GGF8I9MF4FHX1WPF7,3608,065751_0.16666666666666674.png,4,107,live
497,A301FEJ1JE99F5:3FIJLY1B6WBY1GGF8I9MF4FHX1WPF7,2876,180549_0.03535353535353536.png,9,108,live
498,A301FEJ1JE99F5:3FIJLY1B6WBY1GGF8I9MF4FHX1WPF7,2974,078578_-0.28787878787878785.png,9,109,live
499,A301FEJ1JE99F5:3FIJLY1B6WBY1GGF8I9MF4FHX1WPF7,3406,088129_0.2272727272727273.png,4,110,live
500,AYXDE087J2KO:3GU1KF0O4K88OZ4Z3GNQWEOWI4IPB5,7538,179053_-0.2777777777777778.png,4,2,live
501,AYXDE087J2KO:3GU1KF0O4K88OZ4Z3GNQWEOWI4IPB5,4598,164022_0.025252525252525304.png,7,3,live
502,AYXDE087J2KO:3GU1KF0O4K88OZ4Z3GNQWEOWI4IPB5,3150,075861_0.43939393939393945.png,8,4,live
503,AYXDE087J2KO:3GU1KF0O4K88OZ4Z3GNQWEOWI4IPB5,3180,187715_0.297979797979798.png,8,5,live
504,AYXDE087J2KO:3GU1KF0O4K88OZ4Z3GNQWEOWI4IPB5,4076,170032_0.3484848484848485.png,6,6,live
505,AYXDE087J2KO:3GU1KF0O4K88OZ4Z3GNQWEOWI4IPB5,4137,141781_0.14646464646464652.png,8,7,live
506,AYXDE087J2KO:3GU1KF0O4K88OZ4Z3GNQWEOWI4IPB5,4357,192160_0.3585858585858587.png,8,8,live
507,AYXDE087J2KO:3GU1KF0O4K88OZ4Z3GNQWEOWI4IPB5,3649,107379_-0.3181818181818182.png,5,9,live
508,AYXDE087J2KO:3GU1KF0O4K88OZ4Z3GNQWEOWI4IPB5,3493,043227_-0.10606060606060602.png,6,10,live
509,AYXDE087J2KO:3GU1KF0O4K88OZ4Z3GNQWEOWI4IPB5,3134,122663_0.0757575757575758.png,6,11,live
510,AYXDE087J2KO:3GU1KF0O4K88OZ4Z3GNQWEOWI4IPB5,16177,196291_-0.24747474747474746.png,6,13,live
511,AYXDE087J2KO:3GU1KF0O4K88OZ4Z3GNQWEOWI4IPB5,3391,040946_0.3080808080808082.png,4,14,live
512,AYXDE087J2KO:3GU1KF0O4K88OZ4Z3GNQWEOWI4IPB5,3727,164022_0.025252525252525304.png,7,15,live
513,AYXDE087J2KO:3GU1KF0O4K88OZ4Z3GNQWEOWI4IPB5,14901,040428_-0.06565656565656564.png,8,16,live
514,AYXDE087J2KO:3GU1KF0O4K88OZ4Z3GNQWEOWI4IPB5,4154,043227_-0.10606060606060602.png,6,17,live
515,AYXDE087J2KO:3GU1KF0O4K88OZ4Z3GNQWEOWI4IPB5,3134,005291_0.4797979797979799.png,3,18,live
516,AYXDE087J2KO:3GU1KF0O4K88OZ4Z3GNQWEOWI4IPB5,4336,180549_0.03535353535353536.png,5,19,live
517,AYXDE087J2KO:3GU1KF0O4K88OZ4Z3GNQWEOWI4IPB5,7788,162991_-0.1464646464646464.png,6,20,live
518,AYXDE087J2KO:3GU1KF0O4K88OZ4Z3GNQWEOWI4IPB5,8541,135849_0.36868686868686873.png,8,21,live
519,AYXDE087J2KO:3GU1KF0O4K88OZ4Z3GNQWEOWI4IPB5,5546,135421_0.045454545454545525.png,9,22,live
520,AYXDE087J2KO:3GU1KF0O4K88OZ4Z3GNQWEOWI4IPB5,8889,088129_0.2272727272727273.png,5,24,live
521,AYXDE087J2KO:3GU1KF0O4K88OZ4Z3GNQWEOWI4IPB5,3640,170842_-0.09595959595959591.png,2,25,live
522,AYXDE087J2KO:3GU1KF0O4K88OZ4Z3GNQWEOWI4IPB5,3587,087481_-0.015151515151515138.png,7,26,live
523,AYXDE087J2KO:3GU1KF0O4K88OZ4Z3GNQWEOWI4IPB5,3822,099209_-0.045454545454545414.png,4,27,live
524,AYXDE087J2KO:3GU1KF0O4K88OZ4Z3GNQWEOWI4IPB5,3634,125460_-0.0050505050505050275.png,7,28,live
525,AYXDE087J2KO:3GU1KF0O4K88OZ4Z3GNQWEOWI4IPB5,3641,106232_-0.4797979797979798.png,8,29,live
526,AYXDE087J2KO:3GU1KF0O4K88OZ4Z3GNQWEOWI4IPB5,5456,017328_-0.12626262626262624.png,3,30,live
527,AYXDE087J2KO:3GU1KF0O4K88OZ4Z3GNQWEOWI4IPB5,5381,131742_-0.23737373737373735.png,8,31,live
528,AYXDE087J2KO:3GU1KF0O4K88OZ4Z3GNQWEOWI4IPB5,4388,147096_0.4696969696969697.png,2,32,live
529,AYXDE087J2KO:3GU1KF0O4K88OZ4Z3GNQWEOWI4IPB5,2953,135637_0.015151515151515249.png,1,33,live
530,AYXDE087J2KO:3GU1KF0O4K88OZ4Z3GNQWEOWI4IPB5,7288,198895_-0.4393939393939394.png,7,35,live
531,AYXDE087J2KO:3GU1KF0O4K88OZ4Z3GNQWEOWI4IPB5,4203,187313_-0.20707070707070707.png,8,36,live
532,AYXDE087J2KO:3GU1KF0O4K88OZ4Z3GNQWEOWI4IPB5,3883,112214_-0.055555555555555525.png,5,37,live
533,AYXDE087J2KO:3GU1KF0O4K88OZ4Z3GNQWEOWI4IPB5,4095,098800_-0.4292929292929293.png,6,38,live
534,AYXDE087J2KO:3GU1KF0O4K88OZ4Z3GNQWEOWI4IPB5,4265,003566_0.11616161616161624.png,4,39,live
535,AYXDE087J2KO:3GU1KF0O4K88OZ4Z3GNQWEOWI4IPB5,4184,046067_0.19696969696969702.png,6,40,live
536,AYXDE087J2KO:3GU1KF0O4K88OZ4Z3GNQWEOWI4IPB5,4523,112214_-0.055555555555555525.png,7,41,live
537,AYXDE087J2KO:3GU1KF0O4K88OZ4Z3GNQWEOWI4IPB5,4248,159919_0.1767676767676768.png,7,42,live
538,AYXDE087J2KO:3GU1KF0O4K88OZ4Z3GNQWEOWI4IPB5,3927,156125_0.13636363636363646.png,8,43,live
539,AYXDE087J2KO:3GU1KF0O4K88OZ4Z3GNQWEOWI4IPB5,4384,036503_-0.4494949494949495.png,5,44,live
540,AYXDE087J2KO:3GU1KF0O4K88OZ4Z3GNQWEOWI4IPB5,3923,141987_-0.29797979797979796.png,4,46,live
541,AYXDE087J2KO:3GU1KF0O4K88OZ4Z3GNQWEOWI4IPB5,3123,062769_0.3989898989898991.png,5,47,live
542,AYXDE087J2KO:3GU1KF0O4K88OZ4Z3GNQWEOWI4IPB5,3627,197011_0.21717171717171724.png,8,48,live
543,AYXDE087J2KO:3GU1KF0O4K88OZ4Z3GNQWEOWI4IPB5,4851,064914_-0.07575757575757575.png,4,49,live
544,AYXDE087J2KO:3GU1KF0O4K88OZ4Z3GNQWEOWI4IPB5,4481,165771_0.26767676767676774.png,1,50,live
545,AYXDE087J2KO:3GU1KF0O4K88OZ4Z3GNQWEOWI4IPB5,3011,159336_0.20707070707070718.png,4,51,live
546,AYXDE087J2KO:3GU1KF0O4K88OZ4Z3GNQWEOWI4IPB5,3790,005839_0.45959595959595967.png,8,52,live
547,AYXDE087J2KO:3GU1KF0O4K88OZ4Z3GNQWEOWI4IPB5,3788,021699_0.5.png,5,53,live
548,AYXDE087J2KO:3GU1KF0O4K88OZ4Z3GNQWEOWI4IPB5,5693,066335_0.3787878787878789.png,5,54,live
549,AYXDE087J2KO:3GU1KF0O4K88OZ4Z3GNQWEOWI4IPB5,6923,140101_0.09595959595959602.png,6,55,live
550,AYXDE087J2KO:3GU1KF0O4K88OZ4Z3GNQWEOWI4IPB5,5393,040946_0.3080808080808082.png,7,57,live
551,AYXDE087J2KO:3GU1KF0O4K88OZ4Z3GNQWEOWI4IPB5,3913,177685_-0.41919191919191917.png,6,58,live
552,AYXDE087J2KO:3GU1KF0O4K88OZ4Z3GNQWEOWI4IPB5,2976,119066_-0.22727272727272724.png,4,59,live
553,AYXDE087J2KO:3GU1KF0O4K88OZ4Z3GNQWEOWI4IPB5,3434,127006_0.3282828282828284.png,5,60,live
554,AYXDE087J2KO:3GU1KF0O4K88OZ4Z3GNQWEOWI4IPB5,5058,200785_0.2777777777777778.png,3,61,live
555,AYXDE087J2KO:3GU1KF0O4K88OZ4Z3GNQWEOWI4IPB5,6329,056825_0.24747474747474751.png,6,62,live
556,AYXDE087J2KO:3GU1KF0O4K88OZ4Z3GNQWEOWI4IPB5,9659,165927_-0.19696969696969696.png,4,63,live
557,AYXDE087J2KO:3GU1KF0O4K88OZ4Z3GNQWEOWI4IPB5,2515,141987_-0.29797979797979796.png,2,64,live
558,AYXDE087J2KO:3GU1KF0O4K88OZ4Z3GNQWEOWI4IPB5,3172,081501_-0.3888888888888889.png,3,65,live
559,AYXDE087J2KO:3GU1KF0O4K88OZ4Z3GNQWEOWI4IPB5,4239,180549_0.03535353535353536.png,6,66,live
560,AYXDE087J2KO:3GU1KF0O4K88OZ4Z3GNQWEOWI4IPB5,4760,135849_0.36868686868686873.png,9,68,live
561,AYXDE087J2KO:3GU1KF0O4K88OZ4Z3GNQWEOWI4IPB5,4164,035632_-0.2676767676767676.png,7,69,live
562,AYXDE087J2KO:3GU1KF0O4K88OZ4Z3GNQWEOWI4IPB5,4498,165313_-0.11616161616161613.png,1,70,live
563,AYXDE087J2KO:3GU1KF0O4K88OZ4Z3GNQWEOWI4IPB5,2773,104389_0.40909090909090917.png,4,71,live
564,AYXDE087J2KO:3GU1KF0O4K88OZ4Z3GNQWEOWI4IPB5,3594,017660_-0.025252525252525193.png,5,72,live
565,AYXDE087J2KO:3GU1KF0O4K88OZ4Z3GNQWEOWI4IPB5,3796,078578_-0.28787878787878785.png,6,73,live
566,AYXDE087J2KO:3GU1KF0O4K88OZ4Z3GNQWEOWI4IPB5,7003,165313_-0.11616161616161613.png,3,74,live
567,AYXDE087J2KO:3GU1KF0O4K88OZ4Z3GNQWEOWI4IPB5,4600,026046_0.06565656565656575.png,5,75,live
568,AYXDE087J2KO:3GU1KF0O4K88OZ4Z3GNQWEOWI4IPB5,2845,053976_0.10606060606060608.png,7,76,live
569,AYXDE087J2KO:3GU1KF0O4K88OZ4Z3GNQWEOWI4IPB5,3468,108588_0.15656565656565657.png,6,77,live
570,AYXDE087J2KO:3GU1KF0O4K88OZ4Z3GNQWEOWI4IPB5,4058,025236_0.05555555555555558.png,1,79,live
571,AYXDE087J2KO:3GU1KF0O4K88OZ4Z3GNQWEOWI4IPB5,4086,178771_-0.3484848484848485.png,6,80,live
572,AYXDE087J2KO:3GU1KF0O4K88OZ4Z3GNQWEOWI4IPB5,3848,140101_0.09595959595959602.png,7,81,live
573,AYXDE087J2KO:3GU1KF0O4K88OZ4Z3GNQWEOWI4IPB5,8049,179053_-0.2777777777777778.png,6,82,live
574,AYXDE087J2KO:3GU1KF0O4K88OZ4Z3GNQWEOWI4IPB5,3166,034745_0.28787878787878796.png,8,83,live
575,AYXDE087J2KO:3GU1KF0O4K88OZ4Z3GNQWEOWI4IPB5,3883,188020_-0.16666666666666663.png,7,84,live
576,AYXDE087J2KO:3GU1KF0O4K88OZ4Z3GNQWEOWI4IPB5,3528,131690_0.2575757575757577.png,9,85,live
577,AYXDE087J2KO:3GU1KF0O4K88OZ4Z3GNQWEOWI4IPB5,4125,066124_-0.25757575757575757.png,5,86,live
578,AYXDE087J2KO:3GU1KF0O4K88OZ4Z3GNQWEOWI4IPB5,5216,015409_-0.13636363636363635.png,1,87,live
579,AYXDE087J2KO:3GU1KF0O4K88OZ4Z3GNQWEOWI4IPB5,3392,120202_0.005050505050505083.png,3,88,live
580,AYXDE087J2KO:3GU1KF0O4K88OZ4Z3GNQWEOWI4IPB5,4443,063261_0.33838383838383845.png,2,90,live
581,AYXDE087J2KO:3GU1KF0O4K88OZ4Z3GNQWEOWI4IPB5,3584,177685_-0.41919191919191917.png,7,91,live
582,AYXDE087J2KO:3GU1KF0O4K88OZ4Z3GNQWEOWI4IPB5,3560,170306_-0.21717171717171713.png,3,92,live
583,AYXDE087J2KO:3GU1KF0O4K88OZ4Z3GNQWEOWI4IPB5,3500,135421_0.045454545454545525.png,8,93,live
584,AYXDE087J2KO:3GU1KF0O4K88OZ4Z3GNQWEOWI4IPB5,5131,122663_0.0757575757575758.png,6,94,live
585,AYXDE087J2KO:3GU1KF0O4K88OZ4Z3GNQWEOWI4IPB5,3150,135637_0.015151515151515249.png,1,95,live
586,AYXDE087J2KO:3GU1KF0O4K88OZ4Z3GNQWEOWI4IPB5,4182,112902_-0.398989898989899.png,4,96,live
587,AYXDE087J2KO:3GU1KF0O4K88OZ4Z3GNQWEOWI4IPB5,5068,186898_-0.035353535353535304.png,3,97,live
588,AYXDE087J2KO:3GU1KF0O4K88OZ4Z3GNQWEOWI4IPB5,4204,195524_0.4191919191919192.png,5,98,live
589,AYXDE087J2KO:3GU1KF0O4K88OZ4Z3GNQWEOWI4IPB5,3265,062768_-0.15656565656565652.png,2,99,live
590,AYXDE087J2KO:3GU1KF0O4K88OZ4Z3GNQWEOWI4IPB5,12786,104389_0.40909090909090917.png,4,101,live
591,AYXDE087J2KO:3GU1KF0O4K88OZ4Z3GNQWEOWI4IPB5,3017,170263_0.4494949494949496.png,6,102,live
592,AYXDE087J2KO:3GU1KF0O4K88OZ4Z3GNQWEOWI4IPB5,3459,065751_0.16666666666666674.png,7,103,live
593,AYXDE087J2KO:3GU1KF0O4K88OZ4Z3GNQWEOWI4IPB5,4407,005291_0.4797979797979799.png,2,104,live
594,AYXDE087J2KO:3GU1KF0O4K88OZ4Z3GNQWEOWI4IPB5,3585,156125_0.13636363636363646.png,5,105,live
595,AYXDE087J2KO:3GU1KF0O4K88OZ4Z3GNQWEOWI4IPB5,4318,062768_-0.15656565656565652.png,2,106,live
596,AYXDE087J2KO:3GU1KF0O4K88OZ4Z3GNQWEOWI4IPB5,3406,186898_-0.035353535353535304.png,3,107,live
597,AYXDE087J2KO:3GU1KF0O4K88OZ4Z3GNQWEOWI4IPB5,4436,051002_-0.4696969696969697.png,5,108,live
598,AYXDE087J2KO:3GU1KF0O4K88OZ4Z3GNQWEOWI4IPB5,3177,153694_-0.4898989898989899.png,3,109,live
599,AYXDE087J2KO:3GU1KF0O4K88OZ4Z3GNQWEOWI4IPB5,3117,106232_-0.4797979797979798.png,7,110,live
600,A1SIUJEL2LS8UO:3C2NJ6JBKCOEX1SQ48HNRWGXOJ6N27,2805,108588_0.15656565656565657.png,7,2,live
601,A1SIUJEL2LS8UO:3C2NJ6JBKCOEX1SQ48HNRWGXOJ6N27,1669,026046_0.06565656565656575.png,5,3,live
602,A1SIUJEL2LS8UO:3C2NJ6JBKCOEX1SQ48HNRWGXOJ6N27,2904,005291_0.4797979797979799.png,2,4,live
603,A1SIUJEL2LS8UO:3C2NJ6JBKCOEX1SQ48HNRWGXOJ6N27,1869,140101_0.09595959595959602.png,3,5,live
604,A1SIUJEL2LS8UO:3C2NJ6JBKCOEX1SQ48HNRWGXOJ6N27,3434,017660_-0.025252525252525193.png,2,6,live
605,A1SIUJEL2LS8UO:3C2NJ6JBKCOEX1SQ48HNRWGXOJ6N27,1911,075861_0.43939393939393945.png,3,7,live
606,A1SIUJEL2LS8UO:3C2NJ6JBKCOEX1SQ48HNRWGXOJ6N27,1699,141987_-0.29797979797979796.png,5,8,live
607,A1SIUJEL2LS8UO:3C2NJ6JBKCOEX1SQ48HNRWGXOJ6N27,2085,135849_0.36868686868686873.png,8,9,live
608,A1SIUJEL2LS8UO:3C2NJ6JBKCOEX1SQ48HNRWGXOJ6N27,1656,165313_-0.11616161616161613.png,5,10,live
609,A1SIUJEL2LS8UO:3C2NJ6JBKCOEX1SQ48HNRWGXOJ6N27,3359,179053_-0.2777777777777778.png,4,11,live
610,A1SIUJEL2LS8UO:3C2NJ6JBKCOEX1SQ48HNRWGXOJ6N27,3972,106232_-0.4797979797979798.png,3,13,live
611,A1SIUJEL2LS8UO:3C2NJ6JBKCOEX1SQ48HNRWGXOJ6N27,2035,165771_0.26767676767676774.png,2,14,live
612,A1SIUJEL2LS8UO:3C2NJ6JBKCOEX1SQ48HNRWGXOJ6N27,1858,025236_0.05555555555555558.png,1,15,live
613,A1SIUJEL2LS8UO:3C2NJ6JBKCOEX1SQ48HNRWGXOJ6N27,1742,081501_-0.3888888888888889.png,5,16,live
614,A1SIUJEL2LS8UO:3C2NJ6JBKCOEX1SQ48HNRWGXOJ6N27,1569,104389_0.40909090909090917.png,4,17,live
615,A1SIUJEL2LS8UO:3C2NJ6JBKCOEX1SQ48HNRWGXOJ6N27,4984,040946_0.3080808080808082.png,6,18,live
616,A1SIUJEL2LS8UO:3C2NJ6JBKCOEX1SQ48HNRWGXOJ6N27,2077,035632_-0.2676767676767676.png,5,19,live
617,A1SIUJEL2LS8UO:3C2NJ6JBKCOEX1SQ48HNRWGXOJ6N27,2061,034745_0.28787878787878796.png,7,20,live
618,A1SIUJEL2LS8UO:3C2NJ6JBKCOEX1SQ48HNRWGXOJ6N27,1715,087481_-0.015151515151515138.png,6,21,live
619,A1SIUJEL2LS8UO:3C2NJ6JBKCOEX1SQ48HNRWGXOJ6N27,2459,187715_0.297979797979798.png,7,22,live
620,A1SIUJEL2LS8UO:3C2NJ6JBKCOEX1SQ48HNRWGXOJ6N27,3320,112902_-0.398989898989899.png,5,24,live
621,A1SIUJEL2LS8UO:3C2NJ6JBKCOEX1SQ48HNRWGXOJ6N27,4134,170263_0.4494949494949496.png,6,25,live
622,A1SIUJEL2LS8UO:3C2NJ6JBKCOEX1SQ48HNRWGXOJ6N27,1987,131742_-0.23737373737373735.png,4,26,live
623,A1SIUJEL2LS8UO:3C2NJ6JBKCOEX1SQ48HNRWGXOJ6N27,2886,131690_0.2575757575757577.png,3,27,live
624,A1SIUJEL2LS8UO:3C2NJ6JBKCOEX1SQ48HNRWGXOJ6N27,2245,140101_0.09595959595959602.png,3,28,live
625,A1SIUJEL2LS8UO:3C2NJ6JBKCOEX1SQ48HNRWGXOJ6N27,1933,186898_-0.035353535353535304.png,6,29,live
626,A1SIUJEL2LS8UO:3C2NJ6JBKCOEX1SQ48HNRWGXOJ6N27,1828,164022_0.025252525252525304.png,5,30,live
627,A1SIUJEL2LS8UO:3C2NJ6JBKCOEX1SQ48HNRWGXOJ6N27,2111,195524_0.4191919191919192.png,4,31,live
628,A1SIUJEL2LS8UO:3C2NJ6JBKCOEX1SQ48HNRWGXOJ6N27,2390,196291_-0.24747474747474746.png,8,32,live
629,A1SIUJEL2LS8UO:3C2NJ6JBKCOEX1SQ48HNRWGXOJ6N27,2035,147096_0.4696969696969697.png,3,33,live
630,A1SIUJEL2LS8UO:3C2NJ6JBKCOEX1SQ48HNRWGXOJ6N27,1919,179053_-0.2777777777777778.png,3,35,live
631,A1SIUJEL2LS8UO:3C2NJ6JBKCOEX1SQ48HNRWGXOJ6N27,3927,036503_-0.4494949494949495.png,6,36,live
632,A1SIUJEL2LS8UO:3C2NJ6JBKCOEX1SQ48HNRWGXOJ6N27,1859,062769_0.3989898989898991.png,7,37,live
633,A1SIUJEL2LS8UO:3C2NJ6JBKCOEX1SQ48HNRWGXOJ6N27,2130,078578_-0.28787878787878785.png,9,38,live
634,A1SIUJEL2LS8UO:3C2NJ6JBKCOEX1SQ48HNRWGXOJ6N27,2288,141987_-0.29797979797979796.png,5,39,live
635,A1SIUJEL2LS8UO:3C2NJ6JBKCOEX1SQ48HNRWGXOJ6N27,2687,112214_-0.055555555555555525.png,8,40,live
636,A1SIUJEL2LS8UO:3C2NJ6JBKCOEX1SQ48HNRWGXOJ6N27,1995,066335_0.3787878787878789.png,6,41,live
637,A1SIUJEL2LS8UO:3C2NJ6JBKCOEX1SQ48HNRWGXOJ6N27,2461,177685_-0.41919191919191917.png,4,42,live
638,A1SIUJEL2LS8UO:3C2NJ6JBKCOEX1SQ48HNRWGXOJ6N27,2141,186898_-0.035353535353535304.png,7,43,live
639,A1SIUJEL2LS8UO:3C2NJ6JBKCOEX1SQ48HNRWGXOJ6N27,1645,178771_-0.3484848484848485.png,4,44,live
640,A1SIUJEL2LS8UO:3C2NJ6JBKCOEX1SQ48HNRWGXOJ6N27,1825,156125_0.13636363636363646.png,4,46,live
641,A1SIUJEL2LS8UO:3C2NJ6JBKCOEX1SQ48HNRWGXOJ6N27,2405,200785_0.2777777777777778.png,3,47,live
642,A1SIUJEL2LS8UO:3C2NJ6JBKCOEX1SQ48HNRWGXOJ6N27,1656,177685_-0.41919191919191917.png,3,48,live
643,A1SIUJEL2LS8UO:3C2NJ6JBKCOEX1SQ48HNRWGXOJ6N27,3502,135637_0.015151515151515249.png,2,49,live
644,A1SIUJEL2LS8UO:3C2NJ6JBKCOEX1SQ48HNRWGXOJ6N27,1869,197011_0.21717171717171724.png,2,50,live
645,A1SIUJEL2LS8UO:3C2NJ6JBKCOEX1SQ48HNRWGXOJ6N27,1631,040946_0.3080808080808082.png,4,51,live
646,A1SIUJEL2LS8UO:3C2NJ6JBKCOEX1SQ48HNRWGXOJ6N27,1705,122663_0.0757575757575758.png,7,52,live
647,A1SIUJEL2LS8UO:3C2NJ6JBKCOEX1SQ48HNRWGXOJ6N27,2611,046067_0.19696969696969702.png,1,53,live
648,A1SIUJEL2LS8UO:3C2NJ6JBKCOEX1SQ48HNRWGXOJ6N27,2160,065751_0.16666666666666674.png,7,54,live
649,A1SIUJEL2LS8UO:3C2NJ6JBKCOEX1SQ48HNRWGXOJ6N27,1845,099209_-0.045454545454545414.png,6,55,live
650,A1SIUJEL2LS8UO:3C2NJ6JBKCOEX1SQ48HNRWGXOJ6N27,1956,141781_0.14646464646464652.png,8,57,live
651,A1SIUJEL2LS8UO:3C2NJ6JBKCOEX1SQ48HNRWGXOJ6N27,2446,122663_0.0757575757575758.png,8,58,live
652,A1SIUJEL2LS8UO:3C2NJ6JBKCOEX1SQ48HNRWGXOJ6N27,1861,188020_-0.16666666666666663.png,2,59,live
653,A1SIUJEL2LS8UO:3C2NJ6JBKCOEX1SQ48HNRWGXOJ6N27,1661,005291_0.4797979797979799.png,2,60,live
654,A1SIUJEL2LS8UO:3C2NJ6JBKCOEX1SQ48HNRWGXOJ6N27,1734,170306_-0.21717171717171713.png,7,61,live
655,A1SIUJEL2LS8UO:3C2NJ6JBKCOEX1SQ48HNRWGXOJ6N27,2087,125460_-0.0050505050505050275.png,6,62,live
656,A1SIUJEL2LS8UO:3C2NJ6JBKCOEX1SQ48HNRWGXOJ6N27,1851,156125_0.13636363636363646.png,4,63,live
657,A1SIUJEL2LS8UO:3C2NJ6JBKCOEX1SQ48HNRWGXOJ6N27,1978,106232_-0.4797979797979798.png,3,64,live
658,A1SIUJEL2LS8UO:3C2NJ6JBKCOEX1SQ48HNRWGXOJ6N27,2342,159336_0.20707070707070718.png,2,65,live
659,A1SIUJEL2LS8UO:3C2NJ6JBKCOEX1SQ48HNRWGXOJ6N27,2146,005839_0.45959595959595967.png,7,66,live
660,A1SIUJEL2LS8UO:3C2NJ6JBKCOEX1SQ48HNRWGXOJ6N27,1823,153694_-0.4898989898989899.png,3,68,live
661,A1SIUJEL2LS8UO:3C2NJ6JBKCOEX1SQ48HNRWGXOJ6N27,2022,119066_-0.22727272727272724.png,1,69,live
662,A1SIUJEL2LS8UO:3C2NJ6JBKCOEX1SQ48HNRWGXOJ6N27,3043,120202_0.005050505050505083.png,7,70,live
663,A1SIUJEL2LS8UO:3C2NJ6JBKCOEX1SQ48HNRWGXOJ6N27,2136,180549_0.03535353535353536.png,7,71,live
664,A1SIUJEL2LS8UO:3C2NJ6JBKCOEX1SQ48HNRWGXOJ6N27,3056,098800_-0.4292929292929293.png,6,72,live
665,A1SIUJEL2LS8UO:3C2NJ6JBKCOEX1SQ48HNRWGXOJ6N27,2252,127006_0.3282828282828284.png,9,73,live
666,A1SIUJEL2LS8UO:3C2NJ6JBKCOEX1SQ48HNRWGXOJ6N27,1627,165313_-0.11616161616161613.png,4,74,live
667,A1SIUJEL2LS8UO:3C2NJ6JBKCOEX1SQ48HNRWGXOJ6N27,1788,135421_0.045454545454545525.png,9,75,live
668,A1SIUJEL2LS8UO:3C2NJ6JBKCOEX1SQ48HNRWGXOJ6N27,2349,165927_-0.19696969696969696.png,2,76,live
669,A1SIUJEL2LS8UO:3C2NJ6JBKCOEX1SQ48HNRWGXOJ6N27,2222,192160_0.3585858585858587.png,4,77,live
670,A1SIUJEL2LS8UO:3C2NJ6JBKCOEX1SQ48HNRWGXOJ6N27,2192,170032_0.3484848484848485.png,2,79,live
671,A1SIUJEL2LS8UO:3C2NJ6JBKCOEX1SQ48HNRWGXOJ6N27,4061,187313_-0.20707070707070707.png,3,80,live
672,A1SIUJEL2LS8UO:3C2NJ6JBKCOEX1SQ48HNRWGXOJ6N27,2481,135421_0.045454545454545525.png,9,81,live
673,A1SIUJEL2LS8UO:3C2NJ6JBKCOEX1SQ48HNRWGXOJ6N27,2617,056825_0.24747474747474751.png,3,82,live
674,A1SIUJEL2LS8UO:3C2NJ6JBKCOEX1SQ48HNRWGXOJ6N27,4401,053976_0.10606060606060608.png,2,83,live
675,A1SIUJEL2LS8UO:3C2NJ6JBKCOEX1SQ48HNRWGXOJ6N27,2016,135637_0.015151515151515249.png,2,84,live
676,A1SIUJEL2LS8UO:3C2NJ6JBKCOEX1SQ48HNRWGXOJ6N27,2008,040428_-0.06565656565656564.png,9,85,live
677,A1SIUJEL2LS8UO:3C2NJ6JBKCOEX1SQ48HNRWGXOJ6N27,1822,043227_-0.10606060606060602.png,2,86,live
678,A1SIUJEL2LS8UO:3C2NJ6JBKCOEX1SQ48HNRWGXOJ6N27,3942,164022_0.025252525252525304.png,4,87,live
679,A1SIUJEL2LS8UO:3C2NJ6JBKCOEX1SQ48HNRWGXOJ6N27,3377,015409_-0.13636363636363635.png,1,88,live
680,A1SIUJEL2LS8UO:3C2NJ6JBKCOEX1SQ48HNRWGXOJ6N27,5250,017328_-0.12626262626262624.png,5,90,live
681,A1SIUJEL2LS8UO:3C2NJ6JBKCOEX1SQ48HNRWGXOJ6N27,1879,062768_-0.15656565656565652.png,2,91,live
682,A1SIUJEL2LS8UO:3C2NJ6JBKCOEX1SQ48HNRWGXOJ6N27,3247,003566_0.11616161616161624.png,1,92,live
683,A1SIUJEL2LS8UO:3C2NJ6JBKCOEX1SQ48HNRWGXOJ6N27,2116,062768_-0.15656565656565652.png,2,93,live
684,A1SIUJEL2LS8UO:3C2NJ6JBKCOEX1SQ48HNRWGXOJ6N27,2272,162991_-0.1464646464646464.png,2,94,live
685,A1SIUJEL2LS8UO:3C2NJ6JBKCOEX1SQ48HNRWGXOJ6N27,2212,021699_0.5.png,6,95,live
686,A1SIUJEL2LS8UO:3C2NJ6JBKCOEX1SQ48HNRWGXOJ6N27,2140,112214_-0.055555555555555525.png,9,96,live
687,A1SIUJEL2LS8UO:3C2NJ6JBKCOEX1SQ48HNRWGXOJ6N27,1839,043227_-0.10606060606060602.png,2,97,live
688,A1SIUJEL2LS8UO:3C2NJ6JBKCOEX1SQ48HNRWGXOJ6N27,2131,063261_0.33838383838383845.png,6,98,live
689,A1SIUJEL2LS8UO:3C2NJ6JBKCOEX1SQ48HNRWGXOJ6N27,2307,051002_-0.4696969696969697.png,2,99,live
690,A1SIUJEL2LS8UO:3C2NJ6JBKCOEX1SQ48HNRWGXOJ6N27,1671,107379_-0.3181818181818182.png,5,101,live
691,A1SIUJEL2LS8UO:3C2NJ6JBKCOEX1SQ48HNRWGXOJ6N27,2355,170842_-0.09595959595959591.png,5,102,live
692,A1SIUJEL2LS8UO:3C2NJ6JBKCOEX1SQ48HNRWGXOJ6N27,1878,088129_0.2272727272727273.png,4,103,live
693,A1SIUJEL2LS8UO:3C2NJ6JBKCOEX1SQ48HNRWGXOJ6N27,1717,104389_0.40909090909090917.png,3,104,live
694,A1SIUJEL2LS8UO:3C2NJ6JBKCOEX1SQ48HNRWGXOJ6N27,2942,064914_-0.07575757575757575.png,2,105,live
695,A1SIUJEL2LS8UO:3C2NJ6JBKCOEX1SQ48HNRWGXOJ6N27,2436,198895_-0.4393939393939394.png,2,106,live
696,A1SIUJEL2LS8UO:3C2NJ6JBKCOEX1SQ48HNRWGXOJ6N27,2221,159919_0.1767676767676768.png,8,107,live
697,A1SIUJEL2LS8UO:3C2NJ6JBKCOEX1SQ48HNRWGXOJ6N27,2575,066124_-0.25757575757575757.png,2,108,live
698,A1SIUJEL2LS8UO:3C2NJ6JBKCOEX1SQ48HNRWGXOJ6N27,2147,135849_0.36868686868686873.png,9,109,live
699,A1SIUJEL2LS8UO:3C2NJ6JBKCOEX1SQ48HNRWGXOJ6N27,1913,180549_0.03535353535353536.png,9,110,live
700,A1IV1O890FN1QA:32EYX73OY2G8WBTKGZ8A6ZGZ87GRUJ,8348,179053_-0.2777777777777778.png,6,2,live
701,A1IV1O890FN1QA:32EYX73OY2G8WBTKGZ8A6ZGZ87GRUJ,2145,140101_0.09595959595959602.png,7,3,live
702,A1IV1O890FN1QA:32EYX73OY2G8WBTKGZ8A6ZGZ87GRUJ,2024,107379_-0.3181818181818182.png,6,4,live
703,A1IV1O890FN1QA:32EYX73OY2G8WBTKGZ8A6ZGZ87GRUJ,2572,165927_-0.19696969696969696.png,8,5,live
704,A1IV1O890FN1QA:32EYX73OY2G8WBTKGZ8A6ZGZ87GRUJ,3551,135849_0.36868686868686873.png,9,6,live
705,A1IV1O890FN1QA:32EYX73OY2G8WBTKGZ8A6ZGZ87GRUJ,1678,064914_-0.07575757575757575.png,4,7,live
706,A1IV1O890FN1QA:32EYX73OY2G8WBTKGZ8A6ZGZ87GRUJ,1598,135637_0.015151515151515249.png,4,8,live
707,A1IV1O890FN1QA:32EYX73OY2G8WBTKGZ8A6ZGZ87GRUJ,1567,106232_-0.4797979797979798.png,3,9,live
708,A1IV1O890FN1QA:32EYX73OY2G8WBTKGZ8A6ZGZ87GRUJ,4548,164022_0.025252525252525304.png,6,10,live
709,A1IV1O890FN1QA:32EYX73OY2G8WBTKGZ8A6ZGZ87GRUJ,7758,170842_-0.09595959595959591.png,9,11,live
710,A1IV1O890FN1QA:32EYX73OY2G8WBTKGZ8A6ZGZ87GRUJ,3471,159919_0.1767676767676768.png,8,13,live
711,A1IV1O890FN1QA:32EYX73OY2G8WBTKGZ8A6ZGZ87GRUJ,2567,170306_-0.21717171717171713.png,9,14,live
712,A1IV1O890FN1QA:32EYX73OY2G8WBTKGZ8A6ZGZ87GRUJ,2288,040946_0.3080808080808082.png,4,15,live
713,A1IV1O890FN1QA:32EYX73OY2G8WBTKGZ8A6ZGZ87GRUJ,1496,046067_0.19696969696969702.png,4,16,live
714,A1IV1O890FN1QA:32EYX73OY2G8WBTKGZ8A6ZGZ87GRUJ,2080,075861_0.43939393939393945.png,5,17,live
715,A1IV1O890FN1QA:32EYX73OY2G8WBTKGZ8A6ZGZ87GRUJ,2070,065751_0.16666666666666674.png,7,18,live
716,A1IV1O890FN1QA:32EYX73OY2G8WBTKGZ8A6ZGZ87GRUJ,2293,062768_-0.15656565656565652.png,8,19,live
717,A1IV1O890FN1QA:32EYX73OY2G8WBTKGZ8A6ZGZ87GRUJ,2216,099209_-0.045454545454545414.png,8,20,live
718,A1IV1O890FN1QA:32EYX73OY2G8WBTKGZ8A6ZGZ87GRUJ,2153,104389_0.40909090909090917.png,7,21,live
719,A1IV1O890FN1QA:32EYX73OY2G8WBTKGZ8A6ZGZ87GRUJ,1852,178771_-0.3484848484848485.png,5,22,live
720,A1IV1O890FN1QA:32EYX73OY2G8WBTKGZ8A6ZGZ87GRUJ,1704,005839_0.45959595959595967.png,8,24,live
721,A1IV1O890FN1QA:32EYX73OY2G8WBTKGZ8A6ZGZ87GRUJ,5155,112902_-0.398989898989899.png,9,25,live
722,A1IV1O890FN1QA:32EYX73OY2G8WBTKGZ8A6ZGZ87GRUJ,4805,003566_0.11616161616161624.png,7,26,live
723,A1IV1O890FN1QA:32EYX73OY2G8WBTKGZ8A6ZGZ87GRUJ,9652,187715_0.297979797979798.png,8,27,live
724,A1IV1O890FN1QA:32EYX73OY2G8WBTKGZ8A6ZGZ87GRUJ,5202,112214_-0.055555555555555525.png,7,28,live
725,A1IV1O890FN1QA:32EYX73OY2G8WBTKGZ8A6ZGZ87GRUJ,2531,135637_0.015151515151515249.png,7,29,live
726,A1IV1O890FN1QA:32EYX73OY2G8WBTKGZ8A6ZGZ87GRUJ,2702,131742_-0.23737373737373735.png,9,30,live
727,A1IV1O890FN1QA:32EYX73OY2G8WBTKGZ8A6ZGZ87GRUJ,2893,135421_0.045454545454545525.png,9,31,live
728,A1IV1O890FN1QA:32EYX73OY2G8WBTKGZ8A6ZGZ87GRUJ,1901,180549_0.03535353535353536.png,6,32,live
729,A1IV1O890FN1QA:32EYX73OY2G8WBTKGZ8A6ZGZ87GRUJ,20333,192160_0.3585858585858587.png,8,33,live
730,A1IV1O890FN1QA:32EYX73OY2G8WBTKGZ8A6ZGZ87GRUJ,1793,036503_-0.4494949494949495.png,7,35,live
731,A1IV1O890FN1QA:32EYX73OY2G8WBTKGZ8A6ZGZ87GRUJ,1986,135421_0.045454545454545525.png,8,36,live
732,A1IV1O890FN1QA:32EYX73OY2G8WBTKGZ8A6ZGZ87GRUJ,1853,017660_-0.025252525252525193.png,6,37,live
733,A1IV1O890FN1QA:32EYX73OY2G8WBTKGZ8A6ZGZ87GRUJ,2042,098800_-0.4292929292929293.png,8,38,live
734,A1IV1O890FN1QA:32EYX73OY2G8WBTKGZ8A6ZGZ87GRUJ,1692,125460_-0.0050505050505050275.png,6,39,live
735,A1IV1O890FN1QA:32EYX73OY2G8WBTKGZ8A6ZGZ87GRUJ,2334,034745_0.28787878787878796.png,9,40,live
736,A1IV1O890FN1QA:32EYX73OY2G8WBTKGZ8A6ZGZ87GRUJ,2453,108588_0.15656565656565657.png,9,41,live
737,A1IV1O890FN1QA:32EYX73OY2G8WBTKGZ8A6ZGZ87GRUJ,1828,186898_-0.035353535353535304.png,5,42,live
738,A1IV1O890FN1QA:32EYX73OY2G8WBTKGZ8A6ZGZ87GRUJ,2504,062768_-0.15656565656565652.png,6,43,live
739,A1IV1O890FN1QA:32EYX73OY2G8WBTKGZ8A6ZGZ87GRUJ,2963,122663_0.0757575757575758.png,8,44,live
740,A1IV1O890FN1QA:32EYX73OY2G8WBTKGZ8A6ZGZ87GRUJ,1761,043227_-0.10606060606060602.png,7,46,live
741,A1IV1O890FN1QA:32EYX73OY2G8WBTKGZ8A6ZGZ87GRUJ,1671,106232_-0.4797979797979798.png,6,47,live
742,A1IV1O890FN1QA:32EYX73OY2G8WBTKGZ8A6ZGZ87GRUJ,2246,131690_0.2575757575757577.png,7,48,live
743,A1IV1O890FN1QA:32EYX73OY2G8WBTKGZ8A6ZGZ87GRUJ,1903,066124_-0.25757575757575757.png,7,49,live
744,A1IV1O890FN1QA:32EYX73OY2G8WBTKGZ8A6ZGZ87GRUJ,1531,005291_0.4797979797979799.png,5,50,live
745,A1IV1O890FN1QA:32EYX73OY2G8WBTKGZ8A6ZGZ87GRUJ,2094,198895_-0.4393939393939394.png,8,51,live
746,A1IV1O890FN1QA:32EYX73OY2G8WBTKGZ8A6ZGZ87GRUJ,1986,170263_0.4494949494949496.png,7,52,live
747,A1IV1O890FN1QA:32EYX73OY2G8WBTKGZ8A6ZGZ87GRUJ,2454,015409_-0.13636363636363635.png,8,53,live
748,A1IV1O890FN1QA:32EYX73OY2G8WBTKGZ8A6ZGZ87GRUJ,62665,035632_-0.2676767676767676.png,7,54,live
749,A1IV1O890FN1QA:32EYX73OY2G8WBTKGZ8A6ZGZ87GRUJ,1773,066335_0.3787878787878789.png,7,55,live
750,A1IV1O890FN1QA:32EYX73OY2G8WBTKGZ8A6ZGZ87GRUJ,1463,120202_0.005050505050505083.png,8,57,live
751,A1IV1O890FN1QA:32EYX73OY2G8WBTKGZ8A6ZGZ87GRUJ,1689,187313_-0.20707070707070707.png,6,58,live
752,A1IV1O890FN1QA:32EYX73OY2G8WBTKGZ8A6ZGZ87GRUJ,1872,051002_-0.4696969696969697.png,6,59,live
753,A1IV1O890FN1QA:32EYX73OY2G8WBTKGZ8A6ZGZ87GRUJ,2412,200785_0.2777777777777778.png,6,60,live
754,A1IV1O890FN1QA:32EYX73OY2G8WBTKGZ8A6ZGZ87GRUJ,1909,081501_-0.3888888888888889.png,6,61,live
755,A1IV1O890FN1QA:32EYX73OY2G8WBTKGZ8A6ZGZ87GRUJ,1492,197011_0.21717171717171724.png,4,62,live
756,A1IV1O890FN1QA:32EYX73OY2G8WBTKGZ8A6ZGZ87GRUJ,1470,040946_0.3080808080808082.png,5,63,live
757,A1IV1O890FN1QA:32EYX73OY2G8WBTKGZ8A6ZGZ87GRUJ,3359,180549_0.03535353535353536.png,9,64,live
758,A1IV1O890FN1QA:32EYX73OY2G8WBTKGZ8A6ZGZ87GRUJ,1826,165771_0.26767676767676774.png,6,65,live
759,A1IV1O890FN1QA:32EYX73OY2G8WBTKGZ8A6ZGZ87GRUJ,2133,053976_0.10606060606060608.png,8,66,live
760,A1IV1O890FN1QA:32EYX73OY2G8WBTKGZ8A6ZGZ87GRUJ,1514,170032_0.3484848484848485.png,7,68,live
761,A1IV1O890FN1QA:32EYX73OY2G8WBTKGZ8A6ZGZ87GRUJ,3407,156125_0.13636363636363646.png,7,69,live
762,A1IV1O890FN1QA:32EYX73OY2G8WBTKGZ8A6ZGZ87GRUJ,2073,043227_-0.10606060606060602.png,8,70,live
763,A1IV1O890FN1QA:32EYX73OY2G8WBTKGZ8A6ZGZ87GRUJ,2166,017328_-0.12626262626262624.png,8,71,live
764,A1IV1O890FN1QA:32EYX73OY2G8WBTKGZ8A6ZGZ87GRUJ,2097,112214_-0.055555555555555525.png,7,72,live
765,A1IV1O890FN1QA:32EYX73OY2G8WBTKGZ8A6ZGZ87GRUJ,2214,195524_0.4191919191919192.png,7,73,live
766,A1IV1O890FN1QA:32EYX73OY2G8WBTKGZ8A6ZGZ87GRUJ,2131,141987_-0.29797979797979796.png,7,74,live
767,A1IV1O890FN1QA:32EYX73OY2G8WBTKGZ8A6ZGZ87GRUJ,2341,062769_0.3989898989898991.png,9,75,live
768,A1IV1O890FN1QA:32EYX73OY2G8WBTKGZ8A6ZGZ87GRUJ,3201,078578_-0.28787878787878785.png,8,76,live
769,A1IV1O890FN1QA:32EYX73OY2G8WBTKGZ8A6ZGZ87GRUJ,2313,162991_-0.1464646464646464.png,1,77,live
770,A1IV1O890FN1QA:32EYX73OY2G8WBTKGZ8A6ZGZ87GRUJ,1786,141781_0.14646464646464652.png,7,79,live
771,A1IV1O890FN1QA:32EYX73OY2G8WBTKGZ8A6ZGZ87GRUJ,2845,177685_-0.41919191919191917.png,8,80,live
772,A1IV1O890FN1QA:32EYX73OY2G8WBTKGZ8A6ZGZ87GRUJ,1507,140101_0.09595959595959602.png,7,81,live
773,A1IV1O890FN1QA:32EYX73OY2G8WBTKGZ8A6ZGZ87GRUJ,1412,063261_0.33838383838383845.png,1,82,live
774,A1IV1O890FN1QA:32EYX73OY2G8WBTKGZ8A6ZGZ87GRUJ,2465,141987_-0.29797979797979796.png,9,83,live
775,A1IV1O890FN1QA:32EYX73OY2G8WBTKGZ8A6ZGZ87GRUJ,2266,087481_-0.015151515151515138.png,8,84,live
776,A1IV1O890FN1QA:32EYX73OY2G8WBTKGZ8A6ZGZ87GRUJ,2120,026046_0.06565656565656575.png,9,85,live
777,A1IV1O890FN1QA:32EYX73OY2G8WBTKGZ8A6ZGZ87GRUJ,2103,122663_0.0757575757575758.png,8,86,live
778,A1IV1O890FN1QA:32EYX73OY2G8WBTKGZ8A6ZGZ87GRUJ,2344,165313_-0.11616161616161613.png,9,87,live
779,A1IV1O890FN1QA:32EYX73OY2G8WBTKGZ8A6ZGZ87GRUJ,2113,188020_-0.16666666666666663.png,8,88,live
780,A1IV1O890FN1QA:32EYX73OY2G8WBTKGZ8A6ZGZ87GRUJ,1891,164022_0.025252525252525304.png,8,90,live
781,A1IV1O890FN1QA:32EYX73OY2G8WBTKGZ8A6ZGZ87GRUJ,2066,021699_0.5.png,8,91,live
782,A1IV1O890FN1QA:32EYX73OY2G8WBTKGZ8A6ZGZ87GRUJ,1965,005291_0.4797979797979799.png,7,92,live
783,A1IV1O890FN1QA:32EYX73OY2G8WBTKGZ8A6ZGZ87GRUJ,2961,147096_0.4696969696969697.png,9,93,live
784,A1IV1O890FN1QA:32EYX73OY2G8WBTKGZ8A6ZGZ87GRUJ,2007,088129_0.2272727272727273.png,7,94,live
785,A1IV1O890FN1QA:32EYX73OY2G8WBTKGZ8A6ZGZ87GRUJ,2207,040428_-0.06565656565656564.png,8,95,live
786,A1IV1O890FN1QA:32EYX73OY2G8WBTKGZ8A6ZGZ87GRUJ,4043,186898_-0.035353535353535304.png,8,96,live
787,A1IV1O890FN1QA:32EYX73OY2G8WBTKGZ8A6ZGZ87GRUJ,2847,025236_0.05555555555555558.png,9,97,live
788,A1IV1O890FN1QA:32EYX73OY2G8WBTKGZ8A6ZGZ87GRUJ,2011,153694_-0.4898989898989899.png,7,98,live
789,A1IV1O890FN1QA:32EYX73OY2G8WBTKGZ8A6ZGZ87GRUJ,2207,119066_-0.22727272727272724.png,8,99,live
790,A1IV1O890FN1QA:32EYX73OY2G8WBTKGZ8A6ZGZ87GRUJ,1598,196291_-0.24747474747474746.png,7,101,live
791,A1IV1O890FN1QA:32EYX73OY2G8WBTKGZ8A6ZGZ87GRUJ,2074,177685_-0.41919191919191917.png,7,102,live
792,A1IV1O890FN1QA:32EYX73OY2G8WBTKGZ8A6ZGZ87GRUJ,2122,179053_-0.2777777777777778.png,7,103,live
793,A1IV1O890FN1QA:32EYX73OY2G8WBTKGZ8A6ZGZ87GRUJ,2128,127006_0.3282828282828284.png,8,104,live
794,A1IV1O890FN1QA:32EYX73OY2G8WBTKGZ8A6ZGZ87GRUJ,2061,056825_0.24747474747474751.png,7,105,live
795,A1IV1O890FN1QA:32EYX73OY2G8WBTKGZ8A6ZGZ87GRUJ,2450,135849_0.36868686868686873.png,7,106,live
796,A1IV1O890FN1QA:32EYX73OY2G8WBTKGZ8A6ZGZ87GRUJ,2415,104389_0.40909090909090917.png,9,107,live
797,A1IV1O890FN1QA:32EYX73OY2G8WBTKGZ8A6ZGZ87GRUJ,2555,159336_0.20707070707070718.png,9,108,live
798,A1IV1O890FN1QA:32EYX73OY2G8WBTKGZ8A6ZGZ87GRUJ,2309,165313_-0.11616161616161613.png,8,109,live
799,A1IV1O890FN1QA:32EYX73OY2G8WBTKGZ8A6ZGZ87GRUJ,2088,156125_0.13636363636363646.png,7,110,live
800,A3N7M84SHDLU0M:3LOZAJ85YFKJ9V6U6E4WPY7VQXJX24,15816,040946_0.3080808080808082.png,6,2,live
801,A3N7M84SHDLU0M:3LOZAJ85YFKJ9V6U6E4WPY7VQXJX24,5277,112214_-0.055555555555555525.png,5,3,live
802,A3N7M84SHDLU0M:3LOZAJ85YFKJ9V6U6E4WPY7VQXJX24,12602,064914_-0.07575757575757575.png,9,4,live
803,A3N7M84SHDLU0M:3LOZAJ85YFKJ9V6U6E4WPY7VQXJX24,35056,119066_-0.22727272727272724.png,5,5,live
804,A3N7M84SHDLU0M:3LOZAJ85YFKJ9V6U6E4WPY7VQXJX24,4392,135849_0.36868686868686873.png,9,6,live
805,A3N7M84SHDLU0M:3LOZAJ85YFKJ9V6U6E4WPY7VQXJX24,5061,170842_-0.09595959595959591.png,8,7,live
806,A3N7M84SHDLU0M:3LOZAJ85YFKJ9V6U6E4WPY7VQXJX24,6614,081501_-0.3888888888888889.png,9,8,live
807,A3N7M84SHDLU0M:3LOZAJ85YFKJ9V6U6E4WPY7VQXJX24,4759,196291_-0.24747474747474746.png,8,9,live
808,A3N7M84SHDLU0M:3LOZAJ85YFKJ9V6U6E4WPY7VQXJX24,5850,099209_-0.045454545454545414.png,1,10,live
809,A3N7M84SHDLU0M:3LOZAJ85YFKJ9V6U6E4WPY7VQXJX24,4382,186898_-0.035353535353535304.png,3,11,live
810,A3N7M84SHDLU0M:3LOZAJ85YFKJ9V6U6E4WPY7VQXJX24,5365,122663_0.0757575757575758.png,4,13,live
811,A3N7M84SHDLU0M:3LOZAJ85YFKJ9V6U6E4WPY7VQXJX24,3572,140101_0.09595959595959602.png,7,14,live
812,A3N7M84SHDLU0M:3LOZAJ85YFKJ9V6U6E4WPY7VQXJX24,5842,177685_-0.41919191919191917.png,1,15,live
813,A3N7M84SHDLU0M:3LOZAJ85YFKJ9V6U6E4WPY7VQXJX24,11294,186898_-0.035353535353535304.png,3,16,live
814,A3N7M84SHDLU0M:3LOZAJ85YFKJ9V6U6E4WPY7VQXJX24,5394,062769_0.3989898989898991.png,5,17,live
815,A3N7M84SHDLU0M:3LOZAJ85YFKJ9V6U6E4WPY7VQXJX24,4546,195524_0.4191919191919192.png,1,18,live
816,A3N7M84SHDLU0M:3LOZAJ85YFKJ9V6U6E4WPY7VQXJX24,13158,170306_-0.21717171717171713.png,5,19,live
817,A3N7M84SHDLU0M:3LOZAJ85YFKJ9V6U6E4WPY7VQXJX24,4940,056825_0.24747474747474751.png,9,20,live
818,A3N7M84SHDLU0M:3LOZAJ85YFKJ9V6U6E4WPY7VQXJX24,5748,165313_-0.11616161616161613.png,5,21,live
819,A3N7M84SHDLU0M:3LOZAJ85YFKJ9V6U6E4WPY7VQXJX24,11306,112902_-0.398989898989899.png,5,22,live
820,A3N7M84SHDLU0M:3LOZAJ85YFKJ9V6U6E4WPY7VQXJX24,6879,159336_0.20707070707070718.png,7,24,live
821,A3N7M84SHDLU0M:3LOZAJ85YFKJ9V6U6E4WPY7VQXJX24,6807,040946_0.3080808080808082.png,9,25,live
822,A3N7M84SHDLU0M:3LOZAJ85YFKJ9V6U6E4WPY7VQXJX24,6195,053976_0.10606060606060608.png,9,26,live
823,A3N7M84SHDLU0M:3LOZAJ85YFKJ9V6U6E4WPY7VQXJX24,4209,135421_0.045454545454545525.png,1,27,live
824,A3N7M84SHDLU0M:3LOZAJ85YFKJ9V6U6E4WPY7VQXJX24,5271,179053_-0.2777777777777778.png,9,28,live
825,A3N7M84SHDLU0M:3LOZAJ85YFKJ9V6U6E4WPY7VQXJX24,5668,035632_-0.2676767676767676.png,5,29,live
826,A3N7M84SHDLU0M:3LOZAJ85YFKJ9V6U6E4WPY7VQXJX24,3981,021699_0.5.png,9,30,live
827,A3N7M84SHDLU0M:3LOZAJ85YFKJ9V6U6E4WPY7VQXJX24,4845,098800_-0.4292929292929293.png,9,31,live
828,A3N7M84SHDLU0M:3LOZAJ85YFKJ9V6U6E4WPY7VQXJX24,2941,135849_0.36868686868686873.png,9,32,live
829,A3N7M84SHDLU0M:3LOZAJ85YFKJ9V6U6E4WPY7VQXJX24,8179,198895_-0.4393939393939394.png,3,33,live
830,A3N7M84SHDLU0M:3LOZAJ85YFKJ9V6U6E4WPY7VQXJX24,3899,017328_-0.12626262626262624.png,9,35,live
831,A3N7M84SHDLU0M:3LOZAJ85YFKJ9V6U6E4WPY7VQXJX24,14146,125460_-0.0050505050505050275.png,9,36,live
832,A3N7M84SHDLU0M:3LOZAJ85YFKJ9V6U6E4WPY7VQXJX24,7080,062768_-0.15656565656565652.png,1,37,live
833,A3N7M84SHDLU0M:3LOZAJ85YFKJ9V6U6E4WPY7VQXJX24,4757,120202_0.005050505050505083.png,3,38,live
834,A3N7M84SHDLU0M:3LOZAJ85YFKJ9V6U6E4WPY7VQXJX24,3972,122663_0.0757575757575758.png,5,39,live
835,A3N7M84SHDLU0M:3LOZAJ85YFKJ9V6U6E4WPY7VQXJX24,14337,034745_0.28787878787878796.png,6,40,live
836,A3N7M84SHDLU0M:3LOZAJ85YFKJ9V6U6E4WPY7VQXJX24,6572,104389_0.40909090909090917.png,5,41,live
837,A3N7M84SHDLU0M:3LOZAJ85YFKJ9V6U6E4WPY7VQXJX24,3516,075861_0.43939393939393945.png,5,42,live
838,A3N7M84SHDLU0M:3LOZAJ85YFKJ9V6U6E4WPY7VQXJX24,14260,051002_-0.4696969696969697.png,2,43,live
839,A3N7M84SHDLU0M:3LOZAJ85YFKJ9V6U6E4WPY7VQXJX24,6890,106232_-0.4797979797979798.png,1,44,live
840,A3N7M84SHDLU0M:3LOZAJ85YFKJ9V6U6E4WPY7VQXJX24,3721,040428_-0.06565656565656564.png,1,46,live
841,A3N7M84SHDLU0M:3LOZAJ85YFKJ9V6U6E4WPY7VQXJX24,6780,043227_-0.10606060606060602.png,9,47,live
842,A3N7M84SHDLU0M:3LOZAJ85YFKJ9V6U6E4WPY7VQXJX24,6015,147096_0.4696969696969697.png,7,48,live
843,A3N7M84SHDLU0M:3LOZAJ85YFKJ9V6U6E4WPY7VQXJX24,6589,005839_0.45959595959595967.png,9,49,live
844,A3N7M84SHDLU0M:3LOZAJ85YFKJ9V6U6E4WPY7VQXJX24,3469,005291_0.4797979797979799.png,1,50,live
845,A3N7M84SHDLU0M:3LOZAJ85YFKJ9V6U6E4WPY7VQXJX24,5171,179053_-0.2777777777777778.png,9,51,live
846,A3N7M84SHDLU0M:3LOZAJ85YFKJ9V6U6E4WPY7VQXJX24,2460,135421_0.045454545454545525.png,1,52,live
847,A3N7M84SHDLU0M:3LOZAJ85YFKJ9V6U6E4WPY7VQXJX24,5947,087481_-0.015151515151515138.png,7,53,live
848,A3N7M84SHDLU0M:3LOZAJ85YFKJ9V6U6E4WPY7VQXJX24,12834,164022_0.025252525252525304.png,1,54,live
849,A3N7M84SHDLU0M:3LOZAJ85YFKJ9V6U6E4WPY7VQXJX24,8258,025236_0.05555555555555558.png,1,55,live
850,A3N7M84SHDLU0M:3LOZAJ85YFKJ9V6U6E4WPY7VQXJX24,5099,015409_-0.13636363636363635.png,1,57,live
851,A3N7M84SHDLU0M:3LOZAJ85YFKJ9V6U6E4WPY7VQXJX24,2067,043227_-0.10606060606060602.png,9,58,live
852,A3N7M84SHDLU0M:3LOZAJ85YFKJ9V6U6E4WPY7VQXJX24,10809,135637_0.015151515151515249.png,1,59,live
853,A3N7M84SHDLU0M:3LOZAJ85YFKJ9V6U6E4WPY7VQXJX24,6305,065751_0.16666666666666674.png,5,60,live
854,A3N7M84SHDLU0M:3LOZAJ85YFKJ9V6U6E4WPY7VQXJX24,6382,164022_0.025252525252525304.png,1,61,live
855,A3N7M84SHDLU0M:3LOZAJ85YFKJ9V6U6E4WPY7VQXJX24,3340,127006_0.3282828282828284.png,9,62,live
856,A3N7M84SHDLU0M:3LOZAJ85YFKJ9V6U6E4WPY7VQXJX24,2830,005291_0.4797979797979799.png,1,63,live
857,A3N7M84SHDLU0M:3LOZAJ85YFKJ9V6U6E4WPY7VQXJX24,5662,131690_0.2575757575757577.png,9,64,live
858,A3N7M84SHDLU0M:3LOZAJ85YFKJ9V6U6E4WPY7VQXJX24,7368,003566_0.11616161616161624.png,1,65,live
859,A3N7M84SHDLU0M:3LOZAJ85YFKJ9V6U6E4WPY7VQXJX24,5162,078578_-0.28787878787878785.png,9,66,live
860,A3N7M84SHDLU0M:3LOZAJ85YFKJ9V6U6E4WPY7VQXJX24,4153,066124_-0.25757575757575757.png,9,68,live
861,A3N7M84SHDLU0M:3LOZAJ85YFKJ9V6U6E4WPY7VQXJX24,8249,165927_-0.19696969696969696.png,1,69,live
862,A3N7M84SHDLU0M:3LOZAJ85YFKJ9V6U6E4WPY7VQXJX24,8929,026046_0.06565656565656575.png,5,70,live
863,A3N7M84SHDLU0M:3LOZAJ85YFKJ9V6U6E4WPY7VQXJX24,8330,156125_0.13636363636363646.png,5,71,live
864,A3N7M84SHDLU0M:3LOZAJ85YFKJ9V6U6E4WPY7VQXJX24,5088,108588_0.15656565656565657.png,1,72,live
865,A3N7M84SHDLU0M:3LOZAJ85YFKJ9V6U6E4WPY7VQXJX24,17174,017660_-0.025252525252525193.png,6,73,live
866,A3N7M84SHDLU0M:3LOZAJ85YFKJ9V6U6E4WPY7VQXJX24,6008,197011_0.21717171717171724.png,9,74,live
867,A3N7M84SHDLU0M:3LOZAJ85YFKJ9V6U6E4WPY7VQXJX24,5091,107379_-0.3181818181818182.png,5,75,live
868,A3N7M84SHDLU0M:3LOZAJ85YFKJ9V6U6E4WPY7VQXJX24,3033,135637_0.015151515151515249.png,1,76,live
869,A3N7M84SHDLU0M:3LOZAJ85YFKJ9V6U6E4WPY7VQXJX24,6961,141987_-0.29797979797979796.png,1,77,live
870,A3N7M84SHDLU0M:3LOZAJ85YFKJ9V6U6E4WPY7VQXJX24,2813,141987_-0.29797979797979796.png,1,79,live
871,A3N7M84SHDLU0M:3LOZAJ85YFKJ9V6U6E4WPY7VQXJX24,7616,170263_0.4494949494949496.png,5,80,live
872,A3N7M84SHDLU0M:3LOZAJ85YFKJ9V6U6E4WPY7VQXJX24,5398,192160_0.3585858585858587.png,7,81,live
873,A3N7M84SHDLU0M:3LOZAJ85YFKJ9V6U6E4WPY7VQXJX24,5109,200785_0.2777777777777778.png,5,82,live
874,A3N7M84SHDLU0M:3LOZAJ85YFKJ9V6U6E4WPY7VQXJX24,13061,106232_-0.4797979797979798.png,1,83,live
875,A3N7M84SHDLU0M:3LOZAJ85YFKJ9V6U6E4WPY7VQXJX24,4886,153694_-0.4898989898989899.png,9,84,live
876,A3N7M84SHDLU0M:3LOZAJ85YFKJ9V6U6E4WPY7VQXJX24,3842,170032_0.3484848484848485.png,9,85,live
877,A3N7M84SHDLU0M:3LOZAJ85YFKJ9V6U6E4WPY7VQXJX24,3984,159919_0.1767676767676768.png,9,86,live
878,A3N7M84SHDLU0M:3LOZAJ85YFKJ9V6U6E4WPY7VQXJX24,13050,188020_-0.16666666666666663.png,9,87,live
879,A3N7M84SHDLU0M:3LOZAJ85YFKJ9V6U6E4WPY7VQXJX24,26461,088129_0.2272727272727273.png,1,88,live
880,A3N7M84SHDLU0M:3LOZAJ85YFKJ9V6U6E4WPY7VQXJX24,3811,178771_-0.3484848484848485.png,9,90,live
881,A3N7M84SHDLU0M:3LOZAJ85YFKJ9V6U6E4WPY7VQXJX24,2935,165313_-0.11616161616161613.png,5,91,live
882,A3N7M84SHDLU0M:3LOZAJ85YFKJ9V6U6E4WPY7VQXJX24,4583,063261_0.33838383838383845.png,1,92,live
883,A3N7M84SHDLU0M:3LOZAJ85YFKJ9V6U6E4WPY7VQXJX24,2852,177685_-0.41919191919191917.png,1,93,live
884,A3N7M84SHDLU0M:3LOZAJ85YFKJ9V6U6E4WPY7VQXJX24,3151,140101_0.09595959595959602.png,5,94,live
885,A3N7M84SHDLU0M:3LOZAJ85YFKJ9V6U6E4WPY7VQXJX24,11454,187313_-0.20707070707070707.png,1,95,live
886,A3N7M84SHDLU0M:3LOZAJ85YFKJ9V6U6E4WPY7VQXJX24,3781,180549_0.03535353535353536.png,9,96,live
887,A3N7M84SHDLU0M:3LOZAJ85YFKJ9V6U6E4WPY7VQXJX24,6411,131742_-0.23737373737373735.png,5,97,live
888,A3N7M84SHDLU0M:3LOZAJ85YFKJ9V6U6E4WPY7VQXJX24,4259,141781_0.14646464646464652.png,9,98,live
889,A3N7M84SHDLU0M:3LOZAJ85YFKJ9V6U6E4WPY7VQXJX24,3341,112214_-0.055555555555555525.png,5,99,live
890,A3N7M84SHDLU0M:3LOZAJ85YFKJ9V6U6E4WPY7VQXJX24,6089,066335_0.3787878787878789.png,1,101,live
891,A3N7M84SHDLU0M:3LOZAJ85YFKJ9V6U6E4WPY7VQXJX24,2381,062768_-0.15656565656565652.png,1,102,live
892,A3N7M84SHDLU0M:3LOZAJ85YFKJ9V6U6E4WPY7VQXJX24,2725,104389_0.40909090909090917.png,5,103,live
893,A3N7M84SHDLU0M:3LOZAJ85YFKJ9V6U6E4WPY7VQXJX24,4350,187715_0.297979797979798.png,1,104,live
894,A3N7M84SHDLU0M:3LOZAJ85YFKJ9V6U6E4WPY7VQXJX24,4997,036503_-0.4494949494949495.png,3,105,live
895,A3N7M84SHDLU0M:3LOZAJ85YFKJ9V6U6E4WPY7VQXJX24,2167,180549_0.03535353535353536.png,9,106,live
896,A3N7M84SHDLU0M:3LOZAJ85YFKJ9V6U6E4WPY7VQXJX24,3950,156125_0.13636363636363646.png,1,107,live
897,A3N7M84SHDLU0M:3LOZAJ85YFKJ9V6U6E4WPY7VQXJX24,9178,162991_-0.1464646464646464.png,1,108,live
898,A3N7M84SHDLU0M:3LOZAJ85YFKJ9V6U6E4WPY7VQXJX24,8156,046067_0.19696969696969702.png,9,109,live
899,A3N7M84SHDLU0M:3LOZAJ85YFKJ9V6U6E4WPY7VQXJX24,10149,165771_0.26767676767676774.png,1,110,live
900,A9ZCY6FLUCIU1:38F5OAUN5PJT963L7M35I309DNS7H7,5772,035632_-0.2676767676767676.png,7,2,live
901,A9ZCY6FLUCIU1:38F5OAUN5PJT963L7M35I309DNS7H7,2950,135637_0.015151515151515249.png,3,3,live
902,A9ZCY6FLUCIU1:38F5OAUN5PJT963L7M35I309DNS7H7,2972,005291_0.4797979797979799.png,6,4,live
903,A9ZCY6FLUCIU1:38F5OAUN5PJT963L7M35I309DNS7H7,2748,178771_-0.3484848484848485.png,5,5,live
904,A9ZCY6FLUCIU1:38F5OAUN5PJT963L7M35I309DNS7H7,2641,053976_0.10606060606060608.png,5,6,live
905,A9ZCY6FLUCIU1:38F5OAUN5PJT963L7M35I309DNS7H7,4896,040946_0.3080808080808082.png,6,7,live
906,A9ZCY6FLUCIU1:38F5OAUN5PJT963L7M35I309DNS7H7,3456,065751_0.16666666666666674.png,7,8,live
907,A9ZCY6FLUCIU1:38F5OAUN5PJT963L7M35I309DNS7H7,2744,120202_0.005050505050505083.png,7,9,live
908,A9ZCY6FLUCIU1:38F5OAUN5PJT963L7M35I309DNS7H7,6255,043227_-0.10606060606060602.png,9,10,live
909,A9ZCY6FLUCIU1:38F5OAUN5PJT963L7M35I309DNS7H7,4552,034745_0.28787878787878796.png,7,11,live
910,A9ZCY6FLUCIU1:38F5OAUN5PJT963L7M35I309DNS7H7,2902,036503_-0.4494949494949495.png,7,13,live
911,A9ZCY6FLUCIU1:38F5OAUN5PJT963L7M35I309DNS7H7,3058,112902_-0.398989898989899.png,7,14,live
912,A9ZCY6FLUCIU1:38F5OAUN5PJT963L7M35I309DNS7H7,3168,051002_-0.4696969696969697.png,6,15,live
913,A9ZCY6FLUCIU1:38F5OAUN5PJT963L7M35I309DNS7H7,8013,197011_0.21717171717171724.png,5,16,live
914,A9ZCY6FLUCIU1:38F5OAUN5PJT963L7M35I309DNS7H7,4834,125460_-0.0050505050505050275.png,7,17,live
915,A9ZCY6FLUCIU1:38F5OAUN5PJT963L7M35I309DNS7H7,4784,015409_-0.13636363636363635.png,1,18,live
916,A9ZCY6FLUCIU1:38F5OAUN5PJT963L7M35I309DNS7H7,3261,187715_0.297979797979798.png,7,19,live
917,A9ZCY6FLUCIU1:38F5OAUN5PJT963L7M35I309DNS7H7,6547,141781_0.14646464646464652.png,8,20,live
918,A9ZCY6FLUCIU1:38F5OAUN5PJT963L7M35I309DNS7H7,4919,186898_-0.035353535353535304.png,6,21,live
919,A9ZCY6FLUCIU1:38F5OAUN5PJT963L7M35I309DNS7H7,3778,062768_-0.15656565656565652.png,4,22,live
920,A9ZCY6FLUCIU1:38F5OAUN5PJT963L7M35I309DNS7H7,3573,005839_0.45959595959595967.png,8,24,live
921,A9ZCY6FLUCIU1:38F5OAUN5PJT963L7M35I309DNS7H7,2710,099209_-0.045454545454545414.png,6,25,live
922,A9ZCY6FLUCIU1:38F5OAUN5PJT963L7M35I309DNS7H7,3408,187313_-0.20707070707070707.png,6,26,live
923,A9ZCY6FLUCIU1:38F5OAUN5PJT963L7M35I309DNS7H7,3133,177685_-0.41919191919191917.png,7,27,live
924,A9ZCY6FLUCIU1:38F5OAUN5PJT963L7M35I309DNS7H7,5035,159919_0.1767676767676768.png,6,28,live
925,A9ZCY6FLUCIU1:38F5OAUN5PJT963L7M35I309DNS7H7,2998,165927_-0.19696969696969696.png,4,29,live
926,A9ZCY6FLUCIU1:38F5OAUN5PJT963L7M35I309DNS7H7,2767,135637_0.015151515151515249.png,3,30,live
927,A9ZCY6FLUCIU1:38F5OAUN5PJT963L7M35I309DNS7H7,3737,153694_-0.4898989898989899.png,2,31,live
928,A9ZCY6FLUCIU1:38F5OAUN5PJT963L7M35I309DNS7H7,5868,021699_0.5.png,7,32,live
929,A9ZCY6FLUCIU1:38F5OAUN5PJT963L7M35I309DNS7H7,3565,025236_0.05555555555555558.png,2,33,live
930,A9ZCY6FLUCIU1:38F5OAUN5PJT963L7M35I309DNS7H7,3483,162991_-0.1464646464646464.png,7,35,live
931,A9ZCY6FLUCIU1:38F5OAUN5PJT963L7M35I309DNS7H7,2932,106232_-0.4797979797979798.png,5,36,live
932,A9ZCY6FLUCIU1:38F5OAUN5PJT963L7M35I309DNS7H7,4125,140101_0.09595959595959602.png,4,37,live
933,A9ZCY6FLUCIU1:38F5OAUN5PJT963L7M35I309DNS7H7,3293,156125_0.13636363636363646.png,7,38,live
934,A9ZCY6FLUCIU1:38F5OAUN5PJT963L7M35I309DNS7H7,4245,104389_0.40909090909090917.png,6,39,live
935,A9ZCY6FLUCIU1:38F5OAUN5PJT963L7M35I309DNS7H7,4270,098800_-0.4292929292929293.png,6,40,live
936,A9ZCY6FLUCIU1:38F5OAUN5PJT963L7M35I309DNS7H7,5937,107379_-0.3181818181818182.png,4,41,live
937,A9ZCY6FLUCIU1:38F5OAUN5PJT963L7M35I309DNS7H7,3470,062769_0.3989898989898991.png,7,42,live
938,A9ZCY6FLUCIU1:38F5OAUN5PJT963L7M35I309DNS7H7,3034,180549_0.03535353535353536.png,8,43,live
939,A9ZCY6FLUCIU1:38F5OAUN5PJT963L7M35I309DNS7H7,3125,056825_0.24747474747474751.png,6,44,live
940,A9ZCY6FLUCIU1:38F5OAUN5PJT963L7M35I309DNS7H7,4084,088129_0.2272727272727273.png,7,46,live
941,A9ZCY6FLUCIU1:38F5OAUN5PJT963L7M35I309DNS7H7,11778,087481_-0.015151515151515138.png,7,47,live
942,A9ZCY6FLUCIU1:38F5OAUN5PJT963L7M35I309DNS7H7,3595,165771_0.26767676767676774.png,6,48,live
943,A9ZCY6FLUCIU1:38F5OAUN5PJT963L7M35I309DNS7H7,2864,046067_0.19696969696969702.png,4,49,live
944,A9ZCY6FLUCIU1:38F5OAUN5PJT963L7M35I309DNS7H7,3367,040428_-0.06565656565656564.png,8,50,live
945,A9ZCY6FLUCIU1:38F5OAUN5PJT963L7M35I309DNS7H7,2713,063261_0.33838383838383845.png,3,51,live
946,A9ZCY6FLUCIU1:38F5OAUN5PJT963L7M35I309DNS7H7,3363,026046_0.06565656565656575.png,7,52,live
947,A9ZCY6FLUCIU1:38F5OAUN5PJT963L7M35I309DNS7H7,5690,179053_-0.2777777777777778.png,5,53,live
948,A9ZCY6FLUCIU1:38F5OAUN5PJT963L7M35I309DNS7H7,4068,159336_0.20707070707070718.png,5,54,live
949,A9ZCY6FLUCIU1:38F5OAUN5PJT963L7M35I309DNS7H7,4096,005291_0.4797979797979799.png,6,55,live
950,A9ZCY6FLUCIU1:38F5OAUN5PJT963L7M35I309DNS7H7,3844,066124_-0.25757575757575757.png,5,57,live
951,A9ZCY6FLUCIU1:38F5OAUN5PJT963L7M35I309DNS7H7,4388,112214_-0.055555555555555525.png,6,58,live
952,A9ZCY6FLUCIU1:38F5OAUN5PJT963L7M35I309DNS7H7,2362,140101_0.09595959595959602.png,4,59,live
953,A9ZCY6FLUCIU1:38F5OAUN5PJT963L7M35I309DNS7H7,2728,131690_0.2575757575757577.png,6,60,live
954,A9ZCY6FLUCIU1:38F5OAUN5PJT963L7M35I309DNS7H7,59994,141987_-0.29797979797979796.png,3,61,live
955,A9ZCY6FLUCIU1:38F5OAUN5PJT963L7M35I309DNS7H7,3704,135849_0.36868686868686873.png,8,62,live
956,A9ZCY6FLUCIU1:38F5OAUN5PJT963L7M35I309DNS7H7,2905,119066_-0.22727272727272724.png,2,63,live
957,A9ZCY6FLUCIU1:38F5OAUN5PJT963L7M35I309DNS7H7,2197,104389_0.40909090909090917.png,7,64,live
958,A9ZCY6FLUCIU1:38F5OAUN5PJT963L7M35I309DNS7H7,3281,180549_0.03535353535353536.png,8,65,live
959,A9ZCY6FLUCIU1:38F5OAUN5PJT963L7M35I309DNS7H7,3363,108588_0.15656565656565657.png,7,66,live
960,A9ZCY6FLUCIU1:38F5OAUN5PJT963L7M35I309DNS7H7,2653,003566_0.11616161616161624.png,3,68,live
961,A9ZCY6FLUCIU1:38F5OAUN5PJT963L7M35I309DNS7H7,2587,122663_0.0757575757575758.png,5,69,live
962,A9ZCY6FLUCIU1:38F5OAUN5PJT963L7M35I309DNS7H7,2905,135421_0.045454545454545525.png,8,70,live
963,A9ZCY6FLUCIU1:38F5OAUN5PJT963L7M35I309DNS7H7,4652,196291_-0.24747474747474746.png,6,71,live
964,A9ZCY6FLUCIU1:38F5OAUN5PJT963L7M35I309DNS7H7,3444,164022_0.025252525252525304.png,4,72,live
965,A9ZCY6FLUCIU1:38F5OAUN5PJT963L7M35I309DNS7H7,4221,170842_-0.09595959595959591.png,7,73,live
966,A9ZCY6FLUCIU1:38F5OAUN5PJT963L7M35I309DNS7H7,3654,198895_-0.4393939393939394.png,6,74,live
967,A9ZCY6FLUCIU1:38F5OAUN5PJT963L7M35I309DNS7H7,4481,081501_-0.3888888888888889.png,7,75,live
968,A9ZCY6FLUCIU1:38F5OAUN5PJT963L7M35I309DNS7H7,3465,170263_0.4494949494949496.png,6,76,live
969,A9ZCY6FLUCIU1:38F5OAUN5PJT963L7M35I309DNS7H7,7219,195524_0.4191919191919192.png,6,77,live
970,A9ZCY6FLUCIU1:38F5OAUN5PJT963L7M35I309DNS7H7,2161,112214_-0.055555555555555525.png,7,79,live
971,A9ZCY6FLUCIU1:38F5OAUN5PJT963L7M35I309DNS7H7,2473,127006_0.3282828282828284.png,8,80,live
972,A9ZCY6FLUCIU1:38F5OAUN5PJT963L7M35I309DNS7H7,2622,135849_0.36868686868686873.png,8,81,live
973,A9ZCY6FLUCIU1:38F5OAUN5PJT963L7M35I309DNS7H7,2711,200785_0.2777777777777778.png,3,82,live
974,A9ZCY6FLUCIU1:38F5OAUN5PJT963L7M35I309DNS7H7,2752,075861_0.43939393939393945.png,7,83,live
975,A9ZCY6FLUCIU1:38F5OAUN5PJT963L7M35I309DNS7H7,2759,186898_-0.035353535353535304.png,7,84,live
976,A9ZCY6FLUCIU1:38F5OAUN5PJT963L7M35I309DNS7H7,14234,017328_-0.12626262626262624.png,3,85,live
977,A9ZCY6FLUCIU1:38F5OAUN5PJT963L7M35I309DNS7H7,3098,043227_-0.10606060606060602.png,8,86,live
978,A9ZCY6FLUCIU1:38F5OAUN5PJT963L7M35I309DNS7H7,3990,177685_-0.41919191919191917.png,7,87,live
979,A9ZCY6FLUCIU1:38F5OAUN5PJT963L7M35I309DNS7H7,8517,156125_0.13636363636363646.png,6,88,live
980,A9ZCY6FLUCIU1:38F5OAUN5PJT963L7M35I309DNS7H7,6645,122663_0.0757575757575758.png,6,90,live
981,A9ZCY6FLUCIU1:38F5OAUN5PJT963L7M35I309DNS7H7,3556,165313_-0.11616161616161613.png,4,91,live
982,A9ZCY6FLUCIU1:38F5OAUN5PJT963L7M35I309DNS7H7,2912,170032_0.3484848484848485.png,7,92,live
983,A9ZCY6FLUCIU1:38F5OAUN5PJT963L7M35I309DNS7H7,4488,066335_0.3787878787878789.png,3,93,live
984,A9ZCY6FLUCIU1:38F5OAUN5PJT963L7M35I309DNS7H7,2666,106232_-0.4797979797979798.png,3,94,live
985,A9ZCY6FLUCIU1:38F5OAUN5PJT963L7M35I309DNS7H7,2566,188020_-0.16666666666666663.png,6,95,live
986,A9ZCY6FLUCIU1:38F5OAUN5PJT963L7M35I309DNS7H7,2532,192160_0.3585858585858587.png,3,96,live
987,A9ZCY6FLUCIU1:38F5OAUN5PJT963L7M35I309DNS7H7,4540,147096_0.4696969696969697.png,3,97,live
988,A9ZCY6FLUCIU1:38F5OAUN5PJT963L7M35I309DNS7H7,3345,078578_-0.28787878787878785.png,6,98,live
989,A9ZCY6FLUCIU1:38F5OAUN5PJT963L7M35I309DNS7H7,2785,141987_-0.29797979797979796.png,4,99,live
990,A9ZCY6FLUCIU1:38F5OAUN5PJT963L7M35I309DNS7H7,4144,135421_0.045454545454545525.png,8,101,live
991,A9ZCY6FLUCIU1:38F5OAUN5PJT963L7M35I309DNS7H7,4014,179053_-0.2777777777777778.png,4,102,live
992,A9ZCY6FLUCIU1:38F5OAUN5PJT963L7M35I309DNS7H7,2444,165313_-0.11616161616161613.png,6,103,live
993,A9ZCY6FLUCIU1:38F5OAUN5PJT963L7M35I309DNS7H7,4994,131742_-0.23737373737373735.png,2,104,live
994,A9ZCY6FLUCIU1:38F5OAUN5PJT963L7M35I309DNS7H7,5023,062768_-0.15656565656565652.png,6,105,live
995,A9ZCY6FLUCIU1:38F5OAUN5PJT963L7M35I309DNS7H7,3909,164022_0.025252525252525304.png,6,106,live
996,A9ZCY6FLUCIU1:38F5OAUN5PJT963L7M35I309DNS7H7,2595,017660_-0.025252525252525193.png,6,107,live
997,A9ZCY6FLUCIU1:38F5OAUN5PJT963L7M35I309DNS7H7,2652,040946_0.3080808080808082.png,7,108,live
998,A9ZCY6FLUCIU1:38F5OAUN5PJT963L7M35I309DNS7H7,2692,170306_-0.21717171717171713.png,8,109,live
999,A9ZCY6FLUCIU1:38F5OAUN5PJT963L7M35I309DNS7H7,2714,064914_-0.07575757575757575.png,8,110,live
1000,A1VEEZ5D9WXZIV:3TGOYF991ZT0C3L1KT3FBA3JF6PUUV,8408,140101_0.09595959595959602.png,3,2,live
1001,A1VEEZ5D9WXZIV:3TGOYF991ZT0C3L1KT3FBA3JF6PUUV,7544,135421_0.045454545454545525.png,4,3,live
1002,A1VEEZ5D9WXZIV:3TGOYF991ZT0C3L1KT3FBA3JF6PUUV,5654,099209_-0.045454545454545414.png,4,4,live
1003,A1VEEZ5D9WXZIV:3TGOYF991ZT0C3L1KT3FBA3JF6PUUV,6598,131690_0.2575757575757577.png,5,5,live
1004,A1VEEZ5D9WXZIV:3TGOYF991ZT0C3L1KT3FBA3JF6PUUV,4861,196291_-0.24747474747474746.png,8,6,live
1005,A1VEEZ5D9WXZIV:3TGOYF991ZT0C3L1KT3FBA3JF6PUUV,4054,198895_-0.4393939393939394.png,4,7,live
1006,A1VEEZ5D9WXZIV:3TGOYF991ZT0C3L1KT3FBA3JF6PUUV,4320,140101_0.09595959595959602.png,3,8,live
1007,A1VEEZ5D9WXZIV:3TGOYF991ZT0C3L1KT3FBA3JF6PUUV,5249,112214_-0.055555555555555525.png,7,9,live
1008,A1VEEZ5D9WXZIV:3TGOYF991ZT0C3L1KT3FBA3JF6PUUV,4621,088129_0.2272727272727273.png,8,10,live
1009,A1VEEZ5D9WXZIV:3TGOYF991ZT0C3L1KT3FBA3JF6PUUV,5170,197011_0.21717171717171724.png,4,11,live
1010,A1VEEZ5D9WXZIV:3TGOYF991ZT0C3L1KT3FBA3JF6PUUV,8782,141987_-0.29797979797979796.png,5,13,live
1011,A1VEEZ5D9WXZIV:3TGOYF991ZT0C3L1KT3FBA3JF6PUUV,4993,051002_-0.4696969696969697.png,4,14,live
1012,A1VEEZ5D9WXZIV:3TGOYF991ZT0C3L1KT3FBA3JF6PUUV,4122,170263_0.4494949494949496.png,7,15,live
1013,A1VEEZ5D9WXZIV:3TGOYF991ZT0C3L1KT3FBA3JF6PUUV,3871,005839_0.45959595959595967.png,7,16,live
1014,A1VEEZ5D9WXZIV:3TGOYF991ZT0C3L1KT3FBA3JF6PUUV,3968,104389_0.40909090909090917.png,8,17,live
1015,A1VEEZ5D9WXZIV:3TGOYF991ZT0C3L1KT3FBA3JF6PUUV,4306,180549_0.03535353535353536.png,7,18,live
1016,A1VEEZ5D9WXZIV:3TGOYF991ZT0C3L1KT3FBA3JF6PUUV,3697,186898_-0.035353535353535304.png,7,19,live
1017,A1VEEZ5D9WXZIV:3TGOYF991ZT0C3L1KT3FBA3JF6PUUV,3590,127006_0.3282828282828284.png,8,20,live
1018,A1VEEZ5D9WXZIV:3TGOYF991ZT0C3L1KT3FBA3JF6PUUV,4274,107379_-0.3181818181818182.png,5,21,live
1019,A1VEEZ5D9WXZIV:3TGOYF991ZT0C3L1KT3FBA3JF6PUUV,3770,187313_-0.20707070707070707.png,8,22,live
1020,A1VEEZ5D9WXZIV:3TGOYF991ZT0C3L1KT3FBA3JF6PUUV,4471,162991_-0.1464646464646464.png,5,24,live
1021,A1VEEZ5D9WXZIV:3TGOYF991ZT0C3L1KT3FBA3JF6PUUV,3680,040946_0.3080808080808082.png,5,25,live
1022,A1VEEZ5D9WXZIV:3TGOYF991ZT0C3L1KT3FBA3JF6PUUV,4060,043227_-0.10606060606060602.png,7,26,live
1023,A1VEEZ5D9WXZIV:3TGOYF991ZT0C3L1KT3FBA3JF6PUUV,6031,200785_0.2777777777777778.png,2,27,live
1024,A1VEEZ5D9WXZIV:3TGOYF991ZT0C3L1KT3FBA3JF6PUUV,4040,062768_-0.15656565656565652.png,3,28,live
1025,A1VEEZ5D9WXZIV:3TGOYF991ZT0C3L1KT3FBA3JF6PUUV,4000,147096_0.4696969696969697.png,2,29,live
1026,A1VEEZ5D9WXZIV:3TGOYF991ZT0C3L1KT3FBA3JF6PUUV,3831,062769_0.3989898989898991.png,5,30,live
1027,A1VEEZ5D9WXZIV:3TGOYF991ZT0C3L1KT3FBA3JF6PUUV,4885,063261_0.33838383838383845.png,1,31,live
1028,A1VEEZ5D9WXZIV:3TGOYF991ZT0C3L1KT3FBA3JF6PUUV,3511,186898_-0.035353535353535304.png,3,32,live
1029,A1VEEZ5D9WXZIV:3TGOYF991ZT0C3L1KT3FBA3JF6PUUV,4084,122663_0.0757575757575758.png,3,33,live
1030,A1VEEZ5D9WXZIV:3TGOYF991ZT0C3L1KT3FBA3JF6PUUV,7755,003566_0.11616161616161624.png,4,35,live
1031,A1VEEZ5D9WXZIV:3TGOYF991ZT0C3L1KT3FBA3JF6PUUV,4564,026046_0.06565656565656575.png,8,36,live
1032,A1VEEZ5D9WXZIV:3TGOYF991ZT0C3L1KT3FBA3JF6PUUV,4017,056825_0.24747474747474751.png,5,37,live
1033,A1VEEZ5D9WXZIV:3TGOYF991ZT0C3L1KT3FBA3JF6PUUV,4258,112902_-0.398989898989899.png,3,38,live
1034,A1VEEZ5D9WXZIV:3TGOYF991ZT0C3L1KT3FBA3JF6PUUV,3283,120202_0.005050505050505083.png,4,39,live
1035,A1VEEZ5D9WXZIV:3TGOYF991ZT0C3L1KT3FBA3JF6PUUV,4040,040428_-0.06565656565656564.png,9,40,live
1036,A1VEEZ5D9WXZIV:3TGOYF991ZT0C3L1KT3FBA3JF6PUUV,4123,153694_-0.4898989898989899.png,3,41,live
1037,A1VEEZ5D9WXZIV:3TGOYF991ZT0C3L1KT3FBA3JF6PUUV,4006,179053_-0.2777777777777778.png,3,42,live
1038,A1VEEZ5D9WXZIV:3TGOYF991ZT0C3L1KT3FBA3JF6PUUV,10331,021699_0.5.png,7,43,live
1039,A1VEEZ5D9WXZIV:3TGOYF991ZT0C3L1KT3FBA3JF6PUUV,3536,170842_-0.09595959595959591.png,4,44,live
1040,A1VEEZ5D9WXZIV:3TGOYF991ZT0C3L1KT3FBA3JF6PUUV,4395,081501_-0.3888888888888889.png,7,46,live
1041,A1VEEZ5D9WXZIV:3TGOYF991ZT0C3L1KT3FBA3JF6PUUV,3960,112214_-0.055555555555555525.png,7,47,live
1042,A1VEEZ5D9WXZIV:3TGOYF991ZT0C3L1KT3FBA3JF6PUUV,7516,098800_-0.4292929292929293.png,7,48,live
1043,A1VEEZ5D9WXZIV:3TGOYF991ZT0C3L1KT3FBA3JF6PUUV,5523,035632_-0.2676767676767676.png,5,49,live
1044,A1VEEZ5D9WXZIV:3TGOYF991ZT0C3L1KT3FBA3JF6PUUV,3394,043227_-0.10606060606060602.png,8,50,live
